File: test-data-xrd/corundum.xye
'Id: "Corundum standard" Comment: "" Operator: "Lab Manager" Anode: Cu Scantype: "Locked Coupled"
10.0001 1.09375 0.106739
10.0512 0.895833 0.0966002
10.1023 0.958333 0.0999132
10.1534 1.09375 0.106739
10.2045 1.16667 0.11024
10.2556 1.07292 0.105718
10.3067 1.375 0.119678
10.3578 1.11458 0.107751
10.4089 1.15625 0.109746
10.46 1.28125 0.115526
10.5111 1.07292 0.105718
10.5622 1.3125 0.116927
10.6133 1.21875 0.112673
10.6644 1.40625 0.121031
10.7155 1.14583 0.109251
10.7666 1.28125 0.115526
10.8177 1.30208 0.116462
10.8688 1.25 0.114109
10.9199 1.20833 0.112191
10.971 1.02083 0.10312
11.0221 1.23958 0.113632
11.0732 1.19792 0.111706
11.1243 1.375 0.119678
11.1754 1.25 0.114109
11.2265 1.16667 0.11024
11.2776 1.35417 0.118768
11.3287 1.15625 0.109746
11.3798 1.41667 0.121478
11.4309 1.41667 0.121478
11.482 1.3125 0.116927
11.5331 1.38542 0.120131
11.5842 1.5 0.125
11.6353 1.07292 0.105718
11.6864 1.42708 0.121924
11.7375 1.4375 0.122368
11.7886 1.3125 0.116927
11.8397 1.42708 0.121924
11.8908 1.38542 0.120131
11.9419 1.23958 0.113632
11.993 1.52083 0.125865
12.0441 1.25 0.114109
12.0952 1.36458 0.119224
12.1463 1.5625 0.127578
12.1974 1.36458 0.119224
12.2485 1.46875 0.123691
12.2996 1.53125 0.126295
12.3507 1.5 0.125
12.4018 1.41667 0.121478
12.4529 1.26042 0.114583
12.504 1.54167 0.126724
12.5551 1.29167 0.115995
12.6062 1.51042 0.125433
12.6573 1.39583 0.120582
12.7084 1.42708 0.121924
12.7595 1.54167 0.126724
12.8106 1.4375 0.122368
12.8617 1.375 0.119678
12.9128 1.44792 0.122811
12.9639 1.38542 0.120131
13.015 1.5625 0.127578
13.0661 1.35417 0.118768
13.1172 1.39583 0.120582
13.1683 1.48958 0.124565
13.2194 1.30208 0.116462
13.2705 1.3125 0.116927
13.3216 1.47917 0.124129
13.3726 1.375 0.119678
13.4237 1.33333 0.117851
13.4748 1.55208 0.127152
13.5259 1.40625 0.121031
13.577 1.59375 0.128847
13.6281 1.46875 0.123691
13.6792 1.47917 0.124129
13.7303 1.35417 0.118768
13.7814 1.55208 0.127152
13.8325 1.28125 0.115526
13.8836 1.35417 0.118768
13.9347 1.72917 0.134209
13.9858 1.39583 0.120582
14.0369 1.15625 0.109746
14.088 1.64583 0.130935
14.1391 1.4375 0.122368
14.1902 1.44792 0.122811
14.2413 1.47917 0.124129
14.2924 1.52083 0.125865
14.3435 1.52083 0.125865
14.3946 1.36458 0.119224
14.4457 1.375 0.119678
14.4968 1.45833 0.123252
14.5479 1.5 0.125
14.599 1.32292 0.11739
14.6501 1.3125 0.116927
14.7012 1.33333 0.117851
14.7523 1.11458 0.107751
14.8034 1.41667 0.121478
14.8545 1.52083 0.125865
14.9056 1.36458 0.119224
14.9567 1.5 0.125
15.0078 1.45833 0.123252
15.0589 1.48958 0.124565
15.11 1.48958 0.124565
15.1611 1.26042 0.114583
15.2122 1.22917 0.113154
15.2633 1.375 0.119678
15.3144 1.41667 0.121478
15.3655 1.26042 0.114583
15.4166 1.26042 0.114583
15.4677 1.58333 0.128425
15.5188 1.27083 0.115056
15.5699 1.17708 0.110731
15.621 1.44792 0.122811
15.6721 1.46875 0.123691
15.7232 1.75 0.135015
15.7743 1.34375 0.118311
15.8254 1.625 0.130104
15.8765 1.20833 0.112191
15.9276 1.28125 0.115526
15.9787 1.4375 0.122368
16.0298 1.4375 0.122368
16.0809 1.40625 0.121031
16.132 1.34375 0.118311
16.1831 1.30208 0.116462
16.2342 1.42708 0.121924
16.2853 1.59375 0.128847
16.3364 1.53125 0.126295
16.3875 1.35417 0.118768
16.4386 1.28125 0.115526
16.4897 1.40625 0.121031
16.5408 1.51042 0.125433
16.5919 1.29167 0.115995
16.643 1.55208 0.127152
16.6941 1.47917 0.124129
16.7452 1.5625 0.127578
16.7963 1.30208 0.116462
16.8474 1.38542 0.120131
16.8985 1.45833 0.123252
16.9496 1.59375 0.128847
17.0007 1.40625 0.121031
17.0518 1.47917 0.124129
17.1029 1.3125 0.116927
17.154 1.52083 0.125865
17.2051 1.5 0.125
17.2562 1.65625 0.131349
17.3073 1.45833 0.123252
17.3584 1.55208 0.127152
17.4095 1.375 0.119678
17.4606 1.35417 0.118768
17.5117 1.4375 0.122368
17.5628 1.61458 0.129686
17.6139 1.51042 0.125433
17.665 1.40625 0.121031
17.7161 1.57292 0.128002
17.7672 1.51042 0.125433
17.8183 1.88542 0.140142
17.8694 1.58333 0.128425
17.9205 1.35417 0.118768
17.9716 1.33333 0.117851
18.0227 1.57292 0.128002
18.0738 1.58333 0.128425
18.1249 1.91667 0.141299
18.176 1.44792 0.122811
18.2271 1.625 0.130104
18.2782 1.66667 0.131762
18.3293 1.55208 0.127152
18.3804 1.57292 0.128002
18.4315 1.57292 0.128002
18.4826 1.66667 0.131762
18.5337 1.65625 0.131349
18.5848 1.88542 0.140142
18.6359 1.875 0.139754
18.687 1.57292 0.128002
18.7381 1.58333 0.128425
18.7892 1.53125 0.126295
18.8403 1.9375 0.142064
18.8914 1.83333 0.138193
18.9425 1.39583 0.120582
18.9936 1.78125 0.136216
19.0447 1.4375 0.122368
19.0958 1.59375 0.128847
19.1469 1.58333 0.128425
19.198 1.64583 0.130935
19.2491 1.59375 0.128847
19.3002 1.61458 0.129686
19.3513 1.6875 0.132583
19.4024 1.63542 0.13052
19.4535 1.45833 0.123252
19.5046 1.60417 0.129267
19.5557 1.55208 0.127152
19.6068 1.51042 0.125433
19.6579 1.96875 0.143205
19.709 1.70833 0.133398
19.7601 1.77083 0.135817
19.8112 1.73958 0.134613
19.8623 1.46875 0.123691
19.9134 1.65625 0.131349
19.9645 1.60417 0.129267
20.0156 1.77083 0.135817
20.0666 1.60417 0.129267
20.1177 1.86458 0.139366
20.1688 1.95833 0.142826
20.2199 1.61458 0.129686
20.271 1.78125 0.136216
20.3221 1.72917 0.134209
20.3732 1.67708 0.132173
20.4243 1.75 0.135015
20.4754 1.91667 0.141299
20.5265 1.70833 0.133398
20.5776 1.85417 0.138976
20.6287 2.01042 0.144713
20.6798 1.63542 0.13052
20.7309 1.64583 0.130935
20.782 1.67708 0.132173
20.8331 1.79167 0.136613
20.8842 1.90625 0.140914
20.9353 1.91667 0.141299
20.9864 2.04167 0.145833
21.0375 1.76042 0.135417
21.0886 1.83333 0.138193
21.1397 2.03125 0.145461
21.1908 1.83333 0.138193
21.2419 1.96875 0.143205
21.293 1.94792 0.142446
21.3441 1.82292 0.1378
21.3952 1.79167 0.136613
21.4463 1.72917 0.134209
21.4974 1.82292 0.1378
21.5485 2.01042 0.144713
21.5996 1.8125 0.137405
21.6507 1.9375 0.142064
21.7018 1.875 0.139754
21.7529 1.92708 0.141682
21.804 1.98958 0.143961
21.8551 2.02083 0.145087
21.9062 2.21875 0.152026
21.9573 1.8125 0.137405
22.0084 2.02083 0.145087
22.0595 1.89583 0.140529
22.1106 1.89583 0.140529
22.1617 2.01042 0.144713
22.2128 1.875 0.139754
22.2639 1.9375 0.142064
22.315 1.89583 0.140529
22.3661 2.0625 0.146575
22.4172 1.72917 0.134209
22.4683 1.85417 0.138976
22.5194 1.88542 0.140142
22.5705 1.4375 0.122368
22.6216 2.07292 0.146945
22.6727 2.27083 0.1538
22.7238 2.23958 0.152738
22.7749 1.66667 0.131762
22.826 2.0625 0.146575
22.8771 2.09375 0.147682
22.9282 2.03125 0.145461
22.9793 2.09375 0.147682
23.0304 1.96875 0.143205
23.0815 2.09375 0.147682
23.1326 2.26042 0.153447
23.1837 2.17708 0.150592
23.2348 2.01042 0.144713
23.2859 2.10417 0.148049
23.337 2.01042 0.144713
23.3881 2.10417 0.148049
23.4392 2.34375 0.15625
23.4903 1.94792 0.142446
23.5414 2.04167 0.145833
23.5925 1.98958 0.143961
23.6436 2 0.144338
23.6947 2.54167 0.162714
23.7458 2.22917 0.152383
23.7969 2.10417 0.148049
23.848 1.84375 0.138585
23.8991 1.91667 0.141299
23.9502 2.08333 0.147314
24.0013 2.07292 0.146945
24.0524 2.17708 0.150592
24.1035 2.20833 0.151669
24.1546 2.30208 0.154855
24.2057 2.47917 0.160701
24.2568 2.17708 0.150592
24.3079 2.33333 0.155902
24.359 2.28125 0.154153
24.4101 2.28125 0.154153
24.4612 1.85417 0.138976
24.5123 1.94792 0.142446
24.5634 2.03125 0.145461
24.6145 2.0625 0.146575
24.6656 2.04167 0.145833
24.7167 2.17708 0.150592
24.7678 2.19792 0.151311
24.8189 2.15625 0.14987
24.87 2.13542 0.149144
24.9211 2.23958 0.152738
24.9722 2.35417 0.156597
25.0233 2.29167 0.154504
25.0744 2.41667 0.158662
25.1255 2.63542 0.165687
25.1766 2.22917 0.152383
25.2277 2.29167 0.154504
25.2788 2.33333 0.155902
25.3299 2.5 0.161374
25.381 2.78125 0.17021
25.4321 4.01042 0.20439
25.4832 6.92708 0.268621
25.5343 30.40625 0.562789
25.5854 99.09375 1.01599
25.6365 52.4896 0.739437
25.6876 7.66667 0.282597
25.7387 3.5 0.190941
25.7898 3 0.176777
25.8409 2.8125 0.171163
25.892 2.375 0.157288
25.9431 2.36458 0.156943
25.9942 2.60417 0.164702
26.0453 2.38542 0.157633
26.0964 2.14583 0.149507
26.1475 2.16667 0.150231
26.1986 2.03125 0.145461
26.2497 2.08333 0.147314
26.3008 2.52083 0.162045
26.3519 2.21875 0.152026
26.403 1.94792 0.142446
26.4541 2.09375 0.147682
26.5052 2.04167 0.145833
26.5563 2.13542 0.149144
26.6074 2.38542 0.157633
26.6585 2.28125 0.154153
26.7095 2.05208 0.146205
26.7606 1.91667 0.141299
26.8117 1.92708 0.141682
26.8628 2.10417 0.148049
26.9139 2.08333 0.147314
26.965 1.90625 0.140914
27.0161 2.07292 0.146945
27.0672 1.88542 0.140142
27.1183 1.73958 0.134613
27.1694 1.71875 0.133805
27.2205 1.97917 0.143584
27.2716 1.83333 0.138193
27.3227 2 0.144338
27.3738 1.96875 0.143205
27.4249 1.95833 0.142826
27.476 2.11458 0.148415
27.5271 1.95833 0.142826
27.5782 2 0.144338
27.6293 1.95833 0.142826
27.6804 1.84375 0.138585
27.7315 1.92708 0.141682
27.7826 1.69792 0.132991
27.8337 1.91667 0.141299
27.8848 1.90625 0.140914
27.9359 1.61458 0.129686
27.987 1.92708 0.141682
28.0381 1.8125 0.137405
28.0892 1.94792 0.142446
28.1403 1.82292 0.1378
28.1914 1.90625 0.140914
28.2425 2.10417 0.148049
28.2936 1.76042 0.135417
28.3447 2.42708 0.159004
28.3958 2.53125 0.16238
28.4469 1.94792 0.142446
28.498 1.83333 0.138193
28.5491 1.71875 0.133805
28.6002 1.88542 0.140142
28.6513 2.05208 0.146205
28.7024 1.66667 0.131762
28.7535 1.97917 0.143584
28.8046 1.84375 0.138585
28.8557 1.82292 0.1378
28.9068 1.86458 0.139366
28.9579 1.79167 0.136613
29.009 1.89583 0.140529
29.0601 1.98958 0.143961
29.1112 1.78125 0.136216
29.1623 1.875 0.139754
29.2134 1.64583 0.130935
29.2645 1.625 0.130104
29.3156 1.46875 0.123691
29.3667 2 0.144338
29.4178 1.84375 0.138585
29.4689 1.71875 0.133805
29.52 1.8125 0.137405
29.5711 1.78125 0.136216
29.6222 1.71875 0.133805
29.6733 1.5625 0.127578
29.7244 1.66667 0.131762
29.7755 1.48958 0.124565
29.8266 1.63542 0.13052
29.8777 1.54167 0.126724
29.9288 1.55208 0.127152
29.9799 1.72917 0.134209
30.031 1.53125 0.126295
30.0821 1.5625 0.127578
30.1332 1.41667 0.121478
30.1843 1.5 0.125
30.2354 1.67708 0.132173
30.2865 1.66667 0.131762
30.3376 1.61458 0.129686
30.3887 1.53125 0.126295
30.4398 1.70833 0.133398
30.4909 1.67708 0.132173
30.542 1.48958 0.124565
30.5931 1.57292 0.128002
30.6442 1.42708 0.121924
30.6953 1.70833 0.133398
30.7464 1.71875 0.133805
30.7975 1.51042 0.125433
30.8486 1.76042 0.135417
30.8997 1.76042 0.135417
30.9508 1.75 0.135015
31.0019 1.875 0.139754
31.053 1.77083 0.135817
31.1041 1.4375 0.122368
31.1552 1.4375 0.122368
31.2063 1.17708 0.110731
31.2574 1.34375 0.118311
31.3085 1.65625 0.131349
31.3596 1.52083 0.125865
31.4107 1.55208 0.127152
31.4618 1.3125 0.116927
31.5129 1.71875 0.133805
31.564 1.47917 0.124129
31.6151 1.77083 0.135817
31.6662 2.16667 0.150231
31.7173 1.82292 0.1378
31.7684 1.60417 0.129267
31.8195 1.70833 0.133398
31.8706 1.58333 0.128425
31.9217 1.59375 0.128847
31.9728 1.64583 0.130935
32.0239 1.58333 0.128425
32.075 1.39583 0.120582
32.1261 1.59375 0.128847
32.1772 1.46875 0.123691
32.2283 1.55208 0.127152
32.2794 1.41667 0.121478
32.3305 1.63542 0.13052
32.3816 1.54167 0.126724
32.4327 1.55208 0.127152
32.4838 1.66667 0.131762
32.5349 1.57292 0.128002
32.586 1.64583 0.130935
32.6371 1.28125 0.115526
32.6882 1.42708 0.121924
32.7393 1.57292 0.128002
32.7904 1.45833 0.123252
32.8415 1.51042 0.125433
32.8926 1.40625 0.121031
32.9437 1.61458 0.129686
32.9948 1.20833 0.112191
33.0459 1.35417 0.118768
33.097 1.57292 0.128002
33.1481 1.375 0.119678
33.1992 1.47917 0.124129
33.2503 1.79167 0.136613
33.3014 1.58333 0.128425
33.3525 1.36458 0.119224
33.4035 1.30208 0.116462
33.4546 1.6875 0.132583
33.5057 1.44792 0.122811
33.5568 1.1875 0.11122
33.6079 1.5625 0.127578
33.659 1.41667 0.121478
33.7101 1.44792 0.122811
33.7612 1.28125 0.115526
33.8123 1.27083 0.115056
33.8634 1.53125 0.126295
33.9145 1.59375 0.128847
33.9656 1.96875 0.143205
34.0167 2.05208 0.146205
34.0678 2.01042 0.144713
34.1189 2.08333 0.147314
34.17 1.90625 0.140914
34.2211 1.96875 0.143205
34.2722 2.1875 0.150952
34.3233 2.10417 0.148049
34.3744 2.23958 0.152738
34.4255 2.16667 0.150231
34.4766 2.01042 0.144713
34.5277 2.26042 0.153447
34.5788 2.14583 0.149507
34.6299 2.05208 0.146205
34.681 2.22917 0.152383
34.7321 2.52083 0.162045
34.7832 2.625 0.165359
34.8343 2.83333 0.171796
34.8854 3.82292 0.199555
34.9365 5.51042 0.239583
34.9876 9.22917 0.31006
35.0387 12.6771 0.363391
35.0898 52.1979 0.737379
35.1409 400.833 2.04337
35.192 93.5104 0.986948
35.2431 213.396 1.49093
35.2942 18.96875 0.444512
35.3453 7.96875 0.288111
35.3964 5.28125 0.234549
35.4475 3.32292 0.186048
35.4986 2.92708 0.174615
35.5497 2.48958 0.161038
35.6008 2.54167 0.162714
35.6519 2.10417 0.148049
35.703 2.11458 0.148415
35.7541 2.05208 0.146205
35.8052 1.94792 0.142446
35.8563 1.70833 0.133398
35.9074 1.875 0.139754
35.9585 1.85417 0.138976
36.0096 1.91667 0.141299
36.0607 1.85417 0.138976
36.1118 2.03125 0.145461
36.1629 1.75 0.135015
36.214 1.71875 0.133805
36.2651 1.65625 0.131349
36.3162 1.76042 0.135417
36.3673 1.61458 0.129686
36.4184 1.53125 0.126295
36.4695 1.64583 0.130935
36.5206 1.48958 0.124565
36.5717 1.64583 0.130935
36.6228 1.75 0.135015
36.6739 1.54167 0.126724
36.725 1.48958 0.124565
36.7761 1.625 0.130104
36.8272 1.76042 0.135417
36.8783 1.60417 0.129267
36.9294 1.61458 0.129686
36.9805 1.52083 0.125865
37.0316 1.55208 0.127152
37.0827 1.60417 0.129267
37.1338 1.4375 0.122368
37.1849 1.38542 0.120131
37.236 1.16667 0.11024
37.2871 1.47917 0.124129
37.3382 1.35417 0.118768
37.3893 1.33333 0.117851
37.4404 1.38542 0.120131
37.4915 1.79167 0.136613
37.5426 1.38542 0.120131
37.5937 1.85417 0.138976
37.6448 1.98958 0.143961
37.6959 2.625 0.165359
37.747 17.1458 0.422614
37.7981 19.9479 0.455841
37.8492 10.8021 0.335443
37.9003 8.17708 0.291853
37.9514 2.21875 0.152026
38.0025 1.54167 0.126724
38.0536 1.47917 0.124129
38.1047 1.40625 0.121031
38.1558 1.33333 0.117851
38.2069 1.59375 0.128847
38.258 1.27083 0.115056
38.3091 1.32292 0.11739
38.3602 1.4375 0.122368
38.4113 1.22917 0.113154
38.4624 1.1875 0.11122
38.5135 1.46875 0.123691
38.5646 1.27083 0.115056
38.6157 1.32292 0.11739
38.6668 1.20833 0.112191
38.7179 1.28125 0.115526
38.769 1.17708 0.110731
38.8201 1.13542 0.108753
38.8712 1.10417 0.107246
38.9223 1.29167 0.115995
38.9734 1.13542 0.108753
39.0245 1.14583 0.109251
39.0756 1.28125 0.115526
39.1267 1.09375 0.106739
39.1778 1.22917 0.113154
39.2289 1.41667 0.121478
39.28 1.19792 0.111706
39.3311 1.17708 0.110731
39.3822 1.20833 0.112191
39.4333 1.13542 0.108753
39.4844 1.17708 0.110731
39.5355 1.25 0.114109
39.5866 1.30208 0.116462
39.6377 1.26042 0.114583
39.6888 1.14583 0.109251
39.7399 1.33333 0.117851
39.791 1.15625 0.109746
39.8421 1.25 0.114109
39.8932 1.25 0.114109
39.9443 1.32292 0.11739
39.9954 1.1875 0.11122
40.0464 1.20833 0.112191
40.0975 1.21875 0.112673
40.1486 1.21875 0.112673
40.1997 1.26042 0.114583
40.2508 1.32292 0.11739
40.3019 1.55208 0.127152
40.353 1.08333 0.10623
40.4041 1.34375 0.118311
40.4552 1.40625 0.121031
40.5063 1.20833 0.112191
40.5574 1.16667 0.11024
40.6085 1.32292 0.11739
40.6596 1.45833 0.123252
40.7107 1.3125 0.116927
40.7618 1.27083 0.115056
40.8129 1.33333 0.117851
40.864 1.05208 0.104686
40.9151 1.27083 0.115056
40.9662 1.21875 0.112673
41.0173 1.35417 0.118768
41.0684 1.22917 0.113154
41.1195 1.1875 0.11122
41.1706 1.29167 0.115995
41.2217 1.03125 0.103645
41.2728 1.40625 0.121031
41.3239 1.34375 0.118311
41.375 1.21875 0.112673
41.4261 1.30208 0.116462
41.4772 1.65625 0.131349
41.5283 1.64583 0.130935
41.5794 1.73958 0.134613
41.6305 5.91667 0.248258
41.6816 20.53125 0.462458
41.7327 4.08333 0.206239
41.7838 11.34375 0.34375
41.8349 2.46875 0.160363
41.886 1.61458 0.129686
41.9371 1.63542 0.13052
41.9882 1.71875 0.133805
42.0393 1.51042 0.125433
42.0904 1.4375 0.122368
42.1415 1.36458 0.119224
42.1926 1.40625 0.121031
42.2437 1.57292 0.128002
42.2948 1.34375 0.118311
42.3459 1.51042 0.125433
42.397 1.42708 0.121924
42.4481 1.39583 0.120582
42.4992 1.48958 0.124565
42.5503 1.47917 0.124129
42.6014 1.58333 0.128425
42.6525 1.53125 0.126295
42.7036 1.46875 0.123691
42.7547 1.55208 0.127152
42.8058 1.34375 0.118311
42.8569 1.40625 0.121031
42.908 1.27083 0.115056
42.9591 1.42708 0.121924
43.0102 1.45833 0.123252
43.0613 2.02083 0.145087
43.1124 2.48958 0.161038
43.1635 3.48958 0.190656
43.2146 4.15625 0.208073
43.2657 7.86458 0.286221
43.3168 56.6354 0.768083
43.3679 112.917 1.08453
43.419 23.75 0.497389
43.4701 73.6458 0.875868
43.5212 8.42708 0.29628
43.5723 3.83333 0.199826
43.6234 2.78125 0.17021
43.6745 2.13542 0.149144
43.7256 1.5 0.125
43.7767 1.5625 0.127578
43.8278 1.625 0.130104
43.8789 1.44792 0.122811
43.93 1.4375 0.122368
43.9811 1.54167 0.126724
44.0322 1.46875 0.123691
44.0833 1.59375 0.128847
44.1344 1.35417 0.118768
44.1855 1.15625 0.109746
44.2366 1.3125 0.116927
44.2877 1.64583 0.130935
44.3388 1.34375 0.118311
44.3899 1.45833 0.123252
44.441 1.47917 0.124129
44.4921 1.17708 0.110731
44.5432 1.36458 0.119224
44.5943 1.26042 0.114583
44.6454 1.21875 0.112673
44.6965 1.33333 0.117851
44.7476 1.23958 0.113632
44.7987 1.30208 0.116462
44.8498 1.35417 0.118768
44.9009 1.40625 0.121031
44.952 1.02083 0.10312
45.0031 1.10417 0.107246
45.0542 1.04167 0.104167
45.1053 1.23958 0.113632
45.1564 1.34375 0.118311
45.2075 1.32292 0.11739
45.2586 1.26042 0.114583
45.3097 1.20833 0.112191
45.3608 1.3125 0.116927
45.4119 1.09375 0.106739
45.463 1.35417 0.118768
45.5141 1.09375 0.106739
45.5652 1.23958 0.113632
45.6163 1.14583 0.109251
45.6674 1.125 0.108253
45.7185 1.32292 0.11739
45.7696 1.21875 0.112673
45.8207 1.16667 0.11024
45.8718 1.36458 0.119224
45.9229 1.3125 0.116927
45.974 1.01042 0.102592
46.0251 1.10417 0.107246
46.0762 1.23958 0.113632
46.1273 1.625 0.130104
46.1784 2.53125 0.16238
46.2295 1.21875 0.112673
46.2806 1.69792 0.132991
46.3317 1.40625 0.121031
46.3828 0.96875 0.100455
46.4339 0.979167 0.100993
46.485 1.3125 0.116927
46.5361 1.21875 0.112673
46.5872 1.21875 0.112673
46.6383 1.34375 0.118311
46.6894 1.20833 0.112191
46.7404 1.04167 0.104167
46.7915 1.22917 0.113154
46.8426 1.0625 0.105203
46.8937 1.13542 0.108753
46.9448 1.21875 0.112673
46.9959 1.15625 0.109746
47.047 1.11458 0.107751
47.0981 1.10417 0.107246
47.1492 1.17708 0.110731
47.2003 1.20833 0.112191
47.2514 0.9375 0.0988212
47.3025 1.125 0.108253
47.3536 1.125 0.108253
47.4047 1.23958 0.113632
47.4558 1.03125 0.103645
47.5069 1.17708 0.110731
47.558 1.23958 0.113632
47.6091 1.13542 0.108753
47.6602 1.22917 0.113154
47.7113 1.22917 0.113154
47.7624 1.19792 0.111706
47.8135 1.09375 0.106739
47.8646 1.0625 0.105203
47.9157 1.20833 0.112191
47.9668 1.1875 0.11122
48.0179 1.15625 0.109746
48.069 1.17708 0.110731
48.1201 1.19792 0.111706
48.1712 1.30208 0.116462
48.2223 0.979167 0.100993
48.2734 1.22917 0.113154
48.3245 1.14583 0.109251
48.3756 1.01042 0.102592
48.4267 1.25 0.114109
48.4778 1.14583 0.109251
48.5289 1.14583 0.109251
48.58 1.375 0.119678
48.6311 1.26042 0.114583
48.6822 1.23958 0.113632
48.7333 1.15625 0.109746
48.7844 1.08333 0.10623
48.8355 0.947917 0.0993687
48.8866 1.1875 0.11122
48.9377 1.10417 0.107246
48.9888 1.21875 0.112673
49.0399 1.1875 0.11122
49.091 0.947917 0.0993687
49.1421 1.125 0.108253
49.1932 1.04167 0.104167
49.2443 1.15625 0.109746
49.2954 1.11458 0.107751
49.3465 1.14583 0.109251
49.3976 0.96875 0.100455
49.4487 1.23958 0.113632
49.4998 1.15625 0.109746
49.5509 0.9375 0.0988212
49.602 1.09375 0.106739
49.6531 1.09375 0.106739
49.7042 1.15625 0.109746
49.7553 1.07292 0.105718
49.8064 1.04167 0.104167
49.8575 1.16667 0.11024
49.9086 1.03125 0.103645
49.9597 0.854167 0.0943269
50.0108 1.17708 0.110731
50.0619 1.09375 0.106739
50.113 1.01042 0.102592
50.1641 0.96875 0.100455
50.2152 1.16667 0.11024
50.2663 1.33333 0.117851
50.3174 1.13542 0.108753
50.3685 1.05208 0.104686
50.4196 1.01042 0.102592
50.4707 1.11458 0.107751
50.5218 1.13542 0.108753
50.5729 1.03125 0.103645
50.624 1.19792 0.111706
50.6751 1.125 0.108253
50.7262 1.22917 0.113154
50.7773 1.19792 0.111706
50.8284 1.1875 0.11122
50.8795 1.05208 0.104686
50.9306 1.29167 0.115995
50.9817 0.96875 0.100455
51.0328 1.125 0.108253
51.0839 1.17708 0.110731
51.135 1.26042 0.114583
51.1861 1.15625 0.109746
51.2372 0.895833 0.0966002
51.2883 1.29167 0.115995
51.3394 1.01042 0.102592
51.3905 1.16667 0.11024
51.4416 1.1875 0.11122
51.4927 1.10417 0.107246
51.5438 1.15625 0.109746
51.5949 1.16667 0.11024
51.646 1.20833 0.112191
51.6971 1.08333 0.10623
51.7482 1.28125 0.115526
51.7993 1.40625 0.121031
51.8504 1.28125 0.115526
51.9015 0.927083 0.0982706
51.9526 1.33333 0.117851
52.0037 1.30208 0.116462
52.0548 1.33333 0.117851
52.1059 1.14583 0.109251
52.157 1.34375 0.118311
52.2081 1.39583 0.120582
52.2592 1.42708 0.121924
52.3103 1.97917 0.143584
52.3614 2.125 0.14878
52.4125 2.57292 0.163711
52.4636 4.83333 0.224382
52.5147 32.75 0.584077
52.5658 58.1771 0.778467
52.6169 8.48958 0.297377
52.668 27.1667 0.531964
52.7191 19.2708 0.448038
52.7702 3.45833 0.189801
52.8213 2.07292 0.146945
52.8724 1.67708 0.132173
52.9235 1.41667 0.121478
52.9746 1.23958 0.113632
53.0257 1.34375 0.118311
53.0768 1.5 0.125
53.1279 1.21875 0.112673
53.179 1.28125 0.115526
53.2301 1.125 0.108253
53.2812 1.25 0.114109
53.3323 1.25 0.114109
53.3834 1.32292 0.11739
53.4344 1.125 0.108253
53.4855 1.30208 0.116462
53.5366 1.35417 0.118768
53.5877 1.08333 0.10623
53.6388 0.958333 0.0999132
53.6899 1.30208 0.116462
53.741 1.30208 0.116462
53.7921 1.17708 0.110731
53.8432 1.16667 0.11024
53.8943 1.36458 0.119224
53.9454 1.125 0.108253
53.9965 1.08333 0.10623
54.0476 1.01042 0.102592
54.0987 1.22917 0.113154
54.1498 1.05208 0.104686
54.2009 1.36458 0.119224
54.252 1.05208 0.104686
54.3031 1.04167 0.104167
54.3542 1.11458 0.107751
54.4053 1.16667 0.11024
54.4564 1.01042 0.102592
54.5075 1.125 0.108253
54.5586 1.3125 0.116927
54.6097 1.125 0.108253
54.6608 1.17708 0.110731
54.7119 0.895833 0.0966002
54.763 1.09375 0.106739
54.8141 1.19792 0.111706
54.8652 1.30208 0.116462
54.9163 1.14583 0.109251
54.9674 1.08333 0.10623
55.0185 1.3125 0.116927
55.0696 1.09375 0.106739
55.1207 0.927083 0.0982706
55.1718 1.08333 0.10623
55.2229 1.1875 0.11122
55.274 1.17708 0.110731
55.3251 1.125 0.108253
55.3762 1.55208 0.127152
55.4273 1.61458 0.129686
55.4784 1.29167 0.115995
55.5295 1.33333 0.117851
55.5806 1.4375 0.122368
55.6317 1.30208 0.116462
55.6828 1.40625 0.121031
55.7339 1.28125 0.115526
55.785 1.44792 0.122811
55.8361 1.375 0.119678
55.8872 1.32292 0.11739
55.9383 1.52083 0.125865
55.9894 1.66667 0.131762
56.0405 1.36458 0.119224
56.0916 1.45833 0.123252
56.1427 1.375 0.119678
56.1938 1.375 0.119678
56.2449 1.36458 0.119224
56.296 1.53125 0.126295
56.3471 1.47917 0.124129
56.3982 1.44792 0.122811
56.4493 1.46875 0.123691
56.5004 1.40625 0.121031
56.5515 1.55208 0.127152
56.6026 1.58333 0.128425
56.6537 1.21875 0.112673
56.7048 1.47917 0.124129
56.7559 1.30208 0.116462
56.807 1.59375 0.128847
56.8581 1.5625 0.127578
56.9092 1.65625 0.131349
56.9603 2.08333 0.147314
57.0114 1.79167 0.136613
57.0625 1.97917 0.143584
57.1136 2.08333 0.147314
57.1647 2.58333 0.164042
57.2158 4.26042 0.210664
57.2669 5.32292 0.235472
57.318 5.46875 0.238676
57.3691 8.45833 0.296829
57.4202 24.21875 0.502273
57.4713 195.823 1.42822
57.5224 165.9375 1.31473
57.5735 26.6354 0.526737
57.6246 93.21875 0.985408
57.6757 98.6042 1.01347
57.7268 12.5625 0.361745
57.7779 6.33333 0.256851
57.829 4.05208 0.205449
57.8801 2.98958 0.17647
57.9312 2.48958 0.161038
57.9823 1.94792 0.142446
58.0334 2.09375 0.147682
58.0845 1.88542 0.140142
58.1356 1.5 0.125
58.1867 1.72917 0.134209
58.2378 1.67708 0.132173
58.2889 1.57292 0.128002
58.34 1.65625 0.131349
58.3911 1.52083 0.125865
58.4422 1.69792 0.132991
58.4933 1.5625 0.127578
58.5444 1.55208 0.127152
58.5955 1.45833 0.123252
58.6466 1.40625 0.121031
58.6977 1.36458 0.119224
58.7488 1.30208 0.116462
58.7999 1.28125 0.115526
58.851 1.32292 0.11739
58.9021 1.36458 0.119224
58.9532 1.42708 0.121924
59.0043 1.40625 0.121031
59.0554 1.33333 0.117851
59.1065 1.36458 0.119224
59.1576 1.29167 0.115995
59.2087 1.47917 0.124129
59.2598 1.48958 0.124565
59.3109 1.32292 0.11739
59.362 1.40625 0.121031
59.4131 1.40625 0.121031
59.4642 1.32292 0.11739
59.5153 1.44792 0.122811
59.5664 1.26042 0.114583
59.6175 1.35417 0.118768
59.6686 1.72917 0.134209
59.7197 2.69792 0.16764
59.7708 1.90625 0.140914
59.8219 1.63542 0.13052
59.873 1.90625 0.140914
59.9241 2.08333 0.147314
59.9752 1.58333 0.128425
60.0263 1.33333 0.117851
60.0773 1.44792 0.122811
60.1284 1.25 0.114109
60.1795 1.3125 0.116927
60.2306 1.08333 0.10623
60.2817 1.41667 0.121478
60.3328 1.36458 0.119224
60.3839 1.33333 0.117851
60.435 1.48958 0.124565
60.4861 1.32292 0.11739
60.5372 1.25 0.114109
60.5883 1.14583 0.109251
60.6394 1.19792 0.111706
60.6905 1.44792 0.122811
60.7416 1.32292 0.11739
60.7927 1.39583 0.120582
60.8438 1.48958 0.124565
60.8949 1.3125 0.116927
60.946 1.52083 0.125865
60.9971 1.76042 0.135417
61.0482 2.23958 0.152738
61.0993 3.55208 0.192356
61.1504 4.48958 0.216256
61.2015 4.67708 0.220725
61.2526 22.4271 0.483338
61.3037 74.7396 0.882348
61.3548 11.6875 0.348919
61.4059 8.02083 0.289051
61.457 35.1458 0.605064
61.5081 11.8646 0.351553
61.5592 3.16667 0.181621
61.6103 2.09375 0.147682
61.6614 1.58333 0.128425
61.7125 1.76042 0.135417
61.7636 1.33333 0.117851
61.8147 1.1875 0.11122
61.8658 1.30208 0.116462
61.9169 1.07292 0.105718
61.968 1.23958 0.113632
62.0191 1.38542 0.120131
62.0702 1.28125 0.115526
62.1213 1.1875 0.11122
62.1724 1.26042 0.114583
62.2235 1.16667 0.11024
62.2746 1.1875 0.11122
62.3257 1.08333 0.10623
62.3768 1.23958 0.113632
62.4279 1.30208 0.116462
62.479 1.39583 0.120582
62.5301 1.375 0.119678
62.5812 1.26042 0.114583
62.6323 1.19792 0.111706
62.6834 1.08333 0.10623
62.7345 1.1875 0.11122
62.7856 1.14583 0.109251
62.8367 1.41667 0.121478
62.8878 1.25 0.114109
62.9389 1.23958 0.113632
62.99 1.07292 0.105718
63.0411 1.19792 0.111706
63.0922 0.979167 0.100993
63.1433 0.989583 0.101529
63.1944 1.16667 0.11024
63.2455 1.09375 0.106739
63.2966 1.22917 0.113154
63.3477 1.11458 0.107751
63.3988 1.03125 0.103645
63.4499 1.17708 0.110731
63.501 1.22917 0.113154
63.5521 1.23958 0.113632
63.6032 1.17708 0.110731
63.6543 1.22917 0.113154
63.7054 1.23958 0.113632
63.7565 1.23958 0.113632
63.8076 1.16667 0.11024
63.8587 1.04167 0.104167
63.9098 1.16667 0.11024
63.9609 1.07292 0.105718
64.012 1.17708 0.110731
64.0631 1.09375 0.106739
64.1142 1.26042 0.114583
64.1653 1.16667 0.11024
64.2164 1.28125 0.115526
64.2675 1.10417 0.107246
64.3186 1.08333 0.10623
64.3697 1.0625 0.105203
64.4208 1.20833 0.112191
64.4719 0.979167 0.100993
64.523 1.17708 0.110731
64.5741 1.1875 0.11122
64.6252 1.1875 0.11122
64.6763 1.1875 0.11122
64.7274 1.15625 0.109746
64.7785 0.96875 0.100455
64.8296 1.36458 0.119224
64.8807 1.03125 0.103645
64.9318 1.05208 0.104686
64.9829 1.13542 0.108753
65.034 1.14583 0.109251
65.0851 1.19792 0.111706
65.1362 1.28125 0.115526
65.1873 1.14583 0.109251
65.2384 1.11458 0.107751
65.2895 1.22917 0.113154
65.3406 0.989583 0.101529
65.3917 1.15625 0.109746
65.4428 0.864583 0.0949003
65.4939 1.09375 0.106739
65.545 1.1875 0.11122
65.5961 1.10417 0.107246
65.6472 1.22917 0.113154
65.6983 1.1875 0.11122
65.7494 1.38542 0.120131
65.8005 1.28125 0.115526
65.8516 1.26042 0.114583
65.9027 1.20833 0.112191
65.9538 1.25 0.114109
66.0049 1.39583 0.120582
66.056 1.30208 0.116462
66.1071 1.22917 0.113154
66.1582 1.39583 0.120582
66.2093 1.4375 0.122368
66.2604 1.82292 0.1378
66.3115 1.75 0.135015
66.3626 2.25 0.153093
66.4137 3.35417 0.18692
66.4648 11.3958 0.344538
66.5159 42.2292 0.66324
66.567 9.91667 0.321401
66.6181 4.375 0.213478
66.6692 11.7292 0.349541
66.7203 17.1667 0.42287
66.7713 3.38542 0.187789
66.8224 2 0.144338
66.8735 1.61458 0.129686
66.9246 1.45833 0.123252
66.9757 1.22917 0.113154
67.0268 1.28125 0.115526
67.0779 1.20833 0.112191
67.129 1.11458 0.107751
67.1801 1.28125 0.115526
67.2312 1.19792 0.111706
67.2823 1.30208 0.116462
67.3334 1.01042 0.102592
67.3845 1.22917 0.113154
67.4356 1.05208 0.104686
67.4867 1.54167 0.126724
67.5378 1.14583 0.109251
67.5889 1.1875 0.11122
67.64 1.11458 0.107751
67.6911 1.20833 0.112191
67.7422 1.17708 0.110731
67.7933 1.38542 0.120131
67.8444 1.32292 0.11739
67.8955 1.59375 0.128847
67.9466 1.57292 0.128002
67.9977 1.65625 0.131349
68.0488 2.05208 0.146205
68.0999 2.98958 0.17647
68.151 9.29167 0.311108
68.2021 39.1667 0.638738
68.2532 12.0104 0.353707
68.3043 4.17708 0.208594
68.3554 7.75 0.284129
68.4065 18.78125 0.44231
68.4576 4.42708 0.214745
68.5087 1.94792 0.142446
68.5598 1.85417 0.138976
68.6109 1.40625 0.121031
68.662 1.34375 0.118311
68.7131 1.375 0.119678
68.7642 1.26042 0.114583
68.8153 1.16667 0.11024
68.8664 1.03125 0.103645
68.9175 1.13542 0.108753
68.9686 0.885417 0.0960369
69.0197 1.17708 0.110731
69.0708 1.19792 0.111706
69.1219 1.14583 0.109251
69.173 1.17708 0.110731
69.2241 1.07292 0.105718
69.2752 1.07292 0.105718
69.3263 1.0625 0.105203
69.3774 1.17708 0.110731
69.4285 1.19792 0.111706
69.4796 1.27083 0.115056
69.5307 1.09375 0.106739
69.5818 1.0625 0.105203
69.6329 0.916667 0.097717
69.684 0.927083 0.0982706
69.7351 0.979167 0.100993
69.7862 0.958333 0.0999132
69.8373 1.27083 0.115056
69.8884 1.25 0.114109
69.9395 1.19792 0.111706
69.9906 0.989583 0.101529
70.0417 1.14583 0.109251
70.0928 0.947917 0.0993687
70.1439 1.16667 0.11024
70.195 0.9375 0.0988212
70.2461 1.04167 0.104167
70.2972 1.08333 0.10623
70.3483 1.53125 0.126295
70.3994 2.55208 0.163047
70.4505 1.54167 0.126724
70.5016 1.1875 0.11122
70.5527 1.23958 0.113632
70.6038 1.86458 0.139366
70.6549 1.25 0.114109
70.706 1.15625 0.109746
70.7571 1.13542 0.108753
70.8082 1.04167 0.104167
70.8593 1.02083 0.10312
70.9104 0.989583 0.101529
70.9615 1.03125 0.103645
71.0126 1.10417 0.107246
71.0637 0.927083 0.0982706
71.1148 0.979167 0.100993
71.1659 1.02083 0.10312
71.217 1.13542 0.108753
71.2681 1.10417 0.107246
71.3192 1.16667 0.11024
71.3703 0.833333 0.0931695
71.4214 1.15625 0.109746
71.4725 1.08333 0.10623
71.5236 0.9375 0.0988212
71.5747 1.10417 0.107246
71.6258 0.989583 0.101529
71.6769 0.979167 0.100993
71.728 1.05208 0.104686
71.7791 0.8125 0.0919975
71.8302 1.125 0.108253
71.8813 0.9375 0.0988212
71.9324 1.09375 0.106739
71.9835 0.947917 0.0993687
72.0346 1.09375 0.106739
72.0857 0.927083 0.0982706
72.1368 1.07292 0.105718
72.1879 1.01042 0.102592
72.239 0.895833 0.0966002
72.2901 0.979167 0.100993
72.3412 1.05208 0.104686
72.3923 1.16667 0.11024
72.4434 1.02083 0.10312
72.4945 0.90625 0.0971602
72.5456 1.02083 0.10312
72.5967 0.75 0.0883883
72.6478 0.802083 0.0914059
72.6989 1.01042 0.102592
72.75 0.895833 0.0966002
72.8011 0.989583 0.101529
72.8522 1.02083 0.10312
72.9033 1.08333 0.10623
72.9544 1.10417 0.107246
73.0055 1.10417 0.107246
73.0566 1.125 0.108253
73.1077 1.07292 0.105718
73.1588 1.02083 0.10312
73.2099 1.0625 0.105203
73.261 0.84375 0.09375
73.3121 1.03125 0.103645
73.3632 1.10417 0.107246
73.4142 0.916667 0.097717
73.4653 1.02083 0.10312
73.5164 0.885417 0.0960369
73.5675 0.8125 0.0919975
73.6186 1.04167 0.104167
73.6697 0.958333 0.0999132
73.7208 1.10417 0.107246
73.7719 1 0.102062
73.823 1.11458 0.107751
73.8741 1.0625 0.105203
73.9252 1.17708 0.110731
73.9763 1.32292 0.11739
74.0274 1.28125 0.115526
74.0785 1.32292 0.11739
74.1296 1.09375 0.106739
74.1807 1.375 0.119678
74.2318 2.04167 0.145833
74.2829 5.73958 0.244514
74.334 3.625 0.19432
74.3851 1.6875 0.132583
74.4362 1.47917 0.124129
74.4873 2.86458 0.172741
74.5384 2.94792 0.175235
74.5895 1.60417 0.129267
74.6406 1.3125 0.116927
74.6917 1.15625 0.109746
74.7428 1.3125 0.116927
74.7939 1.28125 0.115526
74.845 1.375 0.119678
74.8961 1.13542 0.108753
74.9472 1.29167 0.115995
74.9983 1.125 0.108253
75.0494 1.11458 0.107751
75.1005 1.10417 0.107246
75.1516 1.17708 0.110731
75.2027 1.36458 0.119224
75.2538 1.29167 0.115995
75.3049 1.07292 0.105718
75.356 1.21875 0.112673
75.4071 1.14583 0.109251
75.4582 1.15625 0.109746
75.5093 1.1875 0.11122
75.5604 1.27083 0.115056
75.6115 1.33333 0.117851
75.6626 1.10417 0.107246
75.7137 1.25 0.114109
75.7648 1.21875 0.112673
75.8159 1.29167 0.115995
75.867 1.28125 0.115526
75.9181 1.3125 0.116927
75.9692 1.23958 0.113632
76.0203 1.21875 0.112673
76.0714 1.3125 0.116927
76.1225 1.1875 0.11122
76.1736 1.36458 0.119224
76.2247 1.39583 0.120582
76.2758 1.25 0.114109
76.3269 1.46875 0.123691
76.378 1.75 0.135015
76.4291 2.20833 0.151669
76.4802 2.32292 0.155554
76.5313 2.54167 0.162714
76.5824 2.44792 0.159684
76.6335 3.20833 0.182812
76.6846 4.28125 0.211178
76.7357 6.875 0.267609
76.7868 17.4479 0.42632
76.8379 97.3958 1.00724
76.889 126.354 1.14725
76.9401 22 0.478714
76.9912 11.3229 0.343434
77.0423 26.40625 0.524466
77.0934 82.9896 0.929771
77.1445 29.0208 0.549818
77.1956 29.0104 0.54972
77.2467 41.4271 0.656911
77.2978 8.875 0.304052
77.3489 4.55208 0.217756
77.4 7.66667 0.282597
77.4511 21.84375 0.477011
77.5022 9.64583 0.316982
77.5533 3.0625 0.178609
77.6044 2.11458 0.148415
77.6555 2.01042 0.144713
77.7066 1.54167 0.126724
77.7577 1.44792 0.122811
77.8088 1.47917 0.124129
77.8599 1.27083 0.115056
77.911 1.22917 0.113154
77.9621 1.32292 0.11739
78.0132 1.20833 0.112191
78.0643 1.36458 0.119224
78.1154 1.13542 0.108753
78.1665 1.41667 0.121478
78.2176 1.11458 0.107751
78.2687 1.15625 0.109746
78.3198 1.19792 0.111706
78.3709 1.09375 0.106739
78.422 1.11458 0.107751
78.4731 1.22917 0.113154
78.5242 1.21875 0.112673
78.5753 1.22917 0.113154
78.6264 1.33333 0.117851
78.6775 1 0.102062
78.7286 1.14583 0.109251
78.7797 1.10417 0.107246
78.8308 1.17708 0.110731
78.8819 1.08333 0.10623
78.933 1.1875 0.11122
78.9841 1.09375 0.106739
79.0352 1.0625 0.105203
79.0863 1.125 0.108253
79.1374 0.989583 0.101529
79.1885 1.05208 0.104686
79.2396 1.01042 0.102592
79.2907 1.13542 0.108753
79.3418 1.08333 0.10623
79.3929 1.08333 0.10623
79.444 1.14583 0.109251
79.4951 1.05208 0.104686
79.5462 0.958333 0.0999132
79.5973 1 0.102062
79.6484 1.05208 0.104686
79.6995 1.21875 0.112673
79.7506 1.09375 0.106739
79.8017 0.9375 0.0988212
79.8528 0.96875 0.100455
79.9039 1.03125 0.103645
79.955 0.979167 0.100993
80.0061 1.0625 0.105203