File: test-data-electrochem/eclab-test-data.mpt
EC-Lab ASCII FILE
Nb header lines : 69

Galvanostatic Cycling with Potential Limitation

Run on channel : 10 (SN 16534)
Grouped channel(s) : 10
User :
CE vs. WE compliance from -10 V to 10 V
Electrode connection : standard
Ewe ctrl range : min = 0.00 V, max = 5.00 V
Acquisition started on : 02/09/2015 16:20:24
Saved on :
	File : 020915_LMO_CK_C10.mpr
	Directory : D:\wolf\
	Host : 169.254.169.228
Device : VMP3 (SN 0776)
Address : USB
EC-Lab for windows v10.34 (software)
Internet server v10.34 (firmware)
Command interpretor v10.34 (firmware)
Electrode material :
Initial state :
Electrolyte :
Comments : LiMn2O4
Mass of active material : 22.530 mg
 at x = 1.000
Molecular weight of active material (at x = 0) : 173.874 g/mol
Atomic weight of intercalated ion : 6.940 g/mol
Acquisition started at : xo = 1.000
Number of e- transfered per intercalated ion : 1
for DX = 1, DQ = 3.340 mA.h
Battery capacity : 0.000 A.h
Electrode surface area : 0.001 cm²
Characteristic mass : 0.001 g
Record Power
Ns                  0                   1                   2
Set I/C             I                   I                   I
Is                  0.000               334.000             -334.000
unit Is             mA                  µA                  µA
vs.                 <None>              <None>              <None>
N                   1                   1                   1
I sign              > 0                 > 0                 > 0
t1 (h:m:s)          0:00:0.0000         9999:00:0.0000      9999:00:0.0000
I Range             10 mA               10 mA               10 mA
Bandwidth           5                   5                   5
dE1 (mV)            0.00                10.00               10.00
dt1 (s)             0.0000              60.0000             60.0000
EM (V)              0.000               4.500               3.000
tM (h:m:s)          0:00:0.0000         0:00:0.0000         0:00:0.0000
Im                  0.000               550.000             0.000
unit Im             mA                  nA                  mA
E range min (V)     0.000               0.000               0.000
E range max (V)     5.000               5.000               5.000
dq                  0.000               10.000              10.000
unit dq             mA.h                µA.h                µA.h
dtq (s)             0.0000              120.0000            120.0000
dQM                 0.000               0.000               0.000
unit dQM            mA.h                mA.h                mA.h
dxM                 0.000               0.000               0.000
tR (h:m:s)          0:01:0.0000         0:00:0.0000         0:00:0.0000
dER/dt (mV/h)       0.0                 0.0                 0.0
dER (mV)            0.00                5.00                5.00
dtR (s)             1.0000              10.0000             10.0000
EL (V)              pass                pass                pass
goto Ns'            0                   0                   1
nc cycles           0                   0                   99

mode	ox/red	error	control changes	Ns changes	counter inc.	Ns	time/s	control/V/mA	Ewe/V	dq/mA.h	P/W	<I>/mA	(Q-Qo)/mA.h	x	cycle number	d(Q-Qo)/dE/mA.h/V
3	0	0	0	0	0	0	0.0000	0	3.1464	0	0	0	0	1	1	XXX
3	0	0	0	0	0	0	10.0000	0	3.1464	0	0	0	0	1	1	XXX
3	0	0	0	0	0	0	20.0000	0	3.14634	0	0	0	0	1	1	XXX
3	0	0	0	0	0	0	30.0000	0	3.1464	0	0	0	0	1	1	XXX
3	0	0	0	0	0	0	40.0000	0	3.14628	0	0	0	0	1	1	XXX
3	0	0	0	0	0	0	50.0000	0	3.14638	0	0	0	0	1	1	XXX
3	0	0	0	0	0	0	59.9998	0.334	3.14677	0	0	0	0	1	1	XXX
1	1	0	0	0	0	1	60.3984	0.334	3.2499	9.40584e-06	0.00108526	0.333935	3.69736e-05	0.999989	1	0.000936565
1	1	0	0	0	0	1	61.6208	0.334	3.35018	1.25407e-05	0.0011187	0.333924	0.000150365	0.999955	1	0.0012535
1	1	0	0	0	0	1	63.1114	0.334	3.45038	1.51202e-05	0.00115223	0.333944	0.00028863	0.999914	1	0.00151134
1	1	0	0	0	0	1	64.9436	0.334	3.55063	1.8905e-05	0.00118572	0.333946	0.000458589	0.999863	1	0.0018789
1	1	0	0	0	0	1	67.3558	0.334	3.65079	2.61787e-05	0.00121922	0.33396	0.000682362	0.999796	1	0.00261165
1	1	0	0	0	0	1	71.0672	0.334	3.75111	4.52297e-05	0.00125263	0.333935	0.00102663	0.999693	1	0.00452082
1	1	0	0	0	0	1	83.0642	0.334	3.85137	0.00023731	0.00128587	0.333874	0.00213935	0.999359	1	0.0236746
1	1	0	0	0	0	1	312.0142	0.334	3.94735	0.00557144	0.00131954	0.334287	0.0233972	0.992994	1	0.92343
1	1	0	0	0	0	1	912.0142	0.334	3.96833	0.00557157	0.00132659	0.334294	0.0791104	0.976311	1	XXX
1	1	0	0	0	0	1	1512.01	0.334	3.98173	0.00557138	0.00133102	0.334283	0.134824	0.959628	1	4.58355
1	1	0	0	0	0	1	2112.01	0.334	3.99336	0.0055714	0.00133492	0.334284	0.190527	0.942948	1	XXX
1	1	0	0	0	0	1	2712.01	0.334	4.00289	0.00557163	0.00133816	0.334298	0.246241	0.926265	1	XXX
1	1	0	0	0	0	1	3312.01	0.334	4.01136	0.00557109	0.00134086	0.334265	0.301952	0.909583	1	XXX
1	1	0	0	0	0	1	3912.01	0.334	4.01898	0.00556422	0.00134175	0.333853	0.35765	0.892905	1	XXX
1	1	0	0	0	0	1	4512.01	0.334	4.02645	0.00557095	0.00134587	0.334257	0.413358	0.876224	1	XXX
1	1	0	0	0	0	1	5112.01	0.334	4.03332	0.00556414	0.00134652	0.333848	0.469057	0.859545	1	XXX
1	1	0	0	0	0	1	5712.01	0.334	4.04014	0.00557149	0.00135057	0.334289	0.524752	0.842868	1	XXX
1	1	0	0	0	0	1	6312.01	0.334	4.04692	0.0055716	0.00135287	0.334296	0.580451	0.826189	1	XXX
1	1	0	0	0	0	1	6912.01	0.334	4.05348	0.00557122	0.00135497	0.334273	0.636156	0.809509	1	XXX
1	1	0	0	0	0	1	7512.01	0.334	4.05973	0.00557095	0.00135699	0.334257	0.69185	0.792831	1	XXX
1	1	0	0	0	0	1	8112.01	0.334	4.06622	0.0055703	0.001359	0.334218	0.747538	0.776156	1	XXX
1	1	0	0	0	0	1	8712.01	0.334	4.07261	0.00557093	0.001361295	0.334256	0.803247	0.759475	1	XXX
1	1	0	0	0	0	1	9312.01	0.334	4.07895	0.00557076	0.00136337	0.334245	0.858941	0.742798	1	8.68329
1	1	0	0	0	0	1	9912.01	0.334	4.08504	0.00557109	0.00136549	0.334266	0.914638	0.72612	1	XXX
1	1	0	0	0	0	1	10512	0.334	4.09176	0.00556585	0.00136645	0.333951	0.97033	0.709443	1	XXX
1	1	0	0	0	0	1	11112	0.334	4.0985	0.00557093	0.00136995	0.334256	1.02602	0.692766	1	XXX
1	1	0	0	0	0	1	11712	0.334	4.1053	0.00557069	0.00137216	0.334241	1.08172	0.676087	1	XXX
1	1	0	0	0	0	1	12312	0.334	4.11238	0.00556609	0.0013734	0.333966	1.13741	0.659413	1	XXX
1	1	0	0	0	0	1	12912	0.334	4.12002	0.00557091	0.00137714	0.334255	1.19312	0.642731	1	XXX
1	1	0	0	0	0	1	13512	0.334	4.12739	0.00557128	0.00137969	0.334277	1.24882	0.626052	1	XXX
1	1	0	0	0	0	1	14112	0.334	4.13463	0.00556549	0.00138067	0.333929	1.30452	0.609372	1	XXX
1	1	0	0	0	0	1	14712	0.334	4.14192	0.00556985	0.00138419	0.334191	1.36019	0.592702	1	XXX
1	1	0	0	0	0	1	15312	0.334	4.14897	0.00557126	0.0013869	0.334276	1.4159	0.57602	1	XXX
1	1	0	0	0	0	1	15912	0.334	4.15525	0.00556632	0.00138777	0.333979	1.47161	0.559339	1	XXX
1	1	0	0	0	0	1	16512	0.334	4.16155	0.00557105	0.00139105	0.334263	1.52731	0.54266	1	XXX
1	1	0	0	0	0	1	17112	0.334	4.16741	0.0055714	0.0013931	0.334284	1.58303	0.525977	1	9.36362
1	1	0	0	0	0	1	17712	0.334	4.17304	0.00557129	0.00139495	0.334277	1.63873	0.509296	1	XXX
1	1	0	0	0	0	1	18312	0.334	4.1789	0.00557166	0.00139701	0.3343	1.69444	0.492613	1	XXX
1	1	0	0	0	0	1	18912	0.334	4.18467	0.0055709	0.00139874	0.334254	1.75015	0.475934	1	XXX
1	1	0	0	0	0	1	19512	0.334	4.19061	0.00556993	0.00140048	0.334196	1.80583	0.459259	1	XXX
1	1	0	0	0	0	1	20112	0.334	4.19695	0.00557134	0.00140296	0.334281	1.86154	0.442579	1	XXX
1	1	0	0	0	0	1	20712	0.334	4.20374	0.00556601	0.00140388	0.33396	1.91721	0.425907	1	XXX
1	1	0	0	0	0	1	21312	0.334	4.21155	0.00557025	0.00140756	0.334215	1.97291	0.409229	1	XXX
1	1	0	0	0	0	1	21912	0.334	4.22047	0.00557129	0.00141081	0.334277	2.02862	0.392547	1	XXX
1	1	0	0	0	0	1	22512	0.334	4.23166	0.00557134	0.00141456	0.334281	2.08432	0.375867	1	XXX
1	1	0	0	0	0	1	23112	0.334	4.24598	0.00557132	0.00141934	0.334279	2.14003	0.359186	1	3.35408
1	1	0	0	0	0	1	23712	0.334	4.26683	0.00556492	0.00142467	0.333895	2.19573	0.342507	1	2.30486
1	1	0	0	0	0	1	24312	0.334	4.30589	0.00557103	0.00143929	0.334262	2.25142	0.325833	1	0.944333
1	1	0	0	0	0	1	24661.4	0.334	4.40092	0.000994321	0.00147095	0.334238	2.28385	0.31612	1	0.0993872
1	1	0	0	0	0	1	24708.8	0.334	4.50007	0.000230202	0.00150413	0.334246	2.28825	0.314802	1	0.0255989
1	0	0	1	0	0	2	24710.6	-0.334	4.39435	-6.7174e-05	0.0014694	-0.334384	2.28809	0.314853	1	-0.00670159
1	0	0	1	0	0	2	24786.5	-0.334	4.29421	-0.00179487	0.00143586	-0.334372	2.28103	0.316964	1	-0.179397
1	0	0	1	0	0	2	25289.3	-0.334	4.21509	-0.00558015	0.00141125	-0.334809	2.23432	0.330954	1	-1.20271
1	0	0	1	0	0	2	25889.3	-0.334	4.1833	-0.00557241	0.00139866	-0.334345	2.17857	0.347647	1	-2.22785
1	0	0	1	0	0	2	26489.3	-0.334	4.16241	-0.00557281	0.00139178	-0.334369	2.12282	0.364339	1	-3.22618
1	0	0	1	0	0	2	27089.3	-0.334	4.14645	-0.00557908	0.001388	-0.334745	2.06708	0.38103	1	XXX
1	0	0	1	0	0	2	27689.3	-0.334	4.13354	-0.00557225	0.00138199	-0.334335	2.01135	0.397718	1	-4.56026
1	0	0	1	0	0	2	28289.3	-0.334	4.12249	-0.00557324	0.00137854	-0.334394	1.95561	0.414409	1	XXX
1	0	0	1	0	0	2	28889.3	-0.334	4.11237	-0.00558	0.00137682	-0.3348	1.89985	0.431106	1	XXX
1	0	0	1	0	0	2	29489.3	-0.334	4.10383	-0.00557264	0.00137215	-0.334358	1.84413	0.447792	1	-6.52233
1	0	0	1	0	0	2	30089.3	-0.334	4.09585	-0.00557277	0.00136952	-0.334366	1.7884	0.46448	1	XXX
1	0	0	1	0	0	2	30689.3	-0.334	4.08798	-0.00557256	0.00136683	-0.334353	1.73267	0.481167	1	-7.03272
1	0	0	1	0	0	2	31289.3	-0.334	4.08031	-0.0055729	0.00136435	-0.334374	1.67694	0.497854	1	XXX
1	0	0	1	0	0	2	31889.3	-0.334	4.07275	-0.00557197	0.00136159	-0.334318	1.62121	0.514542	1	XXX
1	0	0	1	0	0	2	32489.3	-0.334	4.06511	-0.00557275	0.00135923	-0.334365	1.56548	0.53123	1	XXX
1	0	0	1	0	0	2	33089.3	-0.334	4.05757	-0.00557237	0.00135662	-0.334342	1.50976	0.547917	1	XXX
1	0	0	1	0	0	2	33689.3	-0.334	4.05005	-0.00557295	0.00135424	-0.334377	1.45403	0.564604	1	XXX
1	0	0	1	0	0	2	34289.3	-0.334	4.04266	-0.00557274	0.001351721	-0.334364	1.3983	0.581291	1	-7.38839
1	0	0	1	0	0	2	34889.3	-0.334	4.03533	-0.00557307	0.00134935	-0.334384	1.34257	0.597979	1	-7.60139
1	0	0	1	0	0	2	35489.3	-0.334	4.02803	-0.00557278	0.00134684	-0.334367	1.28682	0.614671	1	XXX
1	0	0	1	0	0	2	36089.3	-0.334	4.0211	-0.00557421	0.00134487	-0.334453	1.23108	0.631364	1	XXX
1	0	0	1	0	0	2	36689.3	-0.334	4.01402	-0.00557279	0.00134216	-0.334368	1.17534	0.648054	1	XXX
1	0	0	1	0	0	2	37289.3	-0.334	4.00722	-0.00557286	0.0013399	-0.334371	1.11961	0.664741	1	XXX
1	0	0	1	0	0	2	37889.3	-0.334	4.00031	-0.00557309	0.00133765	-0.334386	1.06388	0.681429	1	XXX
1	0	0	1	0	0	2	38489.3	-0.334	3.99309	-0.00558088	0.0013371	-0.334853	1.00813	0.698125	1	XXX
1	0	0	1	0	0	2	39089.3	-0.334	3.98683	-0.00557241	0.00133297	-0.334345	0.952386	0.714816	1	XXX
1	0	0	1	0	0	2	39689.3	-0.334	3.98024	-0.00557251	0.0013308	-0.33435	0.89666	0.731503	1	XXX
1	0	0	1	0	0	2	40289.3	-0.334	3.97366	-0.00557266	0.00132863	-0.33436	0.84092	0.748194	1	XXX
1	0	0	1	0	0	2	40889.3	-0.334	3.96674	-0.00557647	0.00132723	-0.334588	0.785177	0.764886	1	XXX
1	0	0	1	0	0	2	41489.3	-0.334	3.96004	-0.0055728	0.00132411	-0.334368	0.729413	0.781584	1	XXX
1	0	0	1	0	0	2	42089.3	-0.334	3.953	-0.0055728	0.00132176	-0.334368	0.673667	0.798276	1	XXX
1	0	0	1	0	0	2	42689.3	-0.334	3.94643	-0.00557611	0.00132034	-0.334566	0.61791	0.814972	1	XXX
1	0	0	1	0	0	2	43289.3	-0.334	3.93948	-0.00557271	0.00131721	-0.334363	0.562177	0.831661	1	XXX
1	0	0	1	0	0	2	43889.3	-0.334	3.93198	-0.00557301	0.00131478	-0.334381	0.506445	0.84835	1	XXX
1	0	0	1	0	0	2	44489.3	-0.334	3.92392	-0.00557256	0.00131198	-0.334353	0.450716	0.865037	1	XXX
1	0	0	1	0	0	2	45089.3	-0.334	3.915	-0.00557282	0.00130906	-0.334369	0.394981	0.881726	1	XXX
1	0	0	1	0	0	2	45689.3	-0.334	3.90526	-0.00557324	0.0013059	-0.334395	0.339218	0.898424	1	XXX
1	0	0	1	0	0	2	46289.3	-0.334	3.89366	-0.00557323	0.00130202	-0.334394	0.283479	0.915115	1	-4.65802
1	0	0	1	0	0	2	46889.3	-0.334	3.87897	-0.005573	0.00129705	-0.33438	0.227749	0.931803	1	-3.37446
1	0	0	1	0	0	2	47489.3	-0.334	3.85874	-0.00557323	0.00129034	-0.334394	0.171999	0.948496	1	-2.34441
1	0	0	1	0	0	2	48089.3	-0.334	3.82278	-0.00557286	0.00127823	-0.334372	0.116268	0.965185	1	-1.0891
1	0	0	1	0	0	2	48615.5	-0.334	3.73555	-0.00328134	0.00125031	-0.334705	0.0673578	0.97983	1	-0.327354
1	0	0	1	0	0	2	48787.7	-0.334	3.63541	-0.00104332	0.00121562	-0.334385	0.0513622	0.98462	1	-0.104282
1	0	0	1	0	0	2	48850.4	-0.334	3.53528	-0.000371653	0.00118209	-0.33437	0.0455429	0.986363	1	-0.0371476
1	0	0	1	0	0	2	48877	-0.334	3.43514	-0.000180542	0.00114861	-0.334371	0.0430686	0.987103	1	-0.0180456
1	0	0	1	0	0	2	48892.8	-0.334	3.33502	-0.000127957	0.00111517	-0.334381	0.0416034	0.987542	1	-0.0127899
1	0	0	1	0	0	2	48905.6	-0.334	3.23487	-0.000113964	0.00108164	-0.334368	0.0404102	0.9879	1	-0.0113909
1	0	0	1	0	0	2	48917.4	-0.334	3.13464	-0.000107365	0.00104808	-0.334355	0.0393136	0.988228	1	-0.0107314
1	0	0	1	0	0	2	48928.7	-0.334	3.03451	-0.000102886	0.00101458	-0.334345	0.0382661	0.988542	1	-0.0102837
1	1	0	0	0	1	1	48932.5	0.334	3.0769	1.48455e-07	0.00102776	0.334024	0.0379106	0.988648	2	1.4447e-05
1	1	0	0	0	1	1	48933.5	0.334	3.17721	1.24972e-05	0.00106198	0.33425	0.038003	0.98862	2	0.00124913
1	1	0	0	0	1	1	48935.1	0.334	3.2777	1.66745e-05	0.00109551	0.334232	0.038151	0.988576	2	0.00166348
1	1	0	0	0	1	1	48937.1	0.334	3.377918	2.02407e-05	0.00112907	0.334249	0.0383366	0.98852	2	0.00201925
1	1	0	0	0	1	1	48939.5	0.334	3.47821	2.39169e-05	0.00116257	0.334243	0.0385575	0.988454	2	0.00237246
1	1	0	0	0	1	1	48942.2	0.334	3.57857	2.58842e-05	0.00119606	0.334229	0.0388058	0.98838	2	0.00257736
1	1	0	0	0	1	1	48945.1	0.334	3.67871	2.87074e-05	0.00122957	0.334238	0.0390783	0.988298	2	0.00286398
1	1	0	0	0	1	1	48949.1	0.334	3.77895	5.13402e-05	0.00126301	0.334222	0.0394482	0.988188	2	0.00512194
1	1	0	0	0	1	1	48976.3	0.334	3.8792	0.000756728	0.00129654	0.334228	0.0419685	0.987433	2	0.0756368
1	1	0	0	0	1	1	49416.5	0.334	3.95821	0.00557084	0.00132303	0.334251	0.0828472	0.975192	2	1.47363
1	1	0	0	0	1	1	50016.5	0.334	3.97453	0.00557101	0.00132853	0.33426	0.138555	0.958511	2	XXX
1	1	0	0	0	1	1	50616.5	0.334	3.98545	0.00556974	0.00133188	0.334184	0.194257	0.941832	2	XXX
1	1	0	0	0	1	1	51216.5	0.334	3.99386	0.00557081	0.00133494	0.334249	0.249966	0.92515	2	7.07364
1	1	0	0	0	1	1	51816.5	0.334	4.00123	0.00557114	0.00133748	0.334269	0.305679	0.908467	2	7.75986
1	1	0	0	0	1	1	52416.5	0.334	4.00907	0.00557116	0.00134011	0.33427	0.361387	0.891786	2	XXX
1	1	0	0	0	1	1	53016.5	0.334	4.0165	0.00557088	0.00134253	0.334253	0.417098	0.875104	2	XXX
1	1	0	0	0	1	1	53616.5	0.334	4.02377	0.00556982	0.0013447	0.334189	0.472792	0.858427	2	XXX
1	1	0	0	0	1	1	54216.5	0.334	4.03078	0.00557059	0.00134723	0.334236	0.528496	0.841747	2	XXX
1	1	0	0	0	1	1	54816.5	0.334	4.03723	0.00557101	0.00134949	0.334261	0.584207	0.825064	2	XXX
1	1	0	0	0	1	1	55416.5	0.334	4.04355	0.00557166	0.00135176	0.3343	0.639892	0.80839	2	XXX
1	1	0	0	0	1	1	56016.5	0.334	4.04982	0.00556832	0.00135304	0.334099	0.69556	0.791721	2	XXX
1	1	0	0	0	1	1	56616.5	0.334	4.05616	0.00557144	0.00135592	0.334287	0.75126	0.775042	2	XXX
1	1	0	0	0	1	1	57216.5	0.334	4.06248	0.00557159	0.00135807	0.334295	0.806964	0.758362	2	XXX
1	1	0	0	0	1	1	57816.5	0.334	4.06874	0.00557182	0.00136022	0.334309	0.862679	0.741678	2	XXX
1	1	0	0	0	1	1	58416.5	0.334	4.07533	0.00557128	0.00136229	0.334277	0.918381	0.724999	2	XXX
1	1	0	0	0	1	1	59016.5	0.334	4.08197	0.00557155	0.00136457	0.334293	0.974098	0.708315	2	XXX
1	1	0	0	0	1	1	59616.5	0.334	4.08861	0.00557087	0.00136663	0.334252	1.02981	0.691632	2	XXX
1	1	0	0	0	1	1	60216.5	0.334	4.09526	0.00557084	0.00136884	0.334251	1.08552	0.674951	2	XXX
1	1	0	0	0	1	1	60816.5	0.334	4.10246	0.00557088	0.00137126	0.334253	1.14122	0.658271	2	XXX
1	1	0	0	0	1	1	61416.5	0.334	4.10967	0.00557138	0.00137379	0.334283	1.19692	0.641592	2	XXX
1	1	0	0	0	1	1	62016.5	0.334	4.11716	0.00557092	0.00137618	0.334255	1.25262	0.624914	2	XXX
1	1	0	0	0	1	1	62616.5	0.334	4.12453	0.00557063	0.00137857	0.334238	1.30831	0.608239	2	XXX
1	1	0	0	0	1	1	63216.5	0.334	4.13155	0.00556266	0.00137895	0.33376	1.36396	0.591575	2	XXX
1	1	0	0	0	1	1	63816.5	0.334	4.13866	0.00557109	0.00138341	0.334265	1.41965	0.574898	2	XXX
1	1	0	0	0	1	1	64416.5	0.334	4.14524	0.00557114	0.00138562	0.334269	1.47536	0.558216	2	XXX
1	1	0	0	0	1	1	65016.5	0.334	4.15126	0.00556874	0.00138704	0.334125	1.53104	0.541543	2	XXX
1	1	0	0	0	1	1	65616.5	0.334	4.15681	0.00557039	0.0013893	0.334222	1.58675	0.524861	2	9.72491
1	1	0	0	0	1	1	66216.5	0.334	4.16222	0.0055676	0.00139041	0.334055	1.64245	0.508181	2	XXX
1	1	0	0	0	1	1	66816.5	0.334	4.16735	0.00557061	0.00139288	0.334236	1.69813	0.491511	2	XXX
1	1	0	0	0	1	1	67416.5	0.334	4.17255	0.00556292	0.00139269	0.333774	1.75381	0.474837	2	11.0719
1	1	0	0	0	1	1	68016.5	0.334	4.1782	0.00557083	0.00139656	0.334249	1.80949	0.458164	2	XXX
1	1	0	0	0	1	1	68616.5	0.334	4.18396	0.00557088	0.0013985	0.334252	1.8652	0.441483	2	XXX
1	1	0	0	0	1	1	69216.5	0.334	4.19023	0.00557034	0.00140045	0.334219	1.9209	0.424802	2	XXX
1	1	0	0	0	1	1	69816.6	0.334	4.19721	0.005571	0.00140296	0.334259	1.97657	0.408133	2	XXX
1	1	0	0	0	1	1	70416.6	0.334	4.20514	0.00556291	0.00140356	0.333773	2.03226	0.391457	2	7.02492
1	1	0	0	0	1	1	71016.6	0.334	4.21501	0.00557117	0.00140895	0.334269	2.08796	0.37478	2	XXX
1	1	0	0	0	1	1	71616.6	0.334	4.22729	0.0055661	0.00141177	0.333965	2.14361	0.358114	2	4.08827
1	1	0	0	0	1	1	72216.6	0.334	4.24434	0.00557095	0.00141869	0.334256	2.19932	0.341432	2	XXX
1	1	0	0	0	1	1	72816.6	0.334	4.27219	0.00556972	0.00142769	0.334182	2.25503	0.324751	2	1.52727
1	1	0	0	0	1	1	73345.7	0.334	4.34627	0.00255778	0.00145075	0.333791	2.30414	0.310047	2	0.255663
1	1	0	0	0	1	1	73441	0.334	4.44659	0.000350157	0.00148561	0.334102	2.31298	0.307398	2	0.0349982
1	0	0	1	0	1	2	73456.4	-0.334	4.45965	-7.8958e-06	0.00149135	-0.33441	2.31437	0.306981	2	-0.000789185
1	0	0	1	0	1	2	73470.2	-0.334	4.35939	-0.000396843	0.00145786	-0.334418	2.31309	0.307366	2	-0.0396645
1	0	0	1	0	1	2	73707.3	-0.334	4.26003	-0.00557456	0.00142486	-0.334473	2.29105	0.313964	2	-0.604483
1	0	0	1	0	1	2	74307.3	-0.334	4.2148	-0.00557769	0.00141053	-0.33466	2.23532	0.330651	2	XXX
1	0	0	1	0	1	2	74907.3	-0.334	4.19366	-0.00558016	0.00140407	-0.334809	2.17957	0.347347	2	XXX
1	0	0	1	0	1	2	75507.3	-0.334	4.17961	-0.00557296	0.00139756	-0.334376	2.12382	0.364041	2	XXX
1	0	0	1	0	1	2	76107.3	-0.334	4.16884	-0.00557821	0.00139528	-0.334692	2.06809	0.380729	2	XXX
1	0	0	1	0	1	2	76707.3	-0.334	4.15996	-0.00557555	0.00139164	-0.334532	2.01235	0.397418	2	-6.31193
1	0	0	1	0	1	2	77307.3	-0.334	4.15244	-0.00557217	0.00138828	-0.334329	1.95663	0.414105	2	XXX
1	0	0	1	0	1	2	77907.3	-0.334	4.14563	-0.0055724	0.00138606	-0.334343	1.9009	0.430791	2	XXX
1	0	0	1	0	1	2	78507.3	-0.334	4.13908	-0.00557942	0.00138562	-0.334764	1.84515	0.447486	2	XXX
1	0	0	1	0	1	2	79107.3	-0.334	4.1332	-0.00557903	0.00138355	-0.334741	1.78935	0.464196	2	XXX
1	0	0	1	0	1	2	79707.3	-0.334	4.12735	-0.00557228	0.00137992	-0.334336	1.73362	0.480883	2	-9.1785
1	0	0	1	0	1	2	80307.3	-0.334	4.12121	-0.00557834	0.00137937	-0.3347	1.67787	0.497576	2	XXX
1	0	0	1	0	1	2	80907.3	-0.334	4.11521	-0.00557246	0.00137591	-0.334346	1.62211	0.514274	2	XXX
1	0	0	1	0	1	2	81507.3	-0.334	4.1086	-0.00557258	0.00137373	-0.334354	1.56638	0.530961	2	XXX
1	0	0	1	0	1	2	82107.4	-0.334	4.1012	-0.00557923	0.00137289	-0.334753	1.51064	0.547651	2	XXX
1	0	0	1	0	1	2	82707.4	-0.334	4.09356	-0.00557225	0.00136862	-0.334334	1.45491	0.564341	2	-6.70956
1	0	0	1	0	1	2	83307.4	-0.334	4.08533	-0.00557232	0.00136588	-0.334338	1.39917	0.581031	2	XXX
1	0	0	1	0	1	2	83907.4	-0.334	4.07659	-0.0055719	0.00136286	-0.334313	1.34345	0.597716	2	-6.20981
1	0	0	1	0	1	2	84507.4	-0.334	4.06742	-0.00557907	0.00136154	-0.334743	1.28771	0.614405	2	XXX
1	0	0	1	0	1	2	85107.4	-0.334	4.05849	-0.00557219	0.00135688	-0.334331	1.23199	0.631092	2	-6.08004
1	0	0	1	0	1	2	85707.4	-0.334	4.04936	-0.00557228	0.00135384	-0.334336	1.17626	0.64778	2	XXX
1	0	0	1	0	1	2	86307.4	-0.334	4.04063	-0.0055729	0.00135108	-0.334373	1.12052	0.66447	2	-6.31157
1	0	0	1	0	1	2	86907.4	-0.334	4.03204	-0.00557307	0.00134825	-0.334383	1.06478	0.681162	2	XXX
1	0	0	1	0	1	2	87507.4	-0.334	4.02353	-0.0055724	0.00134524	-0.334343	1.00904	0.697852	2	-6.83
1	0	0	1	0	1	2	88107.4	-0.334	4.01518	-0.00557922	0.00134409	-0.334752	0.953305	0.714541	2	XXX
1	0	0	1	0	1	2	88707.4	-0.334	4.0073	-0.00557329	0.00134003	-0.334396	0.897563	0.731232	2	-6.91207
1	0	0	1	0	1	2	89307.4	-0.334	3.9996	-0.00557257	0.00133728	-0.334353	0.841835	0.74792	2	XXX
1	0	0	1	0	1	2	89907.4	-0.334	3.99181	-0.00557265	0.0013347	-0.334358	0.786104	0.764608	2	XXX
1	0	0	1	0	1	2	90507.4	-0.334	3.98425	-0.00557305	0.00133226	-0.334382	0.730359	0.7813	2	XXX
1	0	0	1	0	1	2	91107.4	-0.334	3.9766	-0.00557302	0.0013297	-0.33438	0.674624	0.79799	2	-7.29857
1	0	0	1	0	1	2	91707.4	-0.334	3.96896	-0.00557362	0.00132728	-0.334416	0.618872	0.814684	2	XXX
1	0	0	1	0	1	2	92307.4	-0.334	3.96115	-0.00557582	0.0013252	-0.334548	0.563133	0.831375	2	-7.16639
1	0	0	1	0	1	2	92907.4	-0.334	3.95298	-0.005579	0.00132321	-0.334739	0.507372	0.848072	2	XXX
1	0	0	1	0	1	2	93507.4	-0.334	3.94462	-0.00558074	0.00132083	-0.334843	0.45157	0.864781	2	-6.56806
1	0	0	1	0	1	2	94107.4	-0.334	3.93585	-0.00557256	0.00131596	-0.334352	0.395843	0.881468	2	XXX
1	0	0	1	0	1	2	94707.4	-0.334	3.9261	-0.00557323	0.00131286	-0.334393	0.340106	0.898158	2	XXX
1	0	0	1	0	1	2	95307.4	-0.334	3.91514	-0.00557324	0.00130919	-0.334393	0.284362	0.91485	2	XXX
1	0	0	1	0	1	2	95907.4	-0.334	3.90124	-0.00557444	0.00130483	-0.334465	0.228634	0.931538	2	-3.41421
1	0	0	1	0	1	2	96507.4	-0.334	3.8826	-0.0055728	0.00129821	-0.334367	0.172905	0.948225	2	-2.46312
1	0	0	1	0	1	2	97107.4	-0.334	3.84676	-0.00557285	0.00128624	-0.33437	0.117165	0.964916	2	-0.999583
1	0	0	1	0	1	2	97458.6	-0.334	3.7522	-0.00116499	0.00125507	-0.33449	0.0845289	0.974689	2	-0.116444
1	0	0	1	0	1	2	97538.3	-0.334	3.652	-0.000499145	0.00122122	-0.334398	0.0771266	0.976905	2	-0.0498908
1	0	0	1	0	1	2	97574.2	-0.334	3.551759	-0.000233664	0.00118767	-0.33439	0.0737901	0.977904	2	-0.0232225
1	0	0	1	0	1	2	97591.6	-0.334	3.4515	-0.000119095	0.00115411	-0.334379	0.0721802	0.978386	2	-0.0118361
1	0	0	1	0	1	2	97602.1	-0.334	3.35123	-8.80928e-05	0.00112061	-0.334389	0.0712013	0.978679	2	-0.00878834
1	0	0	1	0	1	2	97611.4	-0.334	3.25087	-8.58799e-05	0.00108703	-0.33438	0.0703409	0.978937	2	-0.00858391
1	0	0	1	0	1	2	97620.9	-0.334	3.15067	-9.10618e-05	0.00105351	-0.334376	0.0694573	0.979202	2	-0.00908453
1	0	0	1	0	1	2	97631.2	-0.334	3.05046	-9.96547e-05	0.00101992	-0.33435	0.0685005	0.979488	2	-0.0099229
1	1	0	0	0	0	1	97636.7	0.334	3.04978	9.27189e-08	0.00101798	0.333788	0.0679885	0.979641	3	8.62842e-06
1	1	0	0	0	0	1	97637.8	0.334	3.15031	1.3799e-05	0.00105313	0.334295	0.0680902	0.979611	3	0.001374
1	1	0	0	0	0	1	97639.6	0.334	3.25074	1.83288e-05	0.00108661	0.334264	0.0682542	0.979562	3	0.00182505
1	1	0	0	0	0	1	97641.8	0.334	3.35094	2.25805e-05	0.001120053	0.33425	0.0684611	0.9795	3	0.00225697
1	1	0	0	0	0	1	97644.4	0.334	3.45112	2.60176e-05	0.00115362	0.334274	0.0687063	0.979426	3	0.00260053
1	1	0	0	0	0	1	97647.3	0.334	3.55161	2.78942e-05	0.00118725	0.334285	0.068976	0.979346	3	0.00277224
1	1	0	0	0	0	1	97650.4	0.334	3.65204	3.00472e-05	0.00122077	0.33427	0.0692617	0.97926	3	0.00298621
1	1	0	0	0	0	1	97654.2	0.334	3.75223	4.59414e-05	0.0012542	0.334254	0.0696168	0.979154	3	0.00458333
1	1	0	0	0	0	1	97674	0.334	3.8523	0.000527239	0.00128762	0.334248	0.0714517	0.978604	3	0.0525985
1	1	0	0	0	0	1	98069.5	0.334	3.93698	0.00557131	0.00131604	0.334278	0.108176	0.967608	3	1.21587
1	1	0	0	0	0	1	98669.5	0.334	3.96409	0.00556941	0.00132465	0.334164	0.163857	0.950934	3	XXX
1	1	0	0	0	0	1	99269.5	0.334	3.97875	0.0055715	0.00133005	0.334289	0.219537	0.934262	3	XXX
1	1	0	0	0	0	1	99869.5	0.334	3.98897	0.00557066	0.00133327	0.334239	0.275249	0.917579	3	XXX
1	1	0	0	0	0	1	100470	0.334	3.99758	0.00557077	0.00133617	0.334245	0.330959	0.900897	3	7.07352
1	1	0	0	0	0	1	101070	0.334	4.00566	0.00556897	0.00133844	0.334137	0.386647	0.884222	3	XXX
1	1	0	0	0	0	1	101670	0.334	4.01339	0.00557038	0.00134136	0.334222	0.442321	0.867551	3	XXX
1	1	0	0	0	0	1	102270	0.334	4.02051	0.00556461	0.00134235	0.333876	0.498001	0.850878	3	XXX
1	1	0	0	0	0	1	102870	0.334	4.02742	0.00556296	0.00134426	0.333777	0.553691	0.834202	3	XXX
1	1	0	0	0	0	1	103470	0.334	4.03424	0.00557094	0.00134847	0.334256	0.60937	0.817529	3	XXX
1	1	0	0	0	0	1	104070	0.334	4.0406	0.00557093	0.00135059	0.334255	0.665077	0.800848	3	XXX
1	1	0	0	0	0	1	104670	0.334	4.04653	0.00557011	0.00135237	0.334206	0.720781	0.784168	3	XXX
1	1	0	0	0	0	1	105270	0.334	4.05245	0.00557112	0.0013546	0.334266	0.77649	0.767487	3	XXX
1	1	0	0	0	0	1	105870	0.334	4.05849	0.00556501	0.00135513	0.333899	0.832193	0.750807	3	XXX
1	1	0	0	0	0	1	106470	0.334	4.0646	0.00557012	0.00135841	0.334206	0.887887	0.73413	3	XXX
1	1	0	0	0	0	1	107070	0.334	4.07055	0.00556267	0.00135858	0.333759	0.943569	0.717456	3	XXX
1	1	0	0	0	0	1	107670	0.334	4.07676	0.00556765	0.00136187	0.334058	0.999263	0.700779	3	XXX
1	1	0	0	0	0	1	108270	0.334	4.08354	0.00557012	0.00136474	0.334206	1.05493	0.684111	3	XXX
1	1	0	0	0	0	1	108870	0.334	4.09035	0.00557057	0.00136713	0.334233	1.11063	0.667432	3	XXX
1	1	0	0	0	0	1	109470	0.334	4.09745	0.00556441	0.00136799	0.333863	1.16629	0.650765	3	XXX
1	1	0	0	0	0	1	110070	0.334	4.10469	0.00557092	0.00137201	0.334254	1.22199	0.634085	3	XXX
1	1	0	0	0	0	1	110670	0.334	4.11227	0.00557088	0.00137453	0.334252	1.2777	0.617404	3	7.38596
1	1	0	0	0	0	1	111270	0.334	4.11974	0.00557023	0.00137687	0.334212	1.3334	0.600726	3	7.75622
1	1	0	0	0	0	1	111870	0.334	4.12699	0.00556308	0.00137752	0.333784	1.38908	0.584052	3	XXX
1	1	0	0	0	0	1	112470	0.334	4.13428	0.0055707	0.00138185	0.334241	1.44478	0.567375	3	XXX
1	1	0	0	0	0	1	113070	0.334	4.14085	0.00557013	0.0013839	0.334207	1.50048	0.550695	3	XXX
1	1	0	0	0	0	1	113670	0.334	4.14717	0.00557061	0.00138613	0.334236	1.55618	0.534015	3	XXX
1	1	0	0	0	0	1	114270	0.334	4.15286	0.00557061	0.00138803	0.334235	1.61189	0.517335	3	10.061
1	1	0	0	0	0	1	114870	0.334	4.15827	0.00557107	0.00138995	0.334263	1.6676	0.500653	3	XXX
1	1	0	0	0	0	1	115470	0.334	4.16352	0.00557098	0.00139169	0.334258	1.72327	0.483981	3	XXX
1	1	0	0	0	0	1	116070	0.334	4.16863	0.00556298	0.0013914	0.333778	1.77894	0.467312	3	11.0669
1	1	0	0	0	0	1	116670	0.334	4.17419	0.00556926	0.00139482	0.334154	1.83463	0.450635	3	XXX
1	1	0	0	0	0	1	117270	0.334	4.18009	0.00557029	0.00139705	0.334216	1.89033	0.433956	3	XXX
1	1	0	0	0	0	1	117870	0.334	4.1862	0.00556398	0.00139751	0.333838	1.94602	0.41728	3	XXX
1	1	0	0	0	0	1	118470	0.334	4.19319	0.00557059	0.00140151	0.334234	2.00169	0.400612	3	XXX
1	1	0	0	0	0	1	119070	0.334	4.20086	0.00556249	0.00140203	0.333748	2.05737	0.38394	3	XXX
1	1	0	0	0	0	1	119670	0.334	4.21037	0.00556894	0.00140683	0.334135	2.11306	0.367263	3	XXX
1	1	0	0	0	0	1	120270	0.334	4.22202	0.00557044	0.0014111	0.334225	2.16875	0.350587	3	XXX
1	1	0	0	0	0	1	120870	0.334	4.23773	0.00557034	0.00141633	0.334219	2.22445	0.333909	3	2.99235
1	1	0	0	0	0	1	121470	0.334	4.26213	0.0055705	0.00142453	0.334229	2.28015	0.31723	3	1.82923
1	1	0	0	0	0	1	122055	0.334	4.32304	0.00431081	0.00144486	0.334224	2.33448	0.30096	3	0.430865
1	1	0	0	0	0	1	122204	0.334	4.42318	0.000448547	0.00147815	0.334182	2.34833	0.296814	3	0.044747
1	0	0	1	0	0	2	122227	-0.334	4.48078	-1.30047e-06	0.0014984	-0.334406	2.35045	0.29618	3	-0.000129065
1	0	0	1	0	0	2	122234	-0.334	4.38049	-0.000234872	0.00146491	-0.334416	2.34981	0.296369	3	-0.0234308
1	0	0	1	0	0	2	122366	-0.334	4.28029	-0.00319453	0.00143134	-0.334403	2.3375	0.300057	3	-0.318686
1	0	0	1	0	0	2	122952	-0.334	4.22074	-0.00557743	0.00141245	-0.334645	2.28308	0.316352	3	-1.7597
1	0	0	1	0	0	2	123552	-0.334	4.19756	-0.00557353	0.00140371	-0.334411	2.22731	0.33305	3	-3.00956
1	0	0	1	0	0	2	124152	-0.334	4.18255	-0.00557251	0.00139843	-0.33435	2.17157	0.349741	3	XXX
1	0	0	1	0	0	2	124752	-0.334	4.17134	-0.00557314	0.00139484	-0.334387	2.11585	0.366428	3	XXX
1	0	0	1	0	0	2	125352	-0.334	4.1622	-0.00558119	0.0013938	-0.334871	2.06007	0.383131	3	-6.35419
1	0	0	1	0	0	2	125952	-0.334	4.15487	-0.00557339	0.0013894	-0.334402	2.00433	0.399821	3	-7.80515
1	0	0	1	0	0	2	126552	-0.334	4.14815	-0.00557301	0.00138705	-0.334379	1.9486	0.41651	3	-8.33972
1	0	0	1	0	0	2	127152	-0.334	4.14196	-0.00557708	0.001386	-0.334624	1.89285	0.433204	3	-9.01443
1	0	0	1	0	0	2	127752	-0.334	4.13623	-0.00557492	0.00138355	-0.334494	1.83711	0.449893	3	XXX
1	0	0	1	0	0	2	128352	-0.334	4.13083	-0.00557357	0.001381404	-0.334413	1.78136	0.466586	3	XXX
1	0	0	1	0	0	2	128952	-0.334	4.12552	-0.00557429	0.00137981	-0.334456	1.72561	0.483282	3	XXX
1	0	0	1	0	0	2	129552	-0.334	4.11996	-0.00557303	0.00137764	-0.334381	1.66987	0.499971	3	XXX
1	0	0	1	0	0	2	130152	-0.334	4.11407	-0.00557278	0.0013756	-0.334366	1.61413	0.516662	3	XXX
1	0	0	1	0	0	2	130752	-0.334	4.10773	-0.00557208	0.00137331	-0.334324	1.55841	0.533348	3	XXX
1	0	0	1	0	0	2	131352	-0.334	4.1008	-0.00557759	0.00137235	-0.334655	1.50265	0.550046	3	XXX
1	0	0	1	0	0	2	131952	-0.334	4.09344	-0.00557224	0.00136858	-0.334334	1.44689	0.56674	3	XXX
1	0	0	1	0	0	2	132552	-0.334	4.0855	-0.00557578	0.00136679	-0.334547	1.39115	0.583431	3	XXX
1	0	0	1	0	0	2	133152	-0.334	4.07748	-0.00557248	0.0013633	-0.334349	1.33542	0.600119	3	XXX
1	0	0	1	0	0	2	133752	-0.334	4.06923	-0.00557258	0.00136057	-0.334355	1.2797	0.616804	3	XXX
1	0	0	1	0	0	2	134352	-0.334	4.06083	-0.0055778	0.00135903	-0.334668	1.22397	0.633492	3	XXX
1	0	0	1	0	0	2	134952	-0.334	4.0526	-0.00557265	0.00135502	-0.334359	1.16823	0.650184	3	XXX
1	0	0	1	0	0	2	135552	-0.334	4.04445	-0.00557653	0.00135324	-0.334592	1.1125	0.666873	3	XXX
1	0	0	1	0	0	2	136152	-0.334	4.03674	-0.00557269	0.00134973	-0.334361	1.05677	0.683559	3	XXX
1	0	0	1	0	0	2	136752	-0.334	4.02889	-0.00557252	0.00134707	-0.334351	1.00105	0.700245	3	-7.29657
1	0	0	1	0	0	2	137352	-0.334	4.02129	-0.00557224	0.00134446	-0.334334	0.945323	0.716931	3	XXX
1	0	0	1	0	0	2	137952	-0.334	4.01369	-0.00557651	0.00134294	-0.334591	0.889586	0.733621	3	XXX
1	0	0	1	0	0	2	138552	-0.334	4.0064	-0.00557289	0.00133963	-0.334374	0.833852	0.75031	3	XXX
1	0	0	1	0	0	2	139152	-0.334	3.99886	-0.00557268	0.00133706	-0.334361	0.778094	0.767007	3	XXX
1	0	0	1	0	0	2	139752	-0.334	3.99135	-0.0055724	0.00133449	-0.334344	0.72237	0.783693	3	XXX
1	0	0	1	0	0	2	140352	-0.334	3.98376	-0.00557252	0.00133197	-0.334351	0.666646	0.800379	3	-7.16243
1	0	0	1	0	0	2	140952	-0.334	3.97618	-0.00557241	0.00132941	-0.334345	0.610904	0.81707	3	XXX
1	0	0	1	0	0	2	141552	-0.334	3.96821	-0.00557262	0.0013268	-0.334357	0.555161	0.833762	3	XXX
1	0	0	1	0	0	2	142152	-0.334	3.95997	-0.00557369	0.0013243	-0.334421	0.499418	0.850454	3	XXX
1	0	0	1	0	0	2	142752	-0.334	3.95137	-0.00557241	0.00132112	-0.334344	0.443695	0.867139	3	XXX
1	0	0	1	0	0	2	143352	-0.334	3.942	-0.00557249	0.00131801	-0.33435	0.38797	0.883826	3	XXX
1	0	0	1	0	0	2	143952	-0.334	3.93131	-0.00557268	0.00131447	-0.334361	0.332229	0.900517	3	XXX
1	0	0	1	0	0	2	144552	-0.334	3.91878	-0.00557251	0.00131025	-0.33435	0.276502	0.917204	3	-4.01661
1	0	0	1	0	0	2	145152	-0.334	3.90248	-0.00557239	0.00130477	-0.334344	0.220768	0.933893	3	XXX
1	0	0	1	0	0	2	145752	-0.334	3.87579	-0.0055739	0.00129619	-0.334434	0.165026	0.950585	3	-1.5048
1	0	0	1	0	0	2	146240	-0.334	3.79899	-0.00183554	0.00127028	-0.334372	0.119714	0.964153	3	-0.1834663
1	0	0	1	0	0	2	146306	-0.334	3.69881	-0.000258602	0.00123679	-0.334375	0.113518	0.966008	3	-0.0258479
1	0	0	1	0	0	2	146324	-0.334	3.59869	-0.000123342	0.00120326	-0.33436	0.111837	0.966511	3	-0.0123048
1	0	0	1	0	0	2	146335	-0.334	3.49849	-8.77492e-05	0.00116973	-0.334353	0.110842	0.966809	3	-0.00875406
1	0	0	1	0	0	2	146344	-0.334	3.39831	-8.34222e-05	0.00113625	-0.334357	0.109999	0.967062	3	-0.00832238
1	0	0	1	0	0	2	146353	-0.334	3.29803	-8.7086e-05	0.00110278	-0.334375	0.109146	0.967317	3	-0.0086879
1	0	0	1	0	0	2	146363	-0.334	3.19783	-9.15425e-05	0.00106925	-0.334368	0.108255	0.967584	3	-0.00914989
1	0	0	1	0	0	2	146373	-0.334	3.09761	-9.91315e-05	0.00103565	-0.334339	0.1073	0.96787	3	-0.00990844
1	0	0	1	0	0	2	146384	-0.334	2.99995	-8.29379e-05	0.00100304	-0.334352	0.106275	0.968177	3	-0.0112538
1	1	0	0	0	1	1	146385	0.334	3.10812	1.29428e-05	0.00103888	0.334247	0.106356	0.968153	4	0.0012912
1	1	0	0	0	1	1	146387	0.334	3.20833	1.79935e-05	0.00107237	0.334245	0.106514	0.968105	4	0.00179167
1	1	0	0	0	1	1	146389	0.334	3.30863	2.21341e-05	0.00110587	0.334239	0.106717	0.968044	4	0.00221235
1	1	0	0	0	1	1	146392	0.334	3.40883	2.58854e-05	0.00113938	0.334244	0.106961	0.967971	4	0.0025873
1	1	0	0	0	1	1	146395	0.334	3.508991	2.79293e-05	0.00117292	0.33426	0.107233	0.96789	4	0.0027916
1	1	0	0	0	1	1	146398	0.334	3.609267	2.89311e-05	0.00120639	0.334249	0.107518	0.967805	4	0.00288075
1	1	0	0	0	1	1	146401	0.334	3.70954	3.67091e-05	0.00123982	0.334226	0.107839	0.967708	4	0.00366917
1	1	0	0	0	1	1	146410	0.334	3.80988	0.000190998	0.0012734	0.334238	0.108685	0.967455	4	0.0190544
1	1	0	0	0	1	1	146651	0.334	3.90754	0.00556876	0.00130561	0.334126	0.131056	0.960756	4	0.742155
1	1	0	0	0	1	1	147251	0.334	3.94418	0.00557107	0.0013184	0.334264	0.186742	0.944082	4	2.34363
1	1	0	0	0	1	1	147851	0.334	3.96203	0.005571	0.00132435	0.33426	0.242441	0.927403	4	3.69341
1	1	0	0	0	1	1	148451	0.334	3.97457	0.00557118	0.00132858	0.334271	0.298151	0.910721	4	XXX
1	1	0	0	0	1	1	149051	0.334	3.98494	0.00557101	0.00133201	0.33426	0.353853	0.894042	4	XXX
1	1	0	0	0	1	1	149651	0.334	3.99387	0.00557075	0.00133493	0.334245	0.409563	0.87736	4	6.41278
1	1	0	0	0	1	1	150251	0.334	4.00197	0.00556724	0.0013368	0.334035	0.465265	0.86068	4	XXX
1	1	0	0	0	1	1	150851	0.334	4.00955	0.00557029	0.00134006	0.334217	0.520971	0.844	4	XXX
1	1	0	0	0	1	1	151451	0.334	4.01667	0.0055705	0.00134249	0.33423	0.576676	0.827319	4	XXX
1	1	0	0	0	1	1	152051	0.334	4.02356	0.00557031	0.00134475	0.334219	0.632381	0.810639	4	XXX
1	1	0	0	0	1	1	152651	0.334	4.03029	0.0055699	0.0013469	0.334194	0.688084	0.793959	4	XXX
1	1	0	0	0	1	1	153251	0.334	4.03697	0.00557015	0.00134919	0.334209	0.743784	0.77728	4	XXX
1	1	0	0	0	1	1	153851	0.334	4.04344	0.00557026	0.00135138	0.334216	0.799487	0.760601	4	XXX
1	1	0	0	0	1	1	154451	0.334	4.04989	0.00557013	0.00135351	0.334208	0.855188	0.743921	4	XXX
1	1	0	0	0	1	1	155051	0.334	4.05635	0.00557027	0.0013557	0.334216	0.91089	0.727242	4	XXX
1	1	0	0	0	1	1	155651	0.334	4.06303	0.00557063	0.00135802	0.334238	0.966596	0.710561	4	XXX
1	1	0	0	0	1	1	156251	0.334	4.06965	0.0055628	0.00135832	0.333768	1.02228	0.693888	4	XXX
1	1	0	0	0	1	1	156851	0.334	4.07662	0.00557053	0.00136254	0.334232	1.07798	0.677209	4	XXX
1	1	0	0	0	1	1	157451	0.334	4.08363	0.00556939	0.0013646	0.334163	1.13368	0.66053	4	XXX
1	1	0	0	0	1	1	158051	0.334	4.09098	0.00557042	0.00136731	0.334225	1.18937	0.643853	4	7.92849
1	1	0	0	0	1	1	158651	0.334	4.09852	0.00556646	0.00136886	0.333988	1.24507	0.627175	4	XXX
1	1	0	0	0	1	1	159251	0.334	4.10654	0.00557045	0.00137252	0.334227	1.30077	0.610497	4	XXX
1	1	0	0	0	1	1	159851	0.334	4.11412	0.00557027	0.00137501	0.334216	1.35647	0.593818	4	XXX
1	1	0	0	0	1	1	160451	0.334	4.1218	0.00557031	0.00137758	0.334219	1.41217	0.577138	4	XXX
1	1	0	0	0	1	1	161051	0.334	4.12907	0.00557089	0.00138016	0.334254	1.46788	0.560457	4	XXX
1	1	0	0	0	1	1	161651	0.334	4.1357	0.0055703	0.00138222	0.334218	1.52358	0.543776	4	XXX
1	1	0	0	0	1	1	162251	0.334	4.14223	0.00557049	0.00138446	0.33423	1.57929	0.527096	4	XXX
1	1	0	0	0	1	1	162851	0.334	4.14815	0.00557008	0.00138633	0.334204	1.63499	0.510417	4	XXX
1	1	0	0	0	1	1	163451	0.334	4.1538	0.00557043	0.00138831	0.334226	1.69069	0.493737	4	XXX
1	1	0	0	0	1	1	164051	0.334	4.15893	0.0055648	0.00138862	0.333888	1.74639	0.477059	4	XXX
1	1	0	0	0	1	1	164651	0.334	4.16455	0.00557024	0.00139185	0.334215	1.80208	0.460381	4	XXX
1	1	0	0	0	1	1	165251	0.334	4.16995	0.00556987	0.00139356	0.334192	1.85779	0.443702	4	XXX
1	1	0	0	0	1	1	165851	0.334	4.17551	0.00557003	0.00139546	0.334202	1.91346	0.42703	4	XXX
1	1	0	0	0	1	1	166451	0.334	4.1816	0.00556939	0.00139734	0.334163	1.96914	0.410358	4	XXX
1	1	0	0	0	1	1	167051	0.334	4.188241	0.0055707	0.00139989	0.334242	2.02483	0.393682	4	XXX
1	1	0	0	0	1	1	167651	0.334	4.19571	0.00557043	0.00140231	0.334226	2.08054	0.377001	4	XXX
1	1	0	0	0	1	1	168251	0.334	4.20443	0.0055704	0.00140522	0.334224	2.13624	0.360322	4	5.89382
1	1	0	0	0	1	1	168851	0.334	4.21505	0.00557085	0.00140888	0.334251	2.19194	0.343642	4	XXX
1	1	0	0	0	1	1	169451	0.334	4.22912	0.00557031	0.00141345	0.334219	2.24765	0.326962	4	3.43228
1	1	0	0	0	1	1	170051	0.334	4.2497	0.00556998	0.00142025	0.334199	2.30334	0.310283	4	2.27043
1	1	0	0	0	1	1	170651	0.334	4.29062	0.00557001	0.00143393	0.334201	2.35904	0.293606	4	0.886683
1	1	0	0	0	1	1	170953	0.334	4.38847	0.000783251	0.00146676	0.33423	2.38705	0.285217	4	0.0782897
1	1	0	0	0	1	1	170992	0.334	4.48873	0.000214637	0.00150017	0.334209	2.39071	0.284122	4	0.021453
1	0	0	1	0	1	2	170996	-0.334	4.42224	-3.7844e-05	0.00147884	-0.334409	2.39084	0.284084	4	-0.00377549
1	0	0	1	0	1	2	171043	-0.334	4.32201	-0.00102088	0.00144524	-0.334392	2.38651	0.285381	4	-0.102042
1	0	0	1	0	1	2	171481	-0.334	4.23752	-0.00557235	0.00141678	-0.334341	2.34577	0.297578	4	-1.17685
1	0	0	1	0	1	2	172081	-0.334	4.20718	-0.00557297	0.00140679	-0.334378	2.29005	0.314265	4	XXX
1	0	0	1	0	1	2	172681	-0.334	4.18981	-0.00557276	0.00140093	-0.334366	2.23432	0.330953	4	XXX
1	0	0	1	0	1	2	173281	-0.334	4.1774	-0.0055784	0.00139819	-0.334704	2.17858	0.347643	4	XXX
1	0	0	1	0	1	2	173881	-0.334	4.16793	-0.00557272	0.0013936	-0.334363	2.12283	0.364338	4	XXX
1	0	0	1	0	1	2	174481	-0.334	4.15993	-0.00557256	0.00139089	-0.334354	2.06709	0.381028	4	XXX
1	0	0	1	0	1	2	175081	-0.334	4.15301	-0.00557302	0.00138869	-0.334381	2.01134	0.39772	4	XXX
1	0	0	1	0	1	2	175681	-0.334	4.14685	-0.00557271	0.00138655	-0.334362	1.95562	0.414407	4	XXX
1	0	0	1	0	1	2	176281	-0.334	4.14104	-0.00557298	0.00138468	-0.334379	1.89989	0.431094	4	XXX
1	0	0	1	0	1	2	176881	-0.334	4.13556	-0.00557294	0.00138284	-0.334377	1.84416	0.447781	4	-10.6776
1	0	0	1	0	1	2	177481	-0.334	4.13012	-0.00557304	0.00138104	-0.334382	1.78843	0.464471	4	XXX
1	0	0	1	0	1	2	178081	-0.334	4.12476	-0.00557287	0.0013792	-0.334372	1.7327	0.481158	4	XXX
1	0	0	1	0	1	2	178681	-0.334	4.11907	-0.00557327	0.0013774	-0.334396	1.67697	0.497847	4	XXX
1	0	0	1	0	1	2	179281	-0.334	4.11296	-0.0055727	0.00137522	-0.334362	1.62124	0.514535	4	-9.00847
1	0	0	1	0	1	2	179881	-0.334	4.1065	-0.00557282	0.00137309	-0.334369	1.56551	0.531221	4	-8.43566
1	0	0	1	0	1	2	180481	-0.334	4.09942	-0.00557257	0.00137066	-0.334354	1.50979	0.547908	4	-7.80345
1	0	0	1	0	1	2	181081	-0.334	4.09192	-0.00557273	0.00136819	-0.334364	1.45405	0.564597	4	XXX
1	0	0	1	0	1	2	181681	-0.334	4.08384	-0.00557305	0.00136557	-0.334383	1.39832	0.581285	4	-6.82796
1	0	0	1	0	1	2	182281	-0.334	4.07569	-0.00557316	0.00136287	-0.334389	1.34259	0.597974	4	XXX
1	0	0	1	0	1	2	182881	-0.334	4.06765	-0.00557303	0.00136015	-0.334382	1.28686	0.614662	4	-7.20673
1	0	0	1	0	1	2	183481	-0.334	4.0595	-0.00557349	0.00135753	-0.334409	1.23112	0.63135	4	XXX
1	0	0	1	0	1	2	184081	-0.334	4.05142	-0.0055735	0.00135483	-0.33441	1.17539	0.648041	4	-6.7901
1	0	0	1	0	1	2	184681	-0.334	4.04365	-0.00557287	0.00135208	-0.334372	1.11966	0.664728	4	XXX
1	0	0	1	0	1	2	185281	-0.334	4.03618	-0.00557348	0.00134974	-0.334409	1.06392	0.681419	4	XXX
1	0	0	1	0	1	2	185881	-0.334	4.02876	-0.0055726	0.00134704	-0.334356	1.00817	0.698113	4	XXX
1	0	0	1	0	1	2	186481	-0.334	4.02169	-0.00557267	0.00134469	-0.33436	0.952439	0.7148	4	XXX
1	0	0	1	0	1	2	187081	-0.334	4.01427	-0.00557292	0.00134227	-0.334375	0.896709	0.731488	4	XXX
1	0	0	1	0	1	2	187681	-0.334	4.00703	-0.00557331	0.00133994	-0.334399	0.840977	0.748177	4	XXX
1	0	0	1	0	1	2	188281	-0.334	3.99989	-0.00557313	0.00133751	-0.334388	0.785249	0.764864	4	XXX
1	0	0	1	0	1	2	188881	-0.334	3.9925	-0.00557269	0.00133494	-0.334361	0.729522	0.781551	4	XXX
1	0	0	1	0	1	2	189481	-0.334	3.98521	-0.00557305	0.00133258	-0.334383	0.673792	0.798239	4	XXX
1	0	0	1	0	1	2	190081	-0.334	3.97759	-0.00557287	0.00132999	-0.334372	0.61806	0.814927	4	-7.03353
1	0	0	1	0	1	2	190681	-0.334	3.96982	-0.00557343	0.00132753	-0.334406	0.562331	0.831615	4	XXX
1	0	0	1	0	1	2	191281	-0.334	3.96155	-0.005573	0.00132466	-0.33438	0.506597	0.848304	4	-6.38001
1	0	0	1	0	1	2	191881	-0.334	3.95277	-0.00557316	0.00132176	-0.33439	0.450864	0.864993	4	XXX
1	0	0	1	0	1	2	192481	-0.334	3.94305	-0.00557279	0.00131843	-0.334367	0.395133	0.881681	4	-5.61325
1	0	0	1	0	1	2	193081	-0.334	3.93175	-0.00557306	0.00131471	-0.334384	0.339402	0.898369	4	XXX
1	0	0	1	0	1	2	193681	-0.334	3.91756	-0.0055727	0.00130988	-0.334362	0.283674	0.915056	4	XXX
1	0	0	1	0	1	2	194281	-0.334	3.89694	-0.00557259	0.00130296	-0.334355	0.227945	0.931744	4	XXX
1	0	0	1	0	1	2	194881	-0.334	3.84846	-0.00557309	0.00128687	-0.334386	0.172216	0.948431	4	-0.590866
1	0	0	1	0	1	2	195050	-0.334	3.74826	-0.000304763	0.00125332	-0.334374	0.156551	0.953122	4	-0.0303461
1	0	0	1	0	1	2	195065	-0.334	3.64804	-8.71231e-05	0.00121981	-0.334374	0.15518	0.953533	4	-0.00867509
1	0	0	1	0	1	2	195073	-0.334	3.54777	-7.85772e-05	0.00118627	-0.334371	0.154382	0.953772	4	-0.00785398
1	0	0	1	0	1	2	195082	-0.334	3.44749	-8.25777e-05	0.00115283	-0.334398	0.15357	0.954015	4	-0.008253837
1	0	0	1	0	1	2	195091	-0.334	3.34733	-8.80958e-05	0.00111935	-0.3344	0.152711	0.954272	4	-0.00877194
1	0	0	1	0	1	2	195101	-0.334	3.24717	-9.15504e-05	0.00108584	-0.334397	0.151815	0.95454	4	-0.00915091
1	0	0	1	0	1	2	195111	-0.334	3.14693	-9.89081e-05	0.00105233	-0.3344	0.150862	0.954826	4	-0.0098861
1	0	0	1	0	1	2	195122	-0.334	3.04681	-0.000108905	0.00101887	-0.334406	0.149823	0.955137	4	-0.0108853
1	1	0	0	0	0	1	195128	0.334	3.05032	1.09165e-05	0.00101935	0.334178	0.149328	0.955285	5	0.00109113
1	1	0	0	0	0	1	195130	0.334	3.15071	1.65427e-05	0.00105296	0.334196	0.14947	0.955242	5	0.0016472
1	1	0	0	0	0	1	195132	0.334	3.25099	2.08662e-05	0.00108634	0.334156	0.149659	0.955186	5	0.00208166
1	1	0	0	0	0	1	195134	0.334	3.35128	2.50636e-05	0.00111994	0.334182	0.149892	0.955116	5	0.0025004
1	1	0	0	0	0	1	195137	0.334	3.45144	2.81806e-05	0.00115333	0.334157	0.150161	0.955036	5	0.00281672
1	1	0	0	0	0	1	195140	0.334	3.55174	2.88897e-05	0.00118699	0.334199	0.150447	0.95495	5	0.0028821
1	1	0	0	0	0	1	195144	0.334	3.65202	3.1694e-05	0.00122053	0.334207	0.15075	0.954859	5	0.00316797
1	1	0	0	0	0	1	195148	0.334	3.75233	6.58551e-05	0.00125401	0.334195	0.151181	0.95473	5	0.00656985
1	1	0	0	0	0	1	195195	0.334	3.85255	0.0013758	0.0012875	0.334195	0.15553	0.953428	5	0.137515
1	1	0	0	0	0	1	195713	0.334	3.92163	0.00557052	0.00131073	0.334231	0.203578	0.93904	5	1.64829
1	1	0	0	0	0	1	196313	0.334	3.944978	0.0055705	0.00131853	0.33423	0.259282	0.92236	5	XXX
1	1	0	0	0	0	1	196913	0.334	3.95981	0.00557115	0.00132364	0.334269	0.314984	0.905681	5	XXX
1	1	0	0	0	0	1	197513	0.334	3.97138	0.00557088	0.00132745	0.334253	0.370692	0.889	5	5.11866
1	1	0	0	0	0	1	198113	0.334	3.98127	0.00557034	0.00133062	0.334221	0.426395	0.87232	5	XXX
1	1	0	0	0	0	1	198713	0.334	3.9903	0.00557037	0.00133365	0.334222	0.482098	0.85564	5	XXX
1	1	0	0	0	0	1	199313	0.334	3.99844	0.00557126	0.00133658	0.334275	0.537807	0.838958	5	XXX
1	1	0	0	0	0	1	199913	0.334	4.00627	0.00556993	0.00133888	0.334196	0.593508	0.822279	5	XXX
1	1	0	0	0	0	1	200513	0.334	4.01369	0.00557014	0.00134141	0.334208	0.649208	0.8056	5	XXX
1	1	0	0	0	0	1	201113	0.334	4.02093	0.00557067	0.00134396	0.33424	0.704914	0.78892	5	XXX
1	1	0	0	0	0	1	201713	0.334	4.02792	0.00557068	0.00134629	0.334241	0.760618	0.772239	5	XXX
1	1	0	0	0	0	1	202313	0.334	4.03492	0.00557054	0.0013486	0.334232	0.816322	0.755559	5	XXX
1	1	0	0	0	0	1	202913	0.334	4.04168	0.00556972	0.00135066	0.334183	0.872023	0.73888	5	XXX
1	1	0	0	0	0	1	203513	0.334	4.04842	0.00557008	0.001353	0.334205	0.927723	0.722201	5	XXX
1	1	0	0	0	0	1	204113	0.334	4.05539	0.00557012	0.00135534	0.334207	0.983422	0.705523	5	XXX
1	1	0	0	0	0	1	204713	0.334	4.06232	0.00557006	0.00135764	0.334203	1.03912	0.688844	5	XXX
1	1	0	0	0	0	1	205313	0.334	4.06952	0.00557003	0.00136004	0.334202	1.09482	0.672165	5	XXX
1	1	0	0	0	0	1	205913	0.334	4.07678	0.00557048	0.00136258	0.334229	1.15052	0.655485	5	XXX
1	1	0	0	0	0	1	206513	0.334	4.08426	0.00556994	0.00136495	0.334196	1.20623	0.638806	5	XXX
1	1	0	0	0	0	1	207113	0.334	4.0919	0.00557025	0.00136757	0.334215	1.26193	0.622127	5	XXX
1	1	0	0	0	0	1	207713	0.334	4.09978	0.00557016	0.00137019	0.33421	1.31762	0.605449	5	6.90442
1	1	0	0	0	0	1	208313	0.334	4.10767	0.00557032	0.00137286	0.334219	1.37333	0.588768	5	XXX
1	1	0	0	0	0	1	208913	0.334	4.11546	0.00557013	0.00137542	0.334208	1.42903	0.572089	5	7.24773
1	1	0	0	0	0	1	209513	0.334	4.12315	0.00557029	0.00137803	0.334217	1.48473	0.555409	5	XXX
1	1	0	0	0	0	1	210113	0.334	4.1301	0.00556848	0.0013799	0.334108	1.54043	0.53873	5	XXX
1	1	0	0	0	0	1	210713	0.334	4.13686	0.00557046	0.00138265	0.334227	1.59613	0.522051	5	XXX
1	1	0	0	0	0	1	211313	0.334	4.14305	0.00556972	0.00138454	0.334183	1.65183	0.505372	5	9.72475
1	1	0	0	0	0	1	211913	0.334	4.14885	0.00557003	0.00138655	0.334202	1.70753	0.488695	5	XXX
1	1	0	0	0	0	1	212513	0.334	4.15433	0.00557018	0.00138842	0.334211	1.76323	0.472015	5	XXX
1	1	0	0	0	0	1	213113	0.334	4.15985	0.00557002	0.00139023	0.334201	1.81893	0.455336	5	XXX
1	1	0	0	0	0	1	213713	0.334	4.16502	0.00556952	0.00139183	0.334171	1.87463	0.438657	5	XXX
1	1	0	0	0	0	1	214313	0.334	4.17079	0.00556904	0.00139364	0.334143	1.93032	0.421981	5	XXX
1	1	0	0	0	0	1	214913	0.334	4.17656	0.0055697	0.00139573	0.334182	1.98602	0.405303	5	XXX
1	1	0	0	0	0	1	215513	0.334	4.18278	0.00556988	0.00139785	0.334193	2.04171	0.388627	5	XXX
1	1	0	0	0	0	1	216113	0.334	4.18992	0.00556972	0.0014002	0.334183	2.09741	0.371948	5	XXX
1	1	0	0	0	0	1	216713	0.334	4.19796	0.005569	0.00140271	0.33414	2.15311	0.355269	5	XXX
1	1	0	0	0	0	1	217313	0.334	4.20781	0.00557037	0.00140634	0.334222	2.20881	0.338592	5	XXX
1	1	0	0	0	0	1	217913	0.334	4.22013	0.00557004	0.00141038	0.334202	2.26451	0.321913	5	XXX
1	1	0	0	0	0	1	218513	0.334	4.23708	0.00556578	0.00141496	0.333947	2.3202	0.305236	5	XXX
1	1	0	0	0	0	1	219113	0.334	4.26498	0.0055706	0.00142551	0.334236	2.3759	0.288558	5	1.44441
1	1	0	0	0	0	1	219633	0.334	4.33967	0.00243033	0.00145028	0.33419	2.4242	0.274095	5	0.242923
1	1	0	0	0	0	1	219723	0.334	4.43973	0.000339861	0.00148359	0.334162	2.43258	0.271585	5	0.0339708
1	0	0	1	0	0	2	219739	-0.334	4.47307	-7.18952e-06	0.00149578	-0.334396	2.43405	0.271146	5	-0.000718628
1	0	0	1	0	0	2	219751	-0.334	4.37281	-0.000329106	0.00146235	-0.334419	2.43294	0.271476	5	-0.0327708
1	0	0	1	0	0	2	219920	-0.334	4.27265	-0.00407732	0.00142869	-0.33438	2.41724	0.276179	5	-0.407529
1	0	0	1	0	0	2	220518	-0.334	4.21974	-0.00557289	0.00141097	-0.334373	2.36166	0.292821	5	XXX
1	0	0	1	0	0	2	221118	-0.334	4.19784	-0.00557281	0.00140363	-0.334368	2.30593	0.309509	5	XXX
1	0	0	1	0	0	2	221718	-0.334	4.18351	-0.00557314	0.00139892	-0.334388	2.2502	0.326196	5	XXX
1	0	0	1	0	0	2	222318	-0.334	4.17276	-0.00557351	0.00139541	-0.33441	2.19447	0.342886	5	XXX
1	0	0	1	0	0	2	222918	-0.334	4.16422	-0.00557281	0.00139238	-0.334368	2.13874	0.359573	5	-7.11987
1	0	0	1	0	0	2	223518	-0.334	4.15681	-0.00557281	0.00138991	-0.334368	2.08301	0.376261	5	XXX
1	0	0	1	0	0	2	224118	-0.334	4.15027	-0.00557287	0.00138773	-0.334372	2.02728	0.39295	5	XXX
1	0	0	1	0	0	2	224718	-0.334	4.14437	-0.00557369	0.00138596	-0.334421	1.97154	0.409638	5	-9.46636
1	0	0	1	0	0	2	225318	-0.334	4.13879	-0.00557311	0.00138396	-0.334387	1.91581	0.426326	5	XXX
1	0	0	1	0	0	2	225918	-0.334	4.13352	-0.00557324	0.00138223	-0.334394	1.86008	0.443015	5	XXX
1	0	0	1	0	0	2	226518	-0.334	4.12812	-0.00557294	0.00138034	-0.334376	1.80434	0.459706	5	-10.4286
1	0	0	1	0	0	2	227118	-0.334	4.12262	-0.00557276	0.00137846	-0.334365	1.74861	0.476393	5	XXX
1	0	0	1	0	0	2	227718	-0.334	4.11676	-0.00557268	0.00137648	-0.334361	1.69288	0.493081	5	XXX
1	0	0	1	0	0	2	228318	-0.334	4.11048	-0.00557257	0.00137435	-0.334354	1.63715	0.509769	5	XXX
1	0	0	1	0	0	2	228918	-0.334	4.10381	-0.00557298	0.00137223	-0.334379	1.58142	0.526457	5	XXX
1	0	0	1	0	0	2	229518	-0.334	4.09652	-0.00557368	0.00136996	-0.334421	1.52566	0.543154	5	XXX
1	0	0	1	0	0	2	230118	-0.334	4.08879	-0.00557237	0.00136705	-0.334342	1.46993	0.559842	5	XXX
1	0	0	1	0	0	2	230718	-0.334	4.08075	-0.00557329	0.00136459	-0.334397	1.4142	0.576531	5	XXX
1	0	0	1	0	0	2	231318	-0.334	4.07248	-0.00557312	0.00136179	-0.334387	1.35847	0.593219	5	XXX
1	0	0	1	0	0	2	231918	-0.334	4.06446	-0.00557287	0.00135904	-0.334372	1.30274	0.609906	5	XXX
1	0	0	1	0	0	2	232518	-0.334	4.0564	-0.00557266	0.0013563	-0.33436	1.24701	0.626593	5	XXX
1	0	0	1	0	0	2	233118	-0.334	4.04842	-0.00557302	0.00135372	-0.334381	1.19128	0.643281	5	XXX
1	0	0	1	0	0	2	233718	-0.334	4.04079	-0.00557296	0.00135115	-0.334377	1.13555	0.65997	5	XXX
1	0	0	1	0	0	2	234318	-0.334	4.03332	-0.00557273	0.0013486	-0.334364	1.07982	0.676658	5	-7.68081
1	0	0	1	0	0	2	234918	-0.334	4.02603	-0.00557231	0.00134606	-0.334339	1.02409	0.693345	5	-7.76322
1	0	0	1	0	0	2	235518	-0.334	4.01883	-0.00557284	0.00134378	-0.33437	0.968364	0.710032	5	-7.84605
1	0	0	1	0	0	2	236118	-0.334	4.01163	-0.00557282	0.00134137	-0.334369	0.912636	0.726719	5	XXX
1	0	0	1	0	0	2	236718	-0.334	4.0043	-0.0055743	0.00133927	-0.334458	0.856909	0.743406	5	XXX
1	0	0	1	0	0	2	237318	-0.334	3.99714	-0.00557309	0.00133659	-0.334386	0.801177	0.760094	5	XXX
1	0	0	1	0	0	2	237918	-0.334	3.98987	-0.00557222	0.00133394	-0.334333	0.74545	0.776781	5	XXX
1	0	0	1	0	0	2	238518	-0.334	3.98238	-0.00557283	0.00133159	-0.33437	0.689723	0.793468	5	XXX
1	0	0	1	0	0	2	239118	-0.334	3.9748	-0.00557299	0.00132909	-0.33438	0.633995	0.810156	5	XXX
1	0	0	1	0	0	2	239718	-0.334	3.96688	-0.00557243	0.00132631	-0.334346	0.578257	0.826846	5	-7.07606
1	0	0	1	0	0	2	240318	-0.334	3.9583	-0.0055723	0.00132341	-0.334338	0.522532	0.843532	5	XXX
1	0	0	1	0	0	2	240918	-0.334	3.94914	-0.00557289	0.00132049	-0.334373	0.466805	0.860219	5	-6.018291
1	0	0	1	0	0	2	241518	-0.334	3.9386	-0.00557265	0.00131691	-0.334359	0.411079	0.876906	5	-5.03222
1	0	0	1	0	0	2	242118	-0.334	3.92623	-0.00557247	0.00131273	-0.334348	0.355348	0.893594	5	XXX
1	0	0	1	0	0	2	242718	-0.334	3.90958	-0.00557314	0.00130732	-0.334388	0.299617	0.910282	5	-2.90434
1	0	0	1	0	0	2	243318	-0.334	3.88155	-0.00557292	0.00129789	-0.334375	0.243883	0.926971	5	-1.44501
1	0	0	1	0	0	2	243754	-0.334	3.79897	-0.00123054	0.00127029	-0.334377	0.203428	0.939085	5	-0.122996
1	0	0	1	0	0	2	243793	-0.334	3.69866	-0.000129796	0.00123676	-0.334381	0.199748	0.940187	5	-0.0128996
1	0	0	1	0	0	2	243803	-0.334	3.59848	-8.16883e-05	0.00120336	-0.334407	0.19882	0.940465	5	-0.00813393
1	0	0	1	0	0	2	243812	-0.334	3.49832	-8.42316e-05	0.00116984	-0.3344	0.198	0.940711	5	-0.00840313
1	0	0	1	0	0	2	243822	-0.334	3.39808	-8.81511e-05	0.00113631	-0.334398	0.197132	0.94097	5	-0.00879415
1	0	0	1	0	0	2	243831	-0.334	3.2979	-9.21791e-05	0.00110277	-0.334386	0.196224	0.941242	5	-0.00919599
1	0	0	1	0	0	2	243842	-0.334	3.19778	-9.66889e-05	0.00106924	-0.334371	0.195279	0.941525	5	-0.00964613
1	0	0	1	0	0	2	243852	-0.334	3.09767	-0.000103302	0.00103577	-0.334372	0.194276	0.941826	5	-0.0103057
1	0	0	1	0	0	2	243864	-0.334	2.99997	-8.9088e-05	0.00100307	-0.334359	0.193202	0.942147	5	-0.0117533
1	1	0	0	0	1	1	243865	0.334	3.09859	1.41106e-05	0.00103555	0.334199	0.193302	0.942117	6	0.00140503
1	1	0	0	0	1	1	243867	0.334	3.19879	1.86797e-05	0.00106913	0.334229	0.19347	0.942067	6	0.00185646
1	1	0	0	0	1	1	243869	0.334	3.29901	2.32298e-05	0.00110267	0.334242	0.193682	0.942004	6	0.00231306
1	1	0	0	0	1	1	243872	0.334	3.39921	2.67554e-05	0.001136048	0.33421	0.193935	0.941928	6	0.00265402
1	1	0	0	0	1	1	243875	0.334	3.49939	2.88527e-05	0.0011695	0.334201	0.194216	0.941844	6	0.00287841
1	1	0	0	0	1	1	243878	0.334	3.59961	2.98572e-05	0.00120307	0.334223	0.194507	0.941757	6	0.0029843
1	1	0	0	0	1	1	243881	0.334	3.69981	3.78404e-05	0.00123653	0.334214	0.194833	0.941659	6	0.00377505
1	1	0	0	0	1	1	243891	0.334	3.79997	0.000211621	0.00127005	0.334227	0.195744	0.941386	6	0.020992
1	1	0	0	0	1	1	244149	0.334	3.89679	0.0055709	0.00130252	0.334254	0.219662	0.934224	6	0.761804
1	1	0	0	0	1	1	244749	0.334	3.93241	0.00557047	0.00131432	0.334228	0.275371	0.917542	6	2.36254
1	1	0	0	0	1	1	245349	0.334	3.95053	0.00557102	0.00132051	0.334261	0.331076	0.900862	6	3.67017
1	1	0	0	0	1	1	245949	0.334	3.96361	0.00557099	0.00132488	0.334259	0.386784	0.884181	6	XXX
1	1	0	0	0	1	1	246549	0.334	3.97425	0.00556555	0.00132713	0.333933	0.442492	0.8675	6	XXX
1	1	0	0	0	1	1	247149	0.334	3.98366	0.00557149	0.0013317	0.33429	0.498189	0.850822	6	5.95535
1	1	0	0	0	1	1	247749	0.334	3.99229	0.00557152	0.00133459	0.334291	0.553901	0.834139	6	XXX
1	1	0	0	0	1	1	248349	0.334	4.00023	0.00557162	0.00133727	0.334297	0.609615	0.817456	6	7.3416
1	1	0	0	0	1	1	248506	0.334	4.00243	0.00345664	0.00133778	0.334242	0.624214	0.813085	6	XXX