File: test-data-xrd/xrd-map-34-ID-E/Data_0125.chi
F:\20151113_APS_34IDE\\Brian\Particle1\OCV\Data_0125.tif
2-Theta Angle (Degrees)
Intensity
       2000
 0.01725  0.0000000E+00
 0.04025  0.0000000E+00
 0.06325  0.0000000E+00
 0.08625  0.0000000E+00
 0.10925  0.0000000E+00
 0.13225  0.0000000E+00
 0.15525  0.0000000E+00
 0.17825  0.0000000E+00
 0.20125  0.0000000E+00
 0.22425  0.0000000E+00
 0.24725  0.0000000E+00
 0.27025  0.0000000E+00
 0.29325  0.0000000E+00
 0.31625  0.0000000E+00
 0.33925  0.0000000E+00
 0.36225  0.0000000E+00
 0.38525  0.0000000E+00
 0.40825  0.0000000E+00
 0.43125  0.0000000E+00
 0.45425  0.0000000E+00
 0.47725  0.0000000E+00
 0.50025  0.0000000E+00
 0.52325  0.0000000E+00
 0.54625  0.0000000E+00
 0.56925  0.0000000E+00
 0.59225  0.0000000E+00
 0.61525  0.0000000E+00
 0.63825  0.0000000E+00
 0.66125  0.0000000E+00
 0.68425  0.0000000E+00
 0.70725  0.0000000E+00
 0.73025  0.0000000E+00
 0.75325  0.0000000E+00
 0.77625  0.0000000E+00
 0.79925  0.0000000E+00
 0.82225  0.0000000E+00
 0.84525  0.0000000E+00
 0.86825  0.0000000E+00
 0.89125  0.0000000E+00
 0.91425  0.0000000E+00
 0.93725  0.0000000E+00
 0.96025  0.0000000E+00
 0.98325  0.0000000E+00
 1.00625  0.0000000E+00
 1.02925  0.0000000E+00
 1.05225  0.0000000E+00
 1.07525  0.0000000E+00
 1.09825  0.0000000E+00
 1.12125  0.0000000E+00
 1.14425  0.0000000E+00
 1.16725  0.0000000E+00
 1.19025  0.0000000E+00
 1.21325  0.0000000E+00
 1.23625  0.0000000E+00
 1.25925  0.0000000E+00
 1.28225  0.0000000E+00
 1.30525  0.0000000E+00
 1.32825  0.0000000E+00
 1.35125  0.0000000E+00
 1.37425  0.0000000E+00
 1.39725  0.0000000E+00
 1.42025  0.0000000E+00
 1.44325  0.0000000E+00
 1.46625  0.0000000E+00
 1.48925  0.0000000E+00
 1.51225  0.0000000E+00
 1.53525  0.0000000E+00
 1.55825  0.0000000E+00
 1.58125  0.0000000E+00
 1.60425  0.0000000E+00
 1.62725  0.0000000E+00
 1.65025  0.0000000E+00
 1.67325  0.0000000E+00
 1.69625  0.0000000E+00
 1.71925  0.0000000E+00
 1.74225  0.0000000E+00
 1.76525  0.0000000E+00
 1.78825  0.0000000E+00
 1.81125  0.0000000E+00
 1.83425  0.0000000E+00
 1.85725  0.0000000E+00
 1.88025  0.0000000E+00
 1.90325  0.0000000E+00
 1.92625  0.0000000E+00
 1.94925  0.0000000E+00
 1.97225  0.0000000E+00
 1.99525  0.0000000E+00
 2.01825  0.0000000E+00
 2.04125  0.0000000E+00
 2.06425  0.0000000E+00
 2.08725  0.0000000E+00
 2.11025  0.0000000E+00
 2.13325  0.0000000E+00
 2.15625  0.0000000E+00
 2.17925  0.0000000E+00
 2.20225  0.0000000E+00
 2.22525  0.0000000E+00
 2.24825  0.0000000E+00
 2.27125  0.0000000E+00
 2.29425  0.0000000E+00
 2.31725  0.0000000E+00
 2.34025  0.0000000E+00
 2.36325  0.0000000E+00
 2.38625  0.0000000E+00
 2.40925  0.0000000E+00
 2.43225  0.0000000E+00
 2.45525  0.0000000E+00
 2.47825  0.0000000E+00
 2.50125  0.0000000E+00
 2.52425  0.0000000E+00
 2.54725  0.0000000E+00
 2.57025  0.0000000E+00
 2.59325  0.0000000E+00
 2.61625  0.0000000E+00
 2.63925  0.0000000E+00
 2.66225  0.0000000E+00
 2.68525  0.0000000E+00
 2.70825  0.0000000E+00
 2.73125  0.0000000E+00
 2.75425  0.0000000E+00
 2.77725  0.0000000E+00
 2.80025  0.0000000E+00
 2.82325  37.935
 2.84625  35.0586
 2.86925  34.2984
 2.89225  34.0102
 2.91525  34.8909
 2.93825  35.9219
 2.96125  35.4821
 2.98425  34.8127
 3.00725  35.3821
 3.03025  35.9009
 3.05325  35.0993
 3.07625  34.2222
 3.09925  34.2433
 3.12225  34.2301
 3.14525  35.0559
 3.16825  35.2767
 3.19125  35.3028
 3.21425  35.3089
 3.23725  35.4811
 3.26025  35.1572
 3.28325  34.8752
 3.30625  34.6323
 3.32925  34.5312
 3.35225  34.2914
 3.37525  34.3553
 3.39825  34.6865
 3.42125  35.0634
 3.44425  35.1226
 3.46725  34.5975
 3.49025  34.4378
 3.51325  34.0468
 3.53625  33.8704
 3.55925  33.9332
 3.58225  33.6292
 3.60525  33.1463
 3.62825  32.9841
 3.65125  32.6957
 3.67425  32.5456
 3.69725  32.8849
 3.72025  33.1857
 3.74325  33.2869
 3.76625  33.3794
 3.78925  33.2793
 3.81225  33.3231
 3.83525  33.3577
 3.85825  33.1541
 3.88125  33.176
 3.90425  32.8406
 3.92725  32.5099
 3.95025  32.4721
 3.97325  32.5173
 3.99625  32.7417
 4.01925  32.459
 4.04225  32.0712
 4.06525  32.2208
 4.08825  32.386
 4.11125  32.4616
 4.13425  32.8231
 4.15725  32.7928
 4.18025  32.0638
 4.20325  31.9113
 4.22625  31.9608
 4.24925  32.0207
 4.27225  32.1735
 4.29525  32.3503
 4.31825  32.1622
 4.34125  32.1933
 4.36425  32.1823
 4.38725  32.1869
 4.41025  32.3257
 4.43325  32.4025
 4.45625  32.6895
 4.47925  33.0241
 4.50225  32.8611
 4.52525  32.6568
 4.54825  32.642
 4.57125  32.6363
 4.59425  32.7643
 4.61725  32.6965
 4.64025  32.6567
 4.66325  32.7144
 4.68625  32.6395
 4.70925  32.6623
 4.73225  32.5334
 4.75525  32.4307
 4.77825  32.481
 4.80125  32.4841
 4.82425  32.6147
 4.84725  32.6095
 4.87025  32.6973
 4.89325  32.7039
 4.91625  32.7307
 4.93925  32.8677
 4.96225  32.985
 4.98525  33.1539
 5.00825  33.0349
 5.03125  32.931
 5.05425  33.1295
 5.07725  33.3259
 5.10025  33.6434
 5.12325  33.7971
 5.14625  34.066
 5.16925  33.9423
 5.19225  33.9426
 5.21525  34.0431
 5.23825  33.8733
 5.26125  33.7083
 5.28425  34.0256
 5.30725  34.3213
 5.33025  34.4573
 5.35325  34.5232
 5.37625  34.6941
 5.39925  34.6713
 5.42225  34.5917
 5.44525  34.6017
 5.46825  34.6581
 5.49125  34.6829
 5.51425  34.8342
 5.53725  35.0323
 5.56025  35.095
 5.58325  35.1321
 5.60625  35.4662
 5.62925  35.4474
 5.65225  35.2607
 5.67525  35.2877
 5.69825  35.4075
 5.72125  35.5742
 5.74425  35.5286
 5.76725  35.5442
 5.79025  35.8869
 5.81325  35.8364
 5.83625  35.8365
 5.85925  35.9979
 5.88225  36.2914
 5.90525  36.8089
 5.92825  37.6486
 5.95125  39.879
 5.97425  42.1155
 5.99725  43.225
 6.02025  41.4822
 6.04325  38.8617
 6.06625  37.1171
 6.08925  36.6318
 6.11225  36.6716
 6.13525  36.6837
 6.15825  36.7513
 6.18125  36.7834
 6.20425  36.7431
 6.22725  36.9457
 6.25025  37.1839
 6.27325  37.26
 6.29625  37.3117
 6.31925  37.4184
 6.34225  37.6792
 6.36525  37.9461
 6.38825  38.0669
 6.41125  38.1659
 6.43425  38.3883
 6.45725  38.5145
 6.48025  38.8114
 6.50325  38.9591
 6.52625  39.1537
 6.54925  39.307
 6.57225  39.3825
 6.59525  39.4825
 6.61825  39.7008
 6.64125  40.024
 6.66425  40.2255
 6.68725  40.1666
 6.71025  40.2336
 6.73325  40.6388
 6.75625  41.1182
 6.77925  41.4519
 6.80225  41.4729
 6.82525  41.5135
 6.84825  41.4645
 6.87125  41.6822
 6.89425  41.9751
 6.91725  42.0065
 6.94025  41.9309
 6.96325  41.9058
 6.98625  41.9361
 7.00925  42.0694
 7.03225  42.2758
 7.05525  42.4847
 7.07825  42.6985
 7.10125  42.939
 7.12425  43.082
 7.14725  43.162
 7.17025  43.3299
 7.19325  43.47
 7.21625  43.4061
 7.23925  43.477
 7.26225  43.5962
 7.28525  43.7354
 7.30825  43.7859
 7.33125  43.9512
 7.35425  44.0876
 7.37725  43.9783
 7.40025  43.9759
 7.42325  44.1082
 7.44625  44.0777
 7.46925  44.1674
 7.49225  44.0889
 7.51525  44.1381
 7.53825  44.3784
 7.56125  44.5064
 7.58425  44.4398
 7.60725  44.4579
 7.63025  44.5299
 7.65325  44.4319
 7.67625  44.3525
 7.69925  44.2773
 7.72225  44.1823
 7.74525  44.0163
 7.76825  43.9994
 7.79125  44.0117
 7.81425  43.9979
 7.83725  43.963
 7.86025  44.059
 7.88325  43.7278
 7.90625  43.4795
 7.92925  43.3896
 7.95225  43.2806
 7.97525  43.3671
 7.99825  43.5092
 8.02125  43.4019
 8.04425  43.1558
 8.06725  42.9549
 8.09025  42.9323
 8.11325  42.9041
 8.13625  42.6627
 8.15925  42.4407
 8.18225  42.142
 8.20525  41.8604
 8.22825  41.5304
 8.25125  41.2578
 8.27425  41.2166
 8.29725  41.1087
 8.32025  40.8496
 8.34325  40.5179
 8.36625  39.9941
 8.38925  39.5449
 8.41225  39.2835
 8.43525  39.0562
 8.45825  38.7725
 8.48125  38.5115
 8.50425  38.259
 8.52725  37.7293
 8.55025  37.1496
 8.57325  36.8553
 8.59625  36.6226
 8.61925  36.3723
 8.64225  36.1043
 8.66525  35.5596
 8.68825  35.1653
 8.71125  34.9355
 8.73425  34.5375
 8.75725  34.0253
 8.78025  33.6563
 8.80325  33.347
 8.82625  32.995
 8.84925  32.7511
 8.87225  32.5328
 8.89525  32.2595
 8.91825  31.9575
 8.94125  31.5559
 8.96425  31.2235
 8.98725  30.9896
 9.01025  30.6474
 9.03325  30.3289
 9.05625  29.9427
 9.07925  29.6024
 9.10225  29.446
 9.12525  29.3362
 9.14825  29.1341
 9.17125  28.9271
 9.19425  28.6953
 9.21725  28.5095
 9.24025  28.3136
 9.26325  28.1294
 9.28625  27.8249
 9.30925  27.6315
 9.33225  27.4665
 9.35525  27.2235
 9.37825  27.0061
 9.40125  26.861
 9.42425  26.7899
 9.44725  26.5862
 9.47025  26.5185
 9.49325  26.5491
 9.51625  26.4598
 9.53925  26.3173
 9.56225  26.0848
 9.58525  25.8403
 9.60825  25.6625
 9.63125  25.6348
 9.65425  25.5703
 9.67725  25.4967
 9.70025  25.3596
 9.72325  25.3956
 9.74625  25.2666
 9.76925  25.1631
 9.79225  25.1294
 9.81525  24.948
 9.83825  24.7541
 9.86125  24.5741
 9.88425  24.4736
 9.90725  24.5184
 9.93025  24.4782
 9.95325  24.3842
 9.97625  24.2489
 9.99925  24.121
 10.0222  24.1015
 10.0453  24.1087
 10.0683  24.0022
 10.0913  23.9067
 10.1143  23.8661
 10.1373  23.9093
 10.1603  23.9792
 10.1832  23.8912
 10.2063  23.8761
 10.2293  23.8529
 10.2523  23.6618
 10.2752  23.5691
 10.2982  23.7011
 10.3213  23.7343
 10.3443  23.5611
 10.3673  23.4294
 10.3902  23.4265
 10.4133  23.3513
 10.4363  23.2036
 10.4593  23.183
 10.4823  23.1579
 10.5053  23.2005
 10.5283  23.1271
 10.5512  23.0212
 10.5742  22.9609
 10.5973  22.918
 10.6203  23.0062
 10.6433  23.0947
 10.6662  23.1063
 10.6893  23.0153
 10.7123  22.915
 10.7353  22.8294
 10.7583  22.7269
 10.7813  22.7388
 10.8043  22.7247
 10.8272  22.727
 10.8503  22.738
 10.8733  22.7595
 10.8963  22.6952
 10.9192  22.6799
 10.9422  22.7253
 10.9653  22.6529
 10.9883  22.6254
 11.0113  22.5866
 11.0343  22.5284
 11.0573  22.4571
 11.0803  22.5958
 11.1033  22.6535
 11.1263  22.6297
 11.1493  22.5052
 11.1723  22.4227
 11.1953  22.4508
 11.2182  22.3908
 11.2413  22.3903
 11.2643  22.3776
 11.2873  22.3584
 11.3102  22.3477
 11.3333  22.4203
 11.3563  22.4378
 11.3793  22.5222
 11.4023  22.6803
 11.4253  22.7466
 11.4483  22.8205
 11.4713  23.0878
 11.4942  23.3064
 11.5173  23.747
 11.5403  25.344
 11.5633  30.4217
 11.5862  40.0154
 11.6093  43.6005
 11.6323  34.1726
 11.6553  27.1719
 11.6783  24.1683
 11.7013  23.0743
 11.7243  22.6313
 11.7473  22.4742
 11.7703  22.4874
 11.7933  22.5414
 11.8163  22.5379
 11.8393  22.4716
 11.8622  22.4377
 11.8853  22.3999
 11.9083  22.5355
 11.9313  22.5345
 11.9543  22.5069
 11.9773  22.7161
 12.0003  22.8202
 12.0233  22.8838
 12.0463  22.9201
 12.0693  23.1641
 12.0923  23.5746
 12.1153  23.8011
 12.1382  23.5283
 12.1613  23.0413
 12.1843  22.5949
 12.2073  22.4082
 12.2302  22.3238
 12.2533  22.3151
 12.2763  22.3198
 12.2993  22.3445
 12.3223  22.3857
 12.3453  22.4127
 12.3683  22.4459
 12.3913  22.3605
 12.4142  22.2822
 12.4373  22.2782
 12.4603  22.4194
 12.4833  22.486
 12.5062  22.4431
 12.5292  22.4838
 12.5523  22.5607
 12.5753  22.5557
 12.5983  22.6221
 12.6212  22.6372
 12.6443  22.5697
 12.6673  22.5639
 12.6903  22.677
 12.7133  22.8526
 12.7363  22.884
 12.7593  22.8981
 12.7822  22.8619
 12.8052  22.843
 12.8283  23.0367
 12.8513  23.2329
 12.8742  23.2356
 12.8972  23.2092
 12.9203  23.3722
 12.9433  23.5266
 12.9663  23.5897
 12.9893  23.7293
 13.0123  23.8182
 13.0353  23.9426
 13.0582  24.1666
 13.0813  24.3291
 13.1043  24.6253
 13.1273  24.8708
 13.1502  25.0258
 13.1732  25.2514
 13.1963  25.4451
 13.2193  25.7499
 13.2423  26.162
 13.2652  26.3693
 13.2883  26.6336
 13.3113  26.9533
 13.3343  27.309
 13.3573  27.6655
 13.3803  27.9553
 13.4033  28.2129
 13.4262  28.4631
 13.4492  28.6828
 13.4723  28.8001
 13.4953  29.0534
 13.5183  29.2962
 13.5412  29.5085
 13.5643  29.7205
 13.5873  29.8525
 13.6103  29.8144
 13.6333  29.6575
 13.6563  29.6352
 13.6793  29.6273
 13.7022  29.4641
 13.7253  29.4057
 13.7483  29.2805
 13.7713  29.0806
 13.7942  28.8538
 13.8172  28.7852
 13.8403  28.7847
 13.8633  28.9298
 13.8863  29.1506
 13.9093  29.7597
 13.9323  30.4941
 13.9553  30.8573
 13.9783  30.8366
 14.0013  29.9308
 14.0243  28.7203
 14.0473  27.8897
 14.0703  27.4956
 14.0932  27.2201
 14.1163  27.1079
 14.1393  26.8993
 14.1623  26.7276
 14.1852  26.6064
 14.2083  26.54
 14.2313  26.4503
 14.2543  26.4184
 14.2773  26.3437
 14.3003  26.1905
 14.3233  26.0576
 14.3463  25.9999
 14.3692  25.8998
 14.3923  25.8886
 14.4153  25.9215
 14.4383  25.8991
 14.4612  25.799
 14.4843  25.6222
 14.5073  25.5501
 14.5303  25.5211
 14.5533  25.5378
 14.5763  25.5058
 14.5993  25.3247
 14.6223  25.2482
 14.6453  25.2431
 14.6683  25.143
 14.6913  25.0598
 14.7143  24.9873
 14.7372  24.884
 14.7603  24.9231
 14.7833  24.9936
 14.8063  25.0005
 14.8293  24.9593
 14.8523  24.9019
 14.8753  24.8142
 14.8983  24.7909
 14.9213  24.7311
 14.9443  24.6299
 14.9673  24.5988
 14.9903  24.5634
 15.0132  24.6119
 15.0363  24.7211
 15.0593  24.6267
 15.0823  24.6958
 15.1052  24.8476
 15.1283  24.9056
 15.1513  25.2902
 15.1743  25.8712
 15.1973  25.9495
 15.2203  25.6014
 15.2433  25.1397
 15.2663  24.7298
 15.2892  24.5364
 15.3123  24.519
 15.3353  24.5141
 15.3583  24.5087
 15.3812  24.4315
 15.4043  24.3958
 15.4273  24.4315
 15.4503  24.5035
 15.4733  24.5165
 15.4963  24.4915
 15.5193  24.4292
 15.5423  24.3098
 15.5653  24.3201
 15.5883  24.2566
 15.6113  24.2937
 15.6343  24.3012
 15.6572  24.3674
 15.6803  24.4168
 15.7033  24.3819
 15.7263  24.3747
 15.7492  24.3375
 15.7723  24.4009
 15.7953  24.3519
 15.8183  24.3648
 15.8413  24.3498
 15.8643  24.4273
 15.8873  24.5192
 15.9103  24.5675
 15.9332  24.5284
 15.9563  24.3791
 15.9793  24.4291
 16.0023  24.5092
 16.0253  24.498
 16.0482  24.4576
 16.0713  24.4497
 16.0943  24.5042
 16.1172  24.5958
 16.1403  24.7045
 16.1633  24.8928
 16.1863  25.055
 16.2093  25.5145
 16.2323  26.3052
 16.2553  26.8999
 16.2783  26.4236
 16.3012  25.4495
 16.3243  24.8887
 16.3472  24.653
 16.3703  24.6109
 16.3933  24.6621
 16.4163  24.8066
 16.4393  24.7688
 16.4623  24.6907
 16.4853  24.647
 16.5083  24.6384
 16.5312  24.4682
 16.5543  24.5265
 16.5773  24.6836
 16.6002  24.8303
 16.6233  24.8905
 16.6463  24.8039
 16.6693  24.697
 16.6923  24.6639
 16.7153  24.5255
 16.7383  24.4949
 16.7613  24.4711
 16.7843  24.4498
 16.8073  24.3504
 16.8303  24.3181
 16.8533  24.3508
 16.8763  24.2559
 16.8992  24.1739
 16.9223  24.2144
 16.9453  24.2082
 16.9683  24.1234
 16.9913  24.1724
 17.0143  24.2473
 17.0373  24.1932
 17.0603  24.0329
 17.0832  24.0492
 17.1063  24.0201
 17.1293  23.9778
 17.1522  23.9534
 17.1753  24.0589
 17.1983  24.121
 17.2213  24.0728
 17.2443  24.0255
 17.2673  23.9821
 17.2903  23.9502
 17.3133  23.9924
 17.3362  24.0927
 17.3593  24.0461
 17.3823  23.9224
 17.4053  23.798
 17.4283  23.755
 17.4513  23.8542
 17.4743  23.9196
 17.4973  23.8245
 17.5203  23.7792
 17.5433  23.7391
 17.5663  23.6671
 17.5893  23.5943
 17.6123  23.5746
 17.6352  23.5535
 17.6583  23.5187
 17.6813  23.6291
 17.7042  23.6549
 17.7273  23.5523
 17.7503  23.5419
 17.7733  23.573
 17.7963  23.6061
 17.8193  23.5686
 17.8423  23.6268
 17.8653  23.6156
 17.8882  23.5606
 17.9113  23.519
 17.9343  23.4952
 17.9573  23.5595
 17.9803  23.6296
 18.0033  23.914
 18.0263  24.141
 18.0493  24.4124
 18.0723  24.6807
 18.0953  24.8004
 18.1183  24.6011
 18.1413  24.2701
 18.1643  23.9728
 18.1872  23.7781
 18.2103  23.6511
 18.2333  23.5137
 18.2563  23.5199
 18.2793  23.4854
 18.3023  23.4603
 18.3253  23.4351
 18.3483  23.4632
 18.3712  23.5767
 18.3943  23.5604
 18.4173  23.4516
 18.4402  23.3838
 18.4633  23.4018
 18.4863  23.365
 18.5093  23.3707
 18.5323  23.4218
 18.5553  23.3151
 18.5783  23.3407
 18.6013  23.4192
 18.6242  23.4131
 18.6473  23.3996
 18.6703  23.4374
 18.6933  23.4513
 18.7163  23.3938
 18.7392  23.3297
 18.7623  23.3332
 18.7853  23.282
 18.8083  23.3256
 18.8313  23.3311
 18.8543  23.3011
 18.8773  23.2141
 18.9003  23.2408
 18.9232  23.3211
 18.9463  23.3768
 18.9693  23.3241
 18.9922  23.216
 19.0153  23.2709
 19.0383  23.3392
 19.0613  23.3285
 19.0843  23.3891
 19.1073  23.3479
 19.1303  23.3692
 19.1533  23.3999
 19.1762  23.4238
 19.1993  23.4699
 19.2223  23.4781
 19.2453  23.4475
 19.2683  23.4875
 19.2913  23.3158
 19.3143  23.3312
 19.3373  23.4223
 19.3603  23.5601
 19.3833  23.6247
 19.4062  23.5501
 19.4293  23.4328
 19.4523  23.4209
 19.4752  23.4673
 19.4983  23.4443
 19.5213  23.4411
 19.5443  23.4314
 19.5673  23.4356
 19.5903  23.5584
 19.6133  23.5922
 19.6363  23.7576
 19.6593  24.0256
 19.6823  24.401
 19.7053  24.8193
 19.7283  25.0214
 19.7513  24.9171
 19.7742  24.7141
 19.7973  24.7721
 19.8203  25.0823
 19.8433  25.3687
 19.8663  25.3423
 19.8893  25.0294
 19.9123  24.4828
 19.9353  23.94
 19.9582  23.706
 19.9813  23.6566
 20.0043  23.6047
 20.0272  23.6122
 20.0503  23.6329
 20.0733  23.5666
 20.0963  23.5358
 20.1193  23.5656
 20.1423  23.5127
 20.1653  23.5157
 20.1883  23.523
 20.2112  23.5159
 20.2343  23.4738
 20.2573  23.4851
 20.2803  23.4748
 20.3033  23.4808
 20.3263  23.402
 20.3493  23.4108
 20.3723  23.4273
 20.3953  23.4778
 20.4183  23.5965
 20.4413  23.6325
 20.4643  23.5387
 20.4873  23.4965
 20.5102  23.5564
 20.5333  23.5251
 20.5563  23.5668
 20.5792  23.564
 20.6023  23.6152
 20.6253  23.6732
 20.6483  23.7969
 20.6713  23.8966
 20.6943  24.1919
 20.7173  24.8715
 20.7403  25.7028
 20.7632  26.5589
 20.7863  26.6523
 20.8093  25.7926
 20.8323  24.78
 20.8553  24.1866
 20.8783  23.9807
 20.9013  23.8934
 20.9243  23.808
 20.9473  23.8597
 20.9703  23.708
 20.9933  23.7166
 21.0163  23.6776
 21.0393  23.6494
 21.0622  23.6361
 21.0853  23.7125
 21.1083  23.7074
 21.1313  23.7159
 21.1543  23.6209
 21.1773  23.7978
 21.2003  23.8046
 21.2233  23.724
 21.2462  23.6678
 21.2693  23.7235
 21.2923  23.7017
 21.3152  23.6473
 21.3383  23.6783
 21.3613  23.6837
 21.3843  23.713
 21.4073  23.7173
 21.4303  23.7024
 21.4533  23.645
 21.4763  23.722
 21.4992  23.8848
 21.5223  23.8853
 21.5453  23.9085
 21.5683  23.8426
 21.5913  23.8773
 21.6142  23.8274
 21.6373  23.766
 21.6603  23.8691
 21.6833  23.9373
 21.7063  23.9238
 21.7293  23.8312
 21.7523  23.8184
 21.7753  23.8018
 21.7982  23.911
 21.8213  23.9953
 21.8443  23.9759
 21.8672  23.9815
 21.8903  23.9925
 21.9133  23.9424
 21.9363  23.9172
 21.9593  23.9592
 21.9823  23.9658
 22.0053  24.0164
 22.0283  24.1218
 22.0512  24.104
 22.0743  24.09
 22.0973  24.1006
 22.1203  24.1589
 22.1433  24.2187
 22.1663  24.2361
 22.1893  24.1593
 22.2123  24.1492
 22.2353  24.2394
 22.2583  24.1403
 22.2813  24.0788
 22.3043  24.1554
 22.3273  24.2975
 22.3502  24.3621
 22.3733  24.432
 22.3963  24.4222
 22.4193  24.3802
 22.4423  24.3788
 22.4653  24.4627
 22.4883  24.4369
 22.5113  24.5726
 22.5343  24.6464
 22.5573  24.6016
 22.5803  24.5939
 22.6033  24.7046
 22.6263  24.8182
 22.6493  24.8881
 22.6723  24.9572
 22.6953  24.9394
 22.7183  24.9085
 22.7413  24.9358
 22.7643  25.0208
 22.7873  25.0195
 22.8103  25.1482
 22.8333  25.2536
 22.8563  25.3016
 22.8793  25.4105
 22.9022  25.5412
 22.9253  25.7498
 22.9483  25.8767
 22.9713  25.9273
 22.9943  26.0627