File: test-data-xrd/xrd-map-34-ID-E/Data_0007.chi
F:\20151113_APS_34IDE\\Brian\Particle1\OCV\Data_0007.tif
2-Theta Angle (Degrees)
Intensity
       2000
 0.01725  0.0000000E+00
 0.04025  0.0000000E+00
 0.06325  0.0000000E+00
 0.08625  0.0000000E+00
 0.10925  0.0000000E+00
 0.13225  0.0000000E+00
 0.15525  0.0000000E+00
 0.17825  0.0000000E+00
 0.20125  0.0000000E+00
 0.22425  0.0000000E+00
 0.24725  0.0000000E+00
 0.27025  0.0000000E+00
 0.29325  0.0000000E+00
 0.31625  0.0000000E+00
 0.33925  0.0000000E+00
 0.36225  0.0000000E+00
 0.38525  0.0000000E+00
 0.40825  0.0000000E+00
 0.43125  0.0000000E+00
 0.45425  0.0000000E+00
 0.47725  0.0000000E+00
 0.50025  0.0000000E+00
 0.52325  0.0000000E+00
 0.54625  0.0000000E+00
 0.56925  0.0000000E+00
 0.59225  0.0000000E+00
 0.61525  0.0000000E+00
 0.63825  0.0000000E+00
 0.66125  0.0000000E+00
 0.68425  0.0000000E+00
 0.70725  0.0000000E+00
 0.73025  0.0000000E+00
 0.75325  0.0000000E+00
 0.77625  0.0000000E+00
 0.79925  0.0000000E+00
 0.82225  0.0000000E+00
 0.84525  0.0000000E+00
 0.86825  0.0000000E+00
 0.89125  0.0000000E+00
 0.91425  0.0000000E+00
 0.93725  0.0000000E+00
 0.96025  0.0000000E+00
 0.98325  0.0000000E+00
 1.00625  0.0000000E+00
 1.02925  0.0000000E+00
 1.05225  0.0000000E+00
 1.07525  0.0000000E+00
 1.09825  0.0000000E+00
 1.12125  0.0000000E+00
 1.14425  0.0000000E+00
 1.16725  0.0000000E+00
 1.19025  0.0000000E+00
 1.21325  0.0000000E+00
 1.23625  0.0000000E+00
 1.25925  0.0000000E+00
 1.28225  0.0000000E+00
 1.30525  0.0000000E+00
 1.32825  0.0000000E+00
 1.35125  0.0000000E+00
 1.37425  0.0000000E+00
 1.39725  0.0000000E+00
 1.42025  0.0000000E+00
 1.44325  0.0000000E+00
 1.46625  0.0000000E+00
 1.48925  0.0000000E+00
 1.51225  0.0000000E+00
 1.53525  0.0000000E+00
 1.55825  0.0000000E+00
 1.58125  0.0000000E+00
 1.60425  0.0000000E+00
 1.62725  0.0000000E+00
 1.65025  0.0000000E+00
 1.67325  0.0000000E+00
 1.69625  0.0000000E+00
 1.71925  0.0000000E+00
 1.74225  0.0000000E+00
 1.76525  0.0000000E+00
 1.78825  0.0000000E+00
 1.81125  0.0000000E+00
 1.83425  0.0000000E+00
 1.85725  0.0000000E+00
 1.88025  0.0000000E+00
 1.90325  0.0000000E+00
 1.92625  0.0000000E+00
 1.94925  0.0000000E+00
 1.97225  0.0000000E+00
 1.99525  0.0000000E+00
 2.01825  0.0000000E+00
 2.04125  0.0000000E+00
 2.06425  0.0000000E+00
 2.08725  0.0000000E+00
 2.11025  0.0000000E+00
 2.13325  0.0000000E+00
 2.15625  0.0000000E+00
 2.17925  0.0000000E+00
 2.20225  0.0000000E+00
 2.22525  0.0000000E+00
 2.24825  0.0000000E+00
 2.27125  0.0000000E+00
 2.29425  0.0000000E+00
 2.31725  0.0000000E+00
 2.34025  0.0000000E+00
 2.36325  0.0000000E+00
 2.38625  0.0000000E+00
 2.40925  0.0000000E+00
 2.43225  0.0000000E+00
 2.45525  0.0000000E+00
 2.47825  0.0000000E+00
 2.50125  0.0000000E+00
 2.52425  0.0000000E+00
 2.54725  0.0000000E+00
 2.57025  0.0000000E+00
 2.59325  0.0000000E+00
 2.61625  0.0000000E+00
 2.63925  0.0000000E+00
 2.66225  0.0000000E+00
 2.68525  0.0000000E+00
 2.70825  0.0000000E+00
 2.73125  0.0000000E+00
 2.75425  0.0000000E+00
 2.77725  0.0000000E+00
 2.80025  0.0000000E+00
 2.82325  32.2907
 2.84625  33.9968
 2.86925  35.0025
 2.89225  35.5171
 2.91525  35.6057
 2.93825  35.6969
 2.96125  35.8049
 2.98425  36.1369
 3.00725  35.3894
 3.03025  34.9057
 3.05325  35.3263
 3.07625  35.5882
 3.09925  35.2259
 3.12225  35.1791
 3.14525  35.6279
 3.16825  35.3924
 3.19125  34.9857
 3.21425  35.2178
 3.23725  34.9103
 3.26025  34.9302
 3.28325  34.6336
 3.30625  34.1093
 3.32925  34.0646
 3.35225  34.5903
 3.37525  34.8236
 3.39825  34.7846
 3.42125  34.9398
 3.44425  34.73
 3.46725  34.2293
 3.49025  34.138
 3.51325  34.2129
 3.53625  33.9598
 3.55925  33.6564
 3.58225  33.3809
 3.60525  32.8799
 3.62825  33.142
 3.65125  33.384
 3.67425  33.3032
 3.69725  32.8714
 3.72025  32.322
 3.74325  32.3015
 3.76625  32.6589
 3.78925  32.677
 3.81225  32.5128
 3.83525  32.4898
 3.85825  32.3787
 3.88125  32.2971
 3.90425  32.3831
 3.92725  32.1977
 3.95025  32.1795
 3.97325  32.5978
 3.99625  33.1108
 4.01925  33.1765
 4.04225  32.9324
 4.06525  32.5747
 4.08825  32.2237
 4.11125  32.3695
 4.13425  32.2114
 4.15725  31.9419
 4.18025  31.7272
 4.20325  31.8519
 4.22625  32.154
 4.24925  32.1294
 4.27225  32.1446
 4.29525  31.969
 4.31825  31.9551
 4.34125  31.7524
 4.36425  31.6337
 4.38725  31.8875
 4.41025  32.589
 4.43325  32.9071
 4.45625  32.8419
 4.47925  32.5783
 4.50225  32.4565
 4.52525  32.5672
 4.54825  32.704
 4.57125  32.6554
 4.59425  32.5128
 4.61725  32.3042
 4.64025  32.2018
 4.66325  32.3738
 4.68625  32.306
 4.70925  32.3579
 4.73225  32.3682
 4.75525  32.2912
 4.77825  32.4767
 4.80125  32.4235
 4.82425  32.5571
 4.84725  32.8473
 4.87025  32.8179
 4.89325  32.6262
 4.91625  32.7607
 4.93925  32.9629
 4.96225  32.969
 4.98525  32.9788
 5.00825  33.1332
 5.03125  33.2601
 5.05425  33.3452
 5.07725  33.2705
 5.10025  33.1896
 5.12325  33.3578
 5.14625  33.8075
 5.16925  33.7524
 5.19225  33.6616
 5.21525  33.6414
 5.23825  33.6834
 5.26125  33.9584
 5.28425  34.1165
 5.30725  34.2209
 5.33025  34.2615
 5.35325  34.1022
 5.37625  34.1633
 5.39925  34.3284
 5.42225  34.5538
 5.44525  34.5732
 5.46825  34.6398
 5.49125  34.5416
 5.51425  34.7967
 5.53725  34.9209
 5.56025  35.0584
 5.58325  35.1021
 5.60625  35.1248
 5.62925  35.0647
 5.65225  35.0366
 5.67525  35.3505
 5.69825  35.3013
 5.72125  35.3811
 5.74425  35.547
 5.76725  35.6335
 5.79025  35.7407
 5.81325  35.8528
 5.83625  35.8702
 5.85925  35.7566
 5.88225  35.8182
 5.90525  36.1852
 5.92825  36.7689
 5.95125  37.718
 5.97425  38.6685
 5.99725  38.6564
 6.02025  37.7152
 6.04325  36.9094
 6.06625  36.5514
 6.08925  36.5692
 6.11225  36.4962
 6.13525  36.4986
 6.15825  36.7023
 6.18125  36.8134
 6.20425  36.7361
 6.22725  37.0424
 6.25025  37.3188
 6.27325  37.664
 6.29625  37.928
 6.31925  37.8683
 6.34225  37.9849
 6.36525  38.2014
 6.38825  38.3504
 6.41125  38.5207
 6.43425  38.7095
 6.45725  38.7114
 6.48025  38.6781
 6.50325  38.8296
 6.52625  39.1783
 6.54925  39.3443
 6.57225  39.5309
 6.59525  39.5828
 6.61825  39.652
 6.64125  39.7526
 6.66425  39.8762
 6.68725  40.059
 6.71025  40.2265
 6.73325  40.3762
 6.75625  40.5499
 6.77925  40.6992
 6.80225  40.9526
 6.82525  41.3108
 6.84825  41.5837
 6.87125  41.6248
 6.89425  41.6826
 6.91725  41.9088
 6.94025  42.283
 6.96325  42.5686
 6.98625  42.791
 7.00925  42.6954
 7.03225  42.7731
 7.05525  42.8232
 7.07825  42.7407
 7.10125  42.8879
 7.12425  43.2089
 7.14725  43.459
 7.17025  43.4095
 7.19325  43.5241
 7.21625  43.7522
 7.23925  43.855
 7.26225  43.9649
 7.28525  43.9975
 7.30825  43.8966
 7.33125  43.8443
 7.35425  44.1274
 7.37725  44.2097
 7.40025  44.1392
 7.42325  44.0686
 7.44625  44.2418
 7.46925  44.5177
 7.49225  44.6226
 7.51525  44.6558
 7.53825  44.6956
 7.56125  44.6275
 7.58425  44.5876
 7.60725  44.6154
 7.63025  44.6424
 7.65325  44.5305
 7.67625  44.4215
 7.69925  44.4681
 7.72225  44.4101
 7.74525  44.3714
 7.76825  44.4617
 7.79125  44.6236
 7.81425  44.6762
 7.83725  44.6973
 7.86025  44.3259
 7.88325  44.0805
 7.90625  44.2928
 7.92925  44.3235
 7.95225  44.1453
 7.97525  43.8674
 7.99825  43.8947
 8.02125  43.9019
 8.04425  43.8629
 8.06725  43.5888
 8.09025  43.3857
 8.11325  43.139
 8.13625  42.6357
 8.15925  42.2894
 8.18225  42.2483
 8.20525  42.2903
 8.22825  41.9398
 8.25125  41.654
 8.27425  41.3726
 8.29725  41.0247
 8.32025  40.8037
 8.34325  40.5966
 8.36625  40.3333
 8.38925  40.0559
 8.41225  39.6808
 8.43525  39.256
 8.45825  38.8682
 8.48125  38.5651
 8.50425  38.1731
 8.52725  37.9206
 8.55025  37.557
 8.57325  37.1351
 8.59625  36.8095
 8.61925  36.5044
 8.64225  36.2255
 8.66525  35.8602
 8.68825  35.4533
 8.71125  35.108
 8.73425  34.7588
 8.75725  34.3833
 8.78025  33.9966
 8.80325  33.5849
 8.82625  33.1741
 8.84925  32.8
 8.87225  32.7191
 8.89525  32.5351
 8.91825  32.2941
 8.94125  31.8625
 8.96425  31.6672
 8.98725  31.4624
 9.01025  31.1718
 9.03325  30.8612
 9.05625  30.6297
 9.07925  30.3765
 9.10225  30.0769
 9.12525  29.7188
 9.14825  29.3845
 9.17125  29.16
 9.19425  29.0278
 9.21725  28.727
 9.24025  28.4328
 9.26325  28.2237
 9.28625  27.9274
 9.30925  27.7167
 9.33225  27.6107
 9.35525  27.5887
 9.37825  27.5644
 9.40125  27.4188
 9.42425  27.1789
 9.44725  26.947
 9.47025  26.8586
 9.49325  26.7465
 9.51625  26.5815
 9.53925  26.4144
 9.56225  26.4063
 9.58525  26.3788
 9.60825  26.3156
 9.63125  26.1512
 9.65425  25.8845
 9.67725  25.688
 9.70025  25.6116
 9.72325  25.604
 9.74625  25.5068
 9.76925  25.3722
 9.79225  25.2729
 9.81525  25.0736
 9.83825  25.0345
 9.86125  25.0468
 9.88425  25.0025
 9.90725  24.9567
 9.93025  24.8623
 9.95325  24.6396
 9.97625  24.4411
 9.99925  24.3878
 10.0222  24.3495
 10.0453  24.3031
 10.0683  24.2506
 10.0913  24.1939
 10.1143  24.0914
 10.1373  24.0299
 10.1603  24.0736
 10.1832  24.0122
 10.2063  23.9766
 10.2293  23.9177
 10.2523  23.8584
 10.2752  23.7476
 10.2982  23.7081
 10.3213  23.6997
 10.3443  23.7001
 10.3673  23.6086
 10.3902  23.5394
 10.4133  23.5059
 10.4363  23.397
 10.4593  23.3667
 10.4823  23.4047
 10.5053  23.4766
 10.5283  23.3632
 10.5512  23.2843
 10.5742  23.2795
 10.5973  23.2725
 10.6203  23.3124
 10.6433  23.2876
 10.6662  23.2041
 10.6893  23.0751
 10.7123  23.0598
 10.7353  22.973
 10.7583  22.9314
 10.7813  22.9916
 10.8043  22.9172
 10.8272  22.8315
 10.8503  22.8325
 10.8733  22.8421
 10.8963  22.7818
 10.9192  22.6394
 10.9422  22.5034
 10.9653  22.5296
 10.9883  22.6438
 11.0113  22.6605
 11.0343  22.5811
 11.0573  22.4698
 11.0803  22.5611
 11.1033  22.6803
 11.1263  22.9043
 11.1493  22.914
 11.1723  22.7265
 11.1953  22.4603
 11.2182  22.3159
 11.2413  22.3098
 11.2643  22.3964
 11.2873  22.4622
 11.3102  22.5389
 11.3333  22.6654
 11.3563  22.6681
 11.3793  22.8276
 11.4023  23.1694
 11.4253  23.1203
 11.4483  22.9066
 11.4713  22.8245
 11.4942  22.7974
 11.5173  22.8831
 11.5403  23.2585
 11.5633  24.0069
 11.5862  24.6303
 11.6093  24.4011
 11.6323  23.6022
 11.6553  23.0187
 11.6783  22.806
 11.7013  22.6609
 11.7243  22.526
 11.7473  22.5208
 11.7703  22.4486
 11.7933  22.5092
 11.8163  22.6247
 11.8393  22.5855
 11.8622  22.474
 11.8853  22.363
 11.9083  22.3852
 11.9313  22.5614
 11.9543  22.7389
 11.9773  22.8293
 12.0003  22.9161
 12.0233  23.0068
 12.0463  23.3131
 12.0693  24.0013
 12.0923  25.1658
 12.1153  25.0676
 12.1382  23.9307
 12.1613  23.1747
 12.1843  22.9885
 12.2073  22.8519
 12.2302  22.6622
 12.2533  22.5753
 12.2763  22.5619
 12.2993  22.5801
 12.3223  22.6317
 12.3453  22.6669
 12.3683  22.7214
 12.3913  22.7439
 12.4142  22.7196
 12.4373  22.6729
 12.4603  22.7709
 12.4833  22.8179
 12.5062  22.7654
 12.5292  22.7848
 12.5523  22.7695
 12.5753  22.8022
 12.5983  22.8859
 12.6212  22.9465
 12.6443  22.9127
 12.6673  22.8719
 12.6903  22.9655
 12.7133  23.0806
 12.7363  23.1088
 12.7593  23.0531
 12.7822  23.1261
 12.8052  23.1925
 12.8283  23.3209
 12.8513  23.4105
 12.8742  23.5428
 12.8972  23.6553
 12.9203  23.7214
 12.9433  23.8053
 12.9663  23.8419
 12.9893  23.9404
 13.0123  24.0675
 13.0353  24.2828
 13.0582  24.4773
 13.0813  24.6368
 13.1043  24.8206
 13.1273  25.0983
 13.1502  25.3162
 13.1732  25.5087
 13.1963  25.7317
 13.2193  25.9842
 13.2423  26.2811
 13.2652  26.5072
 13.2883  26.751
 13.3113  27.0457
 13.3343  27.2816
 13.3573  27.6245
 13.3803  27.9949
 13.4033  28.3712
 13.4262  28.5447
 13.4492  28.7144
 13.4723  28.8879
 13.4953  29.2077
 13.5183  29.4291
 13.5412  29.6187
 13.5643  29.6556
 13.5873  29.6658
 13.6103  29.6001
 13.6333  29.5399
 13.6563  29.6407
 13.6793  29.8598
 13.7022  29.7957
 13.7253  29.6771
 13.7483  29.5089
 13.7713  29.4974
 13.7942  29.315
 13.8172  29.0858
 13.8403  28.932
 13.8633  29.0246
 13.8863  29.5234
 13.9093  30.5988
 13.9323  31.6997
 13.9553  31.9496
 13.9783  30.9398
 14.0013  29.5023
 14.0243  28.4861
 14.0473  27.95
 14.0703  27.6859
 14.0932  27.543
 14.1163  27.3633
 14.1393  27.1902
 14.1623  26.9705
 14.1852  26.718
 14.2083  26.6432
 14.2313  26.4841
 14.2543  26.419
 14.2773  26.3473
 14.3003  26.3299
 14.3233  26.1924
 14.3463  26.1667
 14.3692  26.1327
 14.3923  26.077
 14.4153  25.9143
 14.4383  25.7837
 14.4612  25.7279
 14.4843  25.675
 14.5073  25.7353
 14.5303  25.7047
 14.5533  25.5511
 14.5763  25.5417
 14.5993  25.4449
 14.6223  25.3932
 14.6453  25.3728
 14.6683  25.2339
 14.6913  25.3729
 14.7143  25.8043
 14.7372  25.8206
 14.7603  25.4263
 14.7833  25.1098
 14.8063  25.1072
 14.8293  24.9862
 14.8523  24.9455
 14.8753  24.8901
 14.8983  24.977
 14.9213  24.9357
 14.9443  24.7828
 14.9673  24.6103
 14.9903  24.6939
 15.0132  24.7163
 15.0363  24.7815
 15.0593  24.9156
 15.0823  24.8498
 15.1052  24.9202
 15.1283  24.9491
 15.1513  24.9494
 15.1743  25.1436
 15.1973  25.2884
 15.2203  25.2366
 15.2433  24.9449
 15.2663  24.7821
 15.2892  24.6519
 15.3123  24.5477
 15.3353  24.5888
 15.3583  24.5662
 15.3812  24.5624
 15.4043  24.5927
 15.4273  24.4788
 15.4503  24.4266
 15.4733  24.4657
 15.4963  24.4822
 15.5193  24.5731
 15.5423  24.6331
 15.5653  24.6193
 15.5883  24.5633
 15.6113  24.516
 15.6343  24.5139
 15.6572  24.6164
 15.6803  24.5522
 15.7033  24.482
 15.7263  24.5461
 15.7492  24.5621
 15.7723  24.6388
 15.7953  24.688
 15.8183  24.6535
 15.8413  24.5927
 15.8643  24.5269
 15.8873  24.6299
 15.9103  24.671
 15.9332  24.5918
 15.9563  24.5503
 15.9793  24.6239
 16.0023  24.7087
 16.0253  24.7206
 16.0482  24.7972
 16.0713  24.8384
 16.0943  24.7563
 16.1172  24.6912
 16.1403  24.7681
 16.1633  24.8657
 16.1863  24.9497
 16.2093  25.1914
 16.2323  25.344
 16.2553  25.5032
 16.2783  25.5761
 16.3012  25.2306
 16.3243  24.9987
 16.3472  24.8204
 16.3703  24.6309
 16.3933  24.6321
 16.4163  24.7148
 16.4393  24.7062
 16.4623  24.7245
 16.4853  24.7454
 16.5083  24.711
 16.5312  24.6668
 16.5543  24.6812
 16.5773  24.6585
 16.6002  24.6645
 16.6233  24.6463
 16.6463  24.6246
 16.6693  24.6027
 16.6923  24.5982
 16.7153  24.6307
 16.7383  24.6598
 16.7613  24.6159
 16.7843  24.5758
 16.8073  24.5593
 16.8303  24.4818
 16.8533  24.3764
 16.8763  24.3774
 16.8992  24.3706
 16.9223  24.4196
 16.9453  24.3092
 16.9683  24.3139
 16.9913  24.3716
 17.0143  24.477
 17.0373  24.3832
 17.0603  24.1814
 17.0832  24.1372
 17.1063  24.1127
 17.1293  24.1648
 17.1522  24.2378
 17.1753  24.3412
 17.1983  24.411
 17.2213  24.3145
 17.2443  24.2113
 17.2673  24.1291
 17.2903  24.1679
 17.3133  24.1158
 17.3362  24.0789
 17.3593  23.9816
 17.3823  23.9676
 17.4053  23.919
 17.4283  23.8986
 17.4513  23.8836
 17.4743  23.974
 17.4973  23.9547
 17.5203  23.8279
 17.5433  23.8241
 17.5663  23.867
 17.5893  23.8299
 17.6123  23.833
 17.6352  23.819
 17.6583  23.7382
 17.6813  23.7766
 17.7042  23.7721
 17.7273  23.6742
 17.7503  23.6919
 17.7733  23.6962
 17.7963  23.7394
 17.8193  23.7672
 17.8423  23.7875
 17.8653  23.7063
 17.8882  23.6869
 17.9113  23.6526
 17.9343  23.7016
 17.9573  23.696
 17.9803  23.7292
 18.0033  23.7973
 18.0263  23.8145
 18.0493  23.9507
 18.0723  24.0374
 18.0953  24.0818
 18.1183  24.1263
 18.1413  24.0053
 18.1643  23.8263
 18.1872  23.6526
 18.2103  23.5658
 18.2333  23.5713
 18.2563  23.6059
 18.2793  23.6078
 18.3023  23.672
 18.3253  23.6548
 18.3483  23.6588
 18.3712  23.6749
 18.3943  23.6461
 18.4173  23.6832
 18.4402  23.6694
 18.4633  23.6687
 18.4863  23.7291
 18.5093  23.6824
 18.5323  23.6418
 18.5553  23.6231
 18.5783  23.6237
 18.6013  23.6364
 18.6242  23.5627
 18.6473  23.6005
 18.6703  23.5102
 18.6933  23.4646
 18.7163  23.4386
 18.7392  23.4519
 18.7623  23.5177
 18.7853  23.5132
 18.8083  23.4906
 18.8313  23.4604
 18.8543  23.5049
 18.8773  23.4743
 18.9003  23.5411
 18.9232  23.5914
 18.9463  23.6272
 18.9693  23.6528
 18.9922  23.6918
 19.0153  23.8176
 19.0383  23.7306
 19.0613  23.6092
 19.0843  23.6745
 19.1073  23.5176
 19.1303  23.462
 19.1533  23.61
 19.1762  23.6404
 19.1993  23.5698
 19.2223  23.5464
 19.2453  23.4794
 19.2683  23.5189
 19.2913  23.5375
 19.3143  23.6974
 19.3373  23.6531
 19.3603  23.612
 19.3833  23.5983
 19.4062  23.6626
 19.4293  23.6271
 19.4523  23.5549
 19.4752  23.5718
 19.4983  23.6357
 19.5213  23.6802
 19.5443  23.7444
 19.5673  23.6491
 19.5903  23.5881
 19.6133  23.545
 19.6363  23.7076
 19.6593  23.9076
 19.6823  24.1506
 19.7053  24.3986
 19.7283  24.5089
 19.7513  24.3345
 19.7742  24.1037
 19.7973  24.0456
 19.8203  24.1511
 19.8433  24.4237
 19.8663  24.4875
 19.8893  24.4128
 19.9123  24.2167
 19.9353  23.9374
 19.9582  23.7629
 19.9813  23.7605
 20.0043  23.7215
 20.0272  23.6749
 20.0503  23.6414
 20.0733  23.6737
 20.0963  23.6987
 20.1193  23.8319
 20.1423  23.882
 20.1653  23.8424
 20.1883  23.8065
 20.2112  23.8208
 20.2343  23.8466
 20.2573  23.8851
 20.2803  23.942
 20.3033  23.84
 20.3263  23.7175
 20.3493  23.7333
 20.3723  23.6013
 20.3953  23.6373
 20.4183  23.7475
 20.4413  23.8103
 20.4643  23.778
 20.4873  23.7016
 20.5102  23.7518
 20.5333  23.6916
 20.5563  23.7051
 20.5792  23.743
 20.6023  23.8032
 20.6253  23.7776
 20.6483  23.705
 20.6713  23.7765
 20.6943  23.9372
 20.7173  24.2123
 20.7403  24.3684
 20.7632  24.485
 20.7863  24.3014
 20.8093  24.0331
 20.8323  23.9042
 20.8553  23.8863
 20.8783  23.871
 20.9013  23.8965
 20.9243  23.9476
 20.9473  24.1043
 20.9703  24.2005
 20.9933  24.1528
 21.0163  23.8795
 21.0393  23.7775
 21.0622  23.7702
 21.0853  23.8842
 21.1083  23.829
 21.1313  23.8578
 21.1543  23.804
 21.1773  23.9356
 21.2003  23.9805
 21.2233  23.9472
 21.2462  23.9024
 21.2693  23.9064
 21.2923  23.9538
 21.3152  23.9767
 21.3383  24.0541
 21.3613  24.049
 21.3843  24.0181
 21.4073  23.9329
 21.4303  23.9104
 21.4533  23.9602
 21.4763  23.991
 21.4992  24.0056
 21.5223  23.9858
 21.5453  23.9933
 21.5683  24.0086
 21.5913  24.1182
 21.6142  24.0962
 21.6373  24.0392
 21.6603  24.073
 21.6833  24.1507
 21.7063  24.1337
 21.7293  24.1365
 21.7523  24.2304
 21.7753  24.1754
 21.7982  24.2056
 21.8213  24.2121
 21.8443  24.0886
 21.8672  24.1772
 21.8903  24.228
 21.9133  24.2325
 21.9363  24.1599
 21.9593  24.1458
 21.9823  24.1744
 22.0053  24.1534
 22.0283  24.2881
 22.0512  24.3181
 22.0743  24.2788
 22.0973  24.2528
 22.1203  24.3216
 22.1433  24.3072
 22.1663  24.3245
 22.1893  24.3324
 22.2123  24.3217
 22.2353  24.4034
 22.2583  24.4394
 22.2813  24.4459
 22.3043  24.4656
 22.3273  24.4542
 22.3502  24.4706
 22.3733  24.5092
 22.3963  24.4989
 22.4193  24.5576
 22.4423  24.7091
 22.4653  24.6868
 22.4883  24.6554
 22.5113  24.7607
 22.5343  24.8005
 22.5573  24.8288
 22.5803  24.8222
 22.6033  24.8268
 22.6263  24.9557
 22.6493  24.9977
 22.6723  25.0317
 22.6953  25.1151
 22.7183  25.1715
 22.7413  25.3132
 22.7643  25.3034
 22.7873  25.2121
 22.8103  25.2128
 22.8333  25.4001
 22.8563  25.4796
 22.8793  25.5618
 22.9022  25.6493
 22.9253  25.7867
 22.9483  25.8568
 22.9713  26.0639
 22.9943  26.3296