File: test-data-xrd/xrd-map-34-ID-E/Data_0022.chi
F:\20151113_APS_34IDE\\Brian\Particle1\OCV\Data_0022.tif
2-Theta Angle (Degrees)
Intensity
       2000
 0.01725  0.0000000E+00
 0.04025  0.0000000E+00
 0.06325  0.0000000E+00
 0.08625  0.0000000E+00
 0.10925  0.0000000E+00
 0.13225  0.0000000E+00
 0.15525  0.0000000E+00
 0.17825  0.0000000E+00
 0.20125  0.0000000E+00
 0.22425  0.0000000E+00
 0.24725  0.0000000E+00
 0.27025  0.0000000E+00
 0.29325  0.0000000E+00
 0.31625  0.0000000E+00
 0.33925  0.0000000E+00
 0.36225  0.0000000E+00
 0.38525  0.0000000E+00
 0.40825  0.0000000E+00
 0.43125  0.0000000E+00
 0.45425  0.0000000E+00
 0.47725  0.0000000E+00
 0.50025  0.0000000E+00
 0.52325  0.0000000E+00
 0.54625  0.0000000E+00
 0.56925  0.0000000E+00
 0.59225  0.0000000E+00
 0.61525  0.0000000E+00
 0.63825  0.0000000E+00
 0.66125  0.0000000E+00
 0.68425  0.0000000E+00
 0.70725  0.0000000E+00
 0.73025  0.0000000E+00
 0.75325  0.0000000E+00
 0.77625  0.0000000E+00
 0.79925  0.0000000E+00
 0.82225  0.0000000E+00
 0.84525  0.0000000E+00
 0.86825  0.0000000E+00
 0.89125  0.0000000E+00
 0.91425  0.0000000E+00
 0.93725  0.0000000E+00
 0.96025  0.0000000E+00
 0.98325  0.0000000E+00
 1.00625  0.0000000E+00
 1.02925  0.0000000E+00
 1.05225  0.0000000E+00
 1.07525  0.0000000E+00
 1.09825  0.0000000E+00
 1.12125  0.0000000E+00
 1.14425  0.0000000E+00
 1.16725  0.0000000E+00
 1.19025  0.0000000E+00
 1.21325  0.0000000E+00
 1.23625  0.0000000E+00
 1.25925  0.0000000E+00
 1.28225  0.0000000E+00
 1.30525  0.0000000E+00
 1.32825  0.0000000E+00
 1.35125  0.0000000E+00
 1.37425  0.0000000E+00
 1.39725  0.0000000E+00
 1.42025  0.0000000E+00
 1.44325  0.0000000E+00
 1.46625  0.0000000E+00
 1.48925  0.0000000E+00
 1.51225  0.0000000E+00
 1.53525  0.0000000E+00
 1.55825  0.0000000E+00
 1.58125  0.0000000E+00
 1.60425  0.0000000E+00
 1.62725  0.0000000E+00
 1.65025  0.0000000E+00
 1.67325  0.0000000E+00
 1.69625  0.0000000E+00
 1.71925  0.0000000E+00
 1.74225  0.0000000E+00
 1.76525  0.0000000E+00
 1.78825  0.0000000E+00
 1.81125  0.0000000E+00
 1.83425  0.0000000E+00
 1.85725  0.0000000E+00
 1.88025  0.0000000E+00
 1.90325  0.0000000E+00
 1.92625  0.0000000E+00
 1.94925  0.0000000E+00
 1.97225  0.0000000E+00
 1.99525  0.0000000E+00
 2.01825  0.0000000E+00
 2.04125  0.0000000E+00
 2.06425  0.0000000E+00
 2.08725  0.0000000E+00
 2.11025  0.0000000E+00
 2.13325  0.0000000E+00
 2.15625  0.0000000E+00
 2.17925  0.0000000E+00
 2.20225  0.0000000E+00
 2.22525  0.0000000E+00
 2.24825  0.0000000E+00
 2.27125  0.0000000E+00
 2.29425  0.0000000E+00
 2.31725  0.0000000E+00
 2.34025  0.0000000E+00
 2.36325  0.0000000E+00
 2.38625  0.0000000E+00
 2.40925  0.0000000E+00
 2.43225  0.0000000E+00
 2.45525  0.0000000E+00
 2.47825  0.0000000E+00
 2.50125  0.0000000E+00
 2.52425  0.0000000E+00
 2.54725  0.0000000E+00
 2.57025  0.0000000E+00
 2.59325  0.0000000E+00
 2.61625  0.0000000E+00
 2.63925  0.0000000E+00
 2.66225  0.0000000E+00
 2.68525  0.0000000E+00
 2.70825  0.0000000E+00
 2.73125  0.0000000E+00
 2.75425  0.0000000E+00
 2.77725  0.0000000E+00
 2.80025  0.0000000E+00
 2.82325  37.0101
 2.84625  34.5427
 2.86925  34.8323
 2.89225  35.09
 2.91525  35.0006
 2.93825  34.7206
 2.96125  35.1934
 2.98425  36.455
 3.00725  37.1356
 3.03025  36.3988
 3.05325  35.3267
 3.07625  35.0909
 3.09925  35.5911
 3.12225  36.2133
 3.14525  36.4673
 3.16825  35.9699
 3.19125  35.9611
 3.21425  36.2377
 3.23725  36.2048
 3.26025  36.2129
 3.28325  35.7299
 3.30625  35.7758
 3.32925  36.1479
 3.35225  36.0626
 3.37525  36.2416
 3.39825  35.8437
 3.42125  35.2714
 3.44425  34.8874
 3.46725  34.604
 3.49025  34.1922
 3.51325  34.0411
 3.53625  34.2484
 3.55925  33.9785
 3.58225  33.2325
 3.60525  33.0532
 3.62825  33.2628
 3.65125  33.3291
 3.67425  33.3723
 3.69725  33.2547
 3.72025  32.6793
 3.74325  32.7495
 3.76625  33.0179
 3.78925  33.0209
 3.81225  32.8613
 3.83525  33.067
 3.85825  33.1965
 3.88125  33.0942
 3.90425  32.7242
 3.92725  32.8949
 3.95025  32.9969
 3.97325  33.062
 3.99625  33.4133
 4.01925  33.4407
 4.04225  32.9159
 4.06525  32.7853
 4.08825  32.5052
 4.11125  32.5695
 4.13425  32.6565
 4.15725  32.2408
 4.18025  31.8953
 4.20325  32.2832
 4.22625  32.4946
 4.24925  32.3209
 4.27225  32.4745
 4.29525  32.3905
 4.31825  32.1708
 4.34125  32.2986
 4.36425  32.4475
 4.38725  32.382
 4.41025  32.4119
 4.43325  32.2878
 4.45625  32.2388
 4.47925  32.6267
 4.50225  32.9184
 4.52525  33.21
 4.54825  33.0196
 4.57125  32.8515
 4.59425  32.8678
 4.61725  32.9401
 4.64025  32.755
 4.66325  32.9156
 4.68625  33.0353
 4.70925  33.333
 4.73225  33.3887
 4.75525  33.0578
 4.77825  32.7524
 4.80125  32.5903
 4.82425  32.6289
 4.84725  32.8048
 4.87025  32.8677
 4.89325  32.9775
 4.91625  33.0992
 4.93925  32.9953
 4.96225  32.8559
 4.98525  33.1202
 5.00825  33.5399
 5.03125  33.7105
 5.05425  33.6912
 5.07725  33.7206
 5.10025  33.4758
 5.12325  33.5989
 5.14625  34.8781
 5.16925  35.1665
 5.19225  34.1131
 5.21525  34.034
 5.23825  34.2526
 5.26125  34.195
 5.28425  34.2216
 5.30725  34.3278
 5.33025  34.4982
 5.35325  34.5899
 5.37625  34.7831
 5.39925  35.1048
 5.42225  35.0272
 5.44525  35.005
 5.46825  35.1725
 5.49125  35.0263
 5.51425  34.9689
 5.53725  35.0502
 5.56025  34.9892
 5.58325  35.1975
 5.60625  35.3024
 5.62925  35.4151
 5.65225  35.3166
 5.67525  35.2741
 5.69825  35.3319
 5.72125  35.5417
 5.74425  35.8405
 5.76725  35.9456
 5.79025  35.9841
 5.81325  36.1126
 5.83625  36.338
 5.85925  36.4942
 5.88225  36.7714
 5.90525  37.4065
 5.92825  38.7536
 5.95125  42.1988
 5.97425  52.6068
 5.99725  60.8422
 6.02025  55.008
 6.04325  44.4133
 6.06625  39.6094
 6.08925  37.9815
 6.11225  37.636
 6.13525  37.4539
 6.15825  37.2826
 6.18125  37.4067
 6.20425  37.2779
 6.22725  37.3889
 6.25025  37.6324
 6.27325  37.9883
 6.29625  38.1319
 6.31925  38.3062
 6.34225  38.6385
 6.36525  38.6665
 6.38825  38.6938
 6.41125  38.7916
 6.43425  38.9045
 6.45725  38.9527
 6.48025  39.0774
 6.50325  39.234
 6.52625  39.522
 6.54925  39.6108
 6.57225  39.6967
 6.59525  39.6576
 6.61825  39.8782
 6.64125  40.2136
 6.66425  40.5963
 6.68725  40.7288
 6.71025  40.6789
 6.73325  40.8658
 6.75625  41.0703
 6.77925  41.338
 6.80225  41.6233
 6.82525  41.731
 6.84825  41.9236
 6.87125  42.3297
 6.89425  42.3735
 6.91725  42.3053
 6.94025  42.4363
 6.96325  42.4799
 6.98625  42.361
 7.00925  42.3874
 7.03225  42.7265
 7.05525  43.068
 7.07825  43.0747
 7.10125  43.1062
 7.12425  43.3384
 7.14725  43.5929
 7.17025  43.654
 7.19325  43.7237
 7.21625  43.8306
 7.23925  43.9511
 7.26225  44.0373
 7.28525  44.079
 7.30825  44.0059
 7.33125  44.0557
 7.35425  44.1231
 7.37725  44.3004
 7.40025  44.4128
 7.42325  44.637
 7.44625  44.6859
 7.46925  44.7089
 7.49225  44.9169
 7.51525  44.8922
 7.53825  44.7384
 7.56125  44.504
 7.58425  44.5664
 7.60725  44.6094
 7.63025  44.7924
 7.65325  44.7855
 7.67625  44.6907
 7.69925  44.6061
 7.72225  44.6915
 7.74525  44.6574
 7.76825  44.6011
 7.79125  44.5794
 7.81425  44.5478
 7.83725  44.7067
 7.86025  44.7165
 7.88325  44.4688
 7.90625  44.3185
 7.92925  44.3774
 7.95225  44.3077
 7.97525  44.2118
 7.99825  44.1826
 8.02125  44.2298
 8.04425  43.9366
 8.06725  43.632
 8.09025  43.6131
 8.11325  43.6246
 8.13625  43.3046
 8.15925  42.891
 8.18225  42.4969
 8.20525  42.2896
 8.22825  42.1011
 8.25125  41.8558
 8.27425  41.5156
 8.29725  41.1674
 8.32025  40.8811
 8.34325  40.5694
 8.36625  40.4442
 8.38925  40.272
 8.41225  40.0193
 8.43525  39.5684
 8.45825  39.2593
 8.48125  38.8436
 8.50425  38.3993
 8.52725  38.0305
 8.55025  37.6752
 8.57325  37.2711
 8.59625  36.8164
 8.61925  36.4956
 8.64225  36.2368
 8.66525  35.9106
 8.68825  35.5889
 8.71125  35.3022
 8.73425  34.7966
 8.75725  34.3584
 8.78025  34.0598
 8.80325  33.7262
 8.82625  33.4382
 8.84925  33.2187
 8.87225  33.0026
 8.89525  32.7124
 8.91825  32.3206
 8.94125  32.0541
 8.96425  31.7591
 8.98725  31.4111
 9.01025  31.0571
 9.03325  30.7045
 9.05625  30.413
 9.07925  30.2743
 9.10225  29.9935
 9.12525  29.5477
 9.14825  29.2711
 9.17125  29.1727
 9.19425  29.1086
 9.21725  29.0271
 9.24025  28.7204
 9.26325  28.378
 9.28625  28.0245
 9.30925  27.8209
 9.33225  27.67
 9.35525  27.4043
 9.37825  27.2986
 9.40125  27.149
 9.42425  27.1125
 9.44725  27.0433
 9.47025  26.9329
 9.49325  26.832
 9.51625  26.5796
 9.53925  26.2769
 9.56225  26.117
 9.58525  25.9785
 9.60825  25.9729
 9.63125  25.8155
 9.65425  25.5942
 9.67725  25.4524
 9.70025  25.4686
 9.72325  25.3866
 9.74625  25.3721
 9.76925  25.3099
 9.79225  25.1655
 9.81525  25.0235
 9.83825  24.9129
 9.86125  24.8432
 9.88425  24.7065
 9.90725  24.8267
 9.93025  24.733
 9.95325  24.5846
 9.97625  24.5376
 9.99925  24.5442
 10.0222  24.3741
 10.0453  24.2432
 10.0683  24.197
 10.0913  24.1259
 10.1143  24.1175
 10.1373  24.1422
 10.1603  24.1208
 10.1832  24.0191
 10.2063  24.0033
 10.2293  23.9522
 10.2523  23.8472
 10.2752  23.845
 10.2982  23.862
 10.3213  23.7234
 10.3443  23.5106
 10.3673  23.4653
 10.3902  23.5592
 10.4133  23.6087
 10.4363  23.5249
 10.4593  23.3782
 10.4823  23.2551
 10.5053  23.2032
 10.5283  23.2458
 10.5512  23.2311
 10.5742  23.1473
 10.5973  23.1275
 10.6203  23.2007
 10.6433  23.3421
 10.6662  23.4074
 10.6893  23.2685
 10.7123  23.2064
 10.7353  22.9918
 10.7583  22.9402
 10.7813  22.9654
 10.8043  22.95
 10.8272  22.9465
 10.8503  22.9692
 10.8733  22.8996
 10.8963  22.9229
 10.9192  23.0087
 10.9422  22.9089
 10.9653  22.8065
 10.9883  22.6939
 11.0113  22.6883
 11.0343  22.7312
 11.0573  22.7198
 11.0803  22.7635
 11.1033  22.7931
 11.1263  22.6837
 11.1493  22.5671
 11.1723  22.6092
 11.1953  22.6095
 11.2182  22.5562
 11.2413  22.5197
 11.2643  22.5418
 11.2873  22.5351
 11.3102  22.671
 11.3333  22.8212
 11.3563  22.7848
 11.3793  22.7686
 11.4023  22.8587
 11.4253  22.8851
 11.4483  22.8214
 11.4713  22.7026
 11.4942  22.6357
 11.5173  22.6881
 11.5403  23.1679
 11.5633  24.1149
 11.5862  24.9824
 11.6093  24.9982
 11.6323  23.7496
 11.6553  23.1205
 11.6783  22.7288
 11.7013  22.5202
 11.7243  22.4343
 11.7473  22.457
 11.7703  22.4093
 11.7933  22.3495
 11.8163  22.4303
 11.8393  22.4611
 11.8622  22.4169
 11.8853  22.3297
 11.9083  22.4219
 11.9313  22.5811
 11.9543  22.5925
 11.9773  22.62
 12.0003  22.6709
 12.0233  22.6938
 12.0463  22.8296
 12.0693  23.1421
 12.0923  23.7189
 12.1153  23.8825
 12.1382  23.5794
 12.1613  23.0864
 12.1843  22.8151
 12.2073  22.6705
 12.2302  22.4848
 12.2533  22.4829
 12.2763  22.5269
 12.2993  22.5171
 12.3223  22.4727
 12.3453  22.5385
 12.3683  22.6001
 12.3913  22.6181
 12.4142  22.5829
 12.4373  22.5743
 12.4603  22.5672
 12.4833  22.5759
 12.5062  22.6529
 12.5292  22.836
 12.5523  22.9679
 12.5753  22.8773
 12.5983  22.7471
 12.6212  22.7067
 12.6443  22.7537
 12.6673  22.7621
 12.6903  22.7632
 12.7133  22.8387
 12.7363  22.963
 12.7593  23.0787
 12.7822  23.1279
 12.8052  23.0549
 12.8283  23.0812
 12.8513  23.2198
 12.8742  23.306
 12.8972  23.3826
 12.9203  23.4509
 12.9433  23.5692
 12.9663  23.6642
 12.9893  23.7237
 13.0123  23.755
 13.0353  24.0479
 13.0582  24.3467
 13.0813  24.4131
 13.1043  24.6896
 13.1273  25.0371
 13.1502  25.1662
 13.1732  25.3815
 13.1963  25.5862
 13.2193  25.8971
 13.2423  26.3209
 13.2652  26.5519
 13.2883  26.7618
 13.3113  27.0262
 13.3343  27.2559
 13.3573  27.6388
 13.3803  27.9178
 13.4033  28.1858
 13.4262  28.3099
 13.4492  28.4985
 13.4723  28.7209
 13.4953  29.147
 13.5183  29.4604
 13.5412  29.7214
 13.5643  29.8084
 13.5873  29.8279
 13.6103  29.796
 13.6333  29.6825
 13.6563  29.6503
 13.6793  29.7293
 13.7022  29.6553
 13.7253  29.5553
 13.7483  29.4565
 13.7713  29.2853
 13.7942  29.141
 13.8172  29.045
 13.8403  29.0179
 13.8633  28.9948
 13.8863  28.8829
 13.9093  28.9152
 13.9323  29.11
 13.9553  29.1734
 13.9783  28.8433
 14.0013  28.3138
 14.0243  27.8952
 14.0473  27.5454
 14.0703  27.4228
 14.0932  27.347
 14.1163  27.2436
 14.1393  27.158
 14.1623  27.0373
 14.1852  26.9489
 14.2083  26.7811
 14.2313  26.6749
 14.2543  26.6041
 14.2773  26.4389
 14.3003  26.3223
 14.3233  26.1483
 14.3463  26.0362
 14.3692  26.0149
 14.3923  25.9841
 14.4153  25.8767
 14.4383  25.8205
 14.4612  25.768
 14.4843  25.6342
 14.5073  25.5701
 14.5303  25.4858
 14.5533  25.4817
 14.5763  25.4217
 14.5993  25.3737
 14.6223  25.4507
 14.6453  25.4544
 14.6683  25.3884
 14.6913  25.3487
 14.7143  25.2708
 14.7372  25.1619
 14.7603  25.1562
 14.7833  25.1581
 14.8063  25.1596
 14.8293  24.9521
 14.8523  24.8733
 14.8753  24.839
 14.8983  24.8687
 14.9213  24.8211
 14.9443  24.7142
 14.9673  24.7906
 14.9903  24.8736
 15.0132  24.9958
 15.0363  25.0012
 15.0593  24.9351
 15.0823  24.9162
 15.1052  24.867
 15.1283  24.8566
 15.1513  25.0772
 15.1743  25.4702
 15.1973  25.6924
 15.2203  25.5345
 15.2433  25.1911
 15.2663  24.9378
 15.2892  24.7796
 15.3123  24.689
 15.3353  24.6212
 15.3583  24.6249
 15.3812  24.6851
 15.4043  24.5956
 15.4273  24.5353
 15.4503  24.4789
 15.4733  24.3873
 15.4963  24.4844
 15.5193  24.4685
 15.5423  24.4183
 15.5653  24.4998
 15.5883  24.5188
 15.6113  24.4476
 15.6343  24.428
 15.6572  24.621
 15.6803  24.6152
 15.7033  24.6333
 15.7263  24.6889
 15.7492  24.6906
 15.7723  24.7631
 15.7953  24.7685
 15.8183  24.6978
 15.8413  24.6028
 15.8643  24.5515
 15.8873  24.6669
 15.9103  24.7403
 15.9332  24.7251
 15.9563  24.603
 15.9793  24.7265
 16.0023  24.8093
 16.0253  24.783
 16.0482  24.7796
 16.0713  24.7228
 16.0943  24.6505
 16.1172  24.6463
 16.1403  24.7724
 16.1633  24.8406
 16.1863  24.8643
 16.2093  25.0105
 16.2323  25.1151
 16.2553  25.1732
 16.2783  25.2047
 16.3012  25.0547
 16.3243  24.8241
 16.3472  24.7085
 16.3703  24.6831
 16.3933  24.7277
 16.4163  24.7694
 16.4393  24.7895
 16.4623  24.7605
 16.4853  24.6908
 16.5083  24.7098
 16.5312  24.7363
 16.5543  24.7392
 16.5773  24.6059
 16.6002  24.4968
 16.6233  24.4354
 16.6463  24.3925
 16.6693  24.4759
 16.6923  24.5422
 16.7153  24.527
 16.7383  24.6349
 16.7613  24.8359
 16.7843  25.9512
 16.8073  24.7597
 16.8303  24.5409
 16.8533  24.491
 16.8763  24.429
 16.8992  24.3873
 16.9223  24.3303
 16.9453  24.2876
 16.9683  24.2755
 16.9913  24.3335
 17.0143  24.3839
 17.0373  24.3313
 17.0603  24.2389
 17.0832  24.245
 17.1063  24.3387
 17.1293  24.2477
 17.1522  24.1536
 17.1753  24.1842
 17.1983  24.3159
 17.2213  24.2516
 17.2443  24.1353
 17.2673  24.1419
 17.2903  24.1283
 17.3133  24.1627
 17.3362  24.1826
 17.3593  24.0673
 17.3823  24.0361
 17.4053  23.9948
 17.4283  24.017
 17.4513  23.9495
 17.4743  23.8918
 17.4973  23.889
 17.5203  23.9046
 17.5433  23.927
 17.5663  23.8695
 17.5893  23.8126
 17.6123  23.8635
 17.6352  23.8873
 17.6583  23.8127
 17.6813  23.7628
 17.7042  23.7637
 17.7273  23.6409
 17.7503  23.6102
 17.7733  23.7674
 17.7963  23.8917
 17.8193  23.7968
 17.8423  23.8002
 17.8653  23.7397
 17.8882  23.7468
 17.9113  23.7186
 17.9343  23.7838
 17.9573  23.8276
 17.9803  23.9033
 18.0033  24.1281
 18.0263  24.3981
 18.0493  24.7893
 18.0723  24.855
 18.0953  24.8087
 18.1183  24.6408
 18.1413  24.2391
 18.1643  23.8848
 18.1872  23.6955
 18.2103  23.6282
 18.2333  23.6297
 18.2563  23.6404
 18.2793  23.5817
 18.3023  23.6538
 18.3253  23.6499
 18.3483  23.605
 18.3712  23.5754
 18.3943  23.5304
 18.4173  23.5673
 18.4402  23.5984
 18.4633  23.6093
 18.4863  23.6449
 18.5093  23.6645
 18.5323  23.524
 18.5553  23.5794
 18.5783  23.6371
 18.6013  23.6507
 18.6242  23.6395
 18.6473  23.5934
 18.6703  23.6097
 18.6933  23.6217
 18.7163  23.5757
 18.7392  23.4982
 18.7623  23.4944
 18.7853  23.4655
 18.8083  23.4612
 18.8313  23.4332
 18.8543  23.3982
 18.8773  23.35
 18.9003  23.3847
 18.9232  23.4995
 18.9463  23.6781
 18.9693  23.6019
 18.9922  23.4715
 19.0153  23.4354
 19.0383  23.4581
 19.0613  23.5162
 19.0843  23.5168
 19.1073  23.4246
 19.1303  23.5256
 19.1533  23.5907
 19.1762  23.5972
 19.1993  23.5192
 19.2223  23.4782
 19.2453  23.4702
 19.2683  23.5223
 19.2913  23.5376
 19.3143  23.6088
 19.3373  23.5487
 19.3603  23.5169
 19.3833  23.5984
 19.4062  23.6886
 19.4293  23.6791
 19.4523  23.6554
 19.4752  23.5692
 19.4983  23.5394
 19.5213  23.57
 19.5443  23.6502
 19.5673  23.6096
 19.5903  23.5976
 19.6133  23.704
 19.6363  23.7106
 19.6593  23.8533
 19.6823  24.1764
 19.7053  24.5262
 19.7283  24.5924
 19.7513  24.3635
 19.7742  24.1059
 19.7973  23.9436
 19.8203  24.0002
 19.8433  24.1863
 19.8663  24.2247
 19.8893  24.0488
 19.9123  23.9369
 19.9353  23.7797
 19.9582  23.7077
 19.9813  23.65
 20.0043  23.6535
 20.0272  23.6868
 20.0503  23.69
 20.0733  23.6387
 20.0963  23.685
 20.1193  23.7301
 20.1423  23.7069
 20.1653  23.5937
 20.1883  23.5435
 20.2112  23.5396
 20.2343  23.6564
 20.2573  23.6044
 20.2803  23.6446
 20.3033  23.7129
 20.3263  23.63
 20.3493  23.6213
 20.3723  23.645
 20.3953  23.5942
 20.4183  23.7013
 20.4413  23.6823
 20.4643  23.6433
 20.4873  23.6426
 20.5102  23.654
 20.5333  23.6204
 20.5563  23.6191
 20.5792  23.6704
 20.6023  23.8056
 20.6253  23.8704
 20.6483  23.7914
 20.6713  23.7962
 20.6943  23.9047
 20.7173  23.8953
 20.7403  23.9604
 20.7632  24.0935
 20.7863  24.1031
 20.8093  23.9673
 20.8323  23.8041
 20.8553  23.7591
 20.8783  23.76
 20.9013  23.8393
 20.9243  23.8662
 20.9473  23.9717
 20.9703  23.8717
 20.9933  23.8171
 21.0163  23.6884
 21.0393  23.7687
 21.0622  23.8273
 21.0853  23.8624
 21.1083  23.8175
 21.1313  23.7583
 21.1543  23.6116
 21.1773  23.7178
 21.2003  23.8084
 21.2233  23.7734
 21.2462  23.8516
 21.2693  23.9184
 21.2923  23.9462
 21.3152  23.8497
 21.3383  23.7874
 21.3613  23.8495
 21.3843  23.9077
 21.4073  23.8364
 21.4303  23.8178
 21.4533  23.8197
 21.4763  23.8903
 21.4992  23.9585
 21.5223  23.9761
 21.5453  23.9599
 21.5683  23.8737
 21.5913  23.8258
 21.6142  23.949
 21.6373  23.9746
 21.6603  23.9793
 21.6833  24.0117
 21.7063  24.0283
 21.7293  24.1096
 21.7523  24.1571
 21.7753  24.1446
 21.7982  24.1555
 21.8213  24.1884
 21.8443  24.1292
 21.8672  24.1965
 21.8903  24.1121
 21.9133  24.045
 21.9363  24.0407
 21.9593  24.0941
 21.9823  24.058
 22.0053  24.0854
 22.0283  24.1544
 22.0512  24.1865
 22.0743  24.2126
 22.0973  24.2596
 22.1203  24.3014
 22.1433  24.3035
 22.1663  24.2883
 22.1893  24.2466
 22.2123  24.2913
 22.2353  24.3692
 22.2583  24.3909
 22.2813  24.4114
 22.3043  24.5048
 22.3273  24.5694
 22.3502  24.5462
 22.3733  24.4864
 22.3963  24.5949
 22.4193  24.6469
 22.4423  24.6233
 22.4653  24.603
 22.4883  24.4648
 22.5113  24.5014
 22.5343  24.6114
 22.5573  24.626
 22.5803  24.7258
 22.6033  24.8218
 22.6263  24.9332
 22.6493  24.9183
 22.6723  24.9476
 22.6953  25.0545
 22.7183  25.0824
 22.7413  25.0435
 22.7643  25.1779
 22.7873  25.2495
 22.8103  25.3477
 22.8333  25.4415
 22.8563  25.4971
 22.8793  25.6496
 22.9022  25.6808
 22.9253  25.875
 22.9483  25.8713
 22.9713  26.0171
 22.9943  26.14