File: test-data-xrd/xrd-map-34-ID-E/Data_0031.chi
F:\20151113_APS_34IDE\\Brian\Particle1\OCV\Data_0031.tif
2-Theta Angle (Degrees)
Intensity
       2000
 0.01725  0.0000000E+00
 0.04025  0.0000000E+00
 0.06325  0.0000000E+00
 0.08625  0.0000000E+00
 0.10925  0.0000000E+00
 0.13225  0.0000000E+00
 0.15525  0.0000000E+00
 0.17825  0.0000000E+00
 0.20125  0.0000000E+00
 0.22425  0.0000000E+00
 0.24725  0.0000000E+00
 0.27025  0.0000000E+00
 0.29325  0.0000000E+00
 0.31625  0.0000000E+00
 0.33925  0.0000000E+00
 0.36225  0.0000000E+00
 0.38525  0.0000000E+00
 0.40825  0.0000000E+00
 0.43125  0.0000000E+00
 0.45425  0.0000000E+00
 0.47725  0.0000000E+00
 0.50025  0.0000000E+00
 0.52325  0.0000000E+00
 0.54625  0.0000000E+00
 0.56925  0.0000000E+00
 0.59225  0.0000000E+00
 0.61525  0.0000000E+00
 0.63825  0.0000000E+00
 0.66125  0.0000000E+00
 0.68425  0.0000000E+00
 0.70725  0.0000000E+00
 0.73025  0.0000000E+00
 0.75325  0.0000000E+00
 0.77625  0.0000000E+00
 0.79925  0.0000000E+00
 0.82225  0.0000000E+00
 0.84525  0.0000000E+00
 0.86825  0.0000000E+00
 0.89125  0.0000000E+00
 0.91425  0.0000000E+00
 0.93725  0.0000000E+00
 0.96025  0.0000000E+00
 0.98325  0.0000000E+00
 1.00625  0.0000000E+00
 1.02925  0.0000000E+00
 1.05225  0.0000000E+00
 1.07525  0.0000000E+00
 1.09825  0.0000000E+00
 1.12125  0.0000000E+00
 1.14425  0.0000000E+00
 1.16725  0.0000000E+00
 1.19025  0.0000000E+00
 1.21325  0.0000000E+00
 1.23625  0.0000000E+00
 1.25925  0.0000000E+00
 1.28225  0.0000000E+00
 1.30525  0.0000000E+00
 1.32825  0.0000000E+00
 1.35125  0.0000000E+00
 1.37425  0.0000000E+00
 1.39725  0.0000000E+00
 1.42025  0.0000000E+00
 1.44325  0.0000000E+00
 1.46625  0.0000000E+00
 1.48925  0.0000000E+00
 1.51225  0.0000000E+00
 1.53525  0.0000000E+00
 1.55825  0.0000000E+00
 1.58125  0.0000000E+00
 1.60425  0.0000000E+00
 1.62725  0.0000000E+00
 1.65025  0.0000000E+00
 1.67325  0.0000000E+00
 1.69625  0.0000000E+00
 1.71925  0.0000000E+00
 1.74225  0.0000000E+00
 1.76525  0.0000000E+00
 1.78825  0.0000000E+00
 1.81125  0.0000000E+00
 1.83425  0.0000000E+00
 1.85725  0.0000000E+00
 1.88025  0.0000000E+00
 1.90325  0.0000000E+00
 1.92625  0.0000000E+00
 1.94925  0.0000000E+00
 1.97225  0.0000000E+00
 1.99525  0.0000000E+00
 2.01825  0.0000000E+00
 2.04125  0.0000000E+00
 2.06425  0.0000000E+00
 2.08725  0.0000000E+00
 2.11025  0.0000000E+00
 2.13325  0.0000000E+00
 2.15625  0.0000000E+00
 2.17925  0.0000000E+00
 2.20225  0.0000000E+00
 2.22525  0.0000000E+00
 2.24825  0.0000000E+00
 2.27125  0.0000000E+00
 2.29425  0.0000000E+00
 2.31725  0.0000000E+00
 2.34025  0.0000000E+00
 2.36325  0.0000000E+00
 2.38625  0.0000000E+00
 2.40925  0.0000000E+00
 2.43225  0.0000000E+00
 2.45525  0.0000000E+00
 2.47825  0.0000000E+00
 2.50125  0.0000000E+00
 2.52425  0.0000000E+00
 2.54725  0.0000000E+00
 2.57025  0.0000000E+00
 2.59325  0.0000000E+00
 2.61625  0.0000000E+00
 2.63925  0.0000000E+00
 2.66225  0.0000000E+00
 2.68525  0.0000000E+00
 2.70825  0.0000000E+00
 2.73125  0.0000000E+00
 2.75425  0.0000000E+00
 2.77725  0.0000000E+00
 2.80025  0.0000000E+00
 2.82325  35.1587
 2.84625  35.5161
 2.86925  35.4511
 2.89225  35.4157
 2.91525  35.2399
 2.93825  34.9372
 2.96125  35.3442
 2.98425  35.6336
 3.00725  36.4836
 3.03025  37.7891
 3.05325  37.8562
 3.07625  36.3949
 3.09925  35.3713
 3.12225  34.2477
 3.14525  34.0791
 3.16825  34.7998
 3.19125  35.6172
 3.21425  36.0402
 3.23725  35.9642
 3.26025  35.9958
 3.28325  35.8196
 3.30625  35.7535
 3.32925  35.4712
 3.35225  35.1967
 3.37525  34.976
 3.39825  34.4549
 3.42125  34.6431
 3.44425  34.9426
 3.46725  34.7419
 3.49025  34.6054
 3.51325  34.7508
 3.53625  34.6128
 3.55925  34.6334
 3.58225  34.5511
 3.60525  34.041
 3.62825  33.5185
 3.65125  33.3262
 3.67425  33.5831
 3.69725  33.5446
 3.72025  33.3622
 3.74325  33.5619
 3.76625  33.4328
 3.78925  33.1101
 3.81225  32.7151
 3.83525  32.8056
 3.85825  32.99
 3.88125  32.925
 3.90425  32.4276
 3.92725  32.2277
 3.95025  32.7684
 3.97325  32.9036
 3.99625  32.7
 4.01925  32.5387
 4.04225  32.599
 4.06525  32.5869
 4.08825  32.6882
 4.11125  32.8949
 4.13425  33.1615
 4.15725  33.123
 4.18025  32.6873
 4.20325  32.5936
 4.22625  32.8063
 4.24925  32.6969
 4.27225  32.5731
 4.29525  32.5859
 4.31825  32.8306
 4.34125  32.989
 4.36425  33.1781
 4.38725  33.0975
 4.41025  33.1355
 4.43325  33.2455
 4.45625  33.2687
 4.47925  33.2359
 4.50225  33.4579
 4.52525  33.7837
 4.54825  33.6968
 4.57125  33.3669
 4.59425  33.3518
 4.61725  33.2878
 4.64025  33.3636
 4.66325  33.5026
 4.68625  33.2241
 4.70925  32.9956
 4.73225  32.7654
 4.75525  32.7838
 4.77825  32.8253
 4.80125  32.982
 4.82425  33.0651
 4.84725  33.1197
 4.87025  33.248
 4.89325  33.2726
 4.91625  33.3855
 4.93925  33.4891
 4.96225  33.3751
 4.98525  33.3511
 5.00825  33.5417
 5.03125  33.6187
 5.05425  33.4603
 5.07725  33.6883
 5.10025  33.9384
 5.12325  33.9189
 5.14625  34.0508
 5.16925  34.4136
 5.19225  34.6872
 5.21525  34.6555
 5.23825  34.5326
 5.26125  34.4935
 5.28425  34.5023
 5.30725  34.6483
 5.33025  34.7434
 5.35325  34.8595
 5.37625  34.9774
 5.39925  35.1231
 5.42225  35.3141
 5.44525  35.0679
 5.46825  34.9099
 5.49125  34.9694
 5.51425  35.2219
 5.53725  35.5096
 5.56025  35.4036
 5.58325  35.3655
 5.60625  35.6315
 5.62925  35.5158
 5.65225  35.4534
 5.67525  35.6547
 5.69825  35.9059
 5.72125  36.0863
 5.74425  36.1698
 5.76725  36.2307
 5.79025  36.2997
 5.81325  36.5172
 5.83625  36.7895
 5.85925  37.1528
 5.88225  37.8131
 5.90525  38.6646
 5.92825  43.698
 5.95125  53.4296
 5.97425  61.253
 5.99725  71.9692
 6.02025  57.8647
 6.04325  47.3039
 6.06625  39.2405
 6.08925  38.1201
 6.11225  37.8499
 6.13525  37.5914
 6.15825  37.4921
 6.18125  37.7787
 6.20425  37.9261
 6.22725  37.8289
 6.25025  37.9181
 6.27325  38.1626
 6.29625  38.3105
 6.31925  38.2699
 6.34225  38.4474
 6.36525  38.5607
 6.38825  38.748
 6.41125  38.8866
 6.43425  39.0061
 6.45725  39.267
 6.48025  39.4663
 6.50325  39.7543
 6.52625  40.2165
 6.54925  40.2512
 6.57225  40.0718
 6.59525  40.1658
 6.61825  40.3827
 6.64125  40.5661
 6.66425  40.7368
 6.68725  40.7969
 6.71025  40.9028
 6.73325  41.2119
 6.75625  41.4504
 6.77925  41.5169
 6.80225  41.5217
 6.82525  41.7121
 6.84825  41.8498
 6.87125  41.9192
 6.89425  42.0507
 6.91725  42.2029
 6.94025  42.3807
 6.96325  42.3706
 6.98625  42.4477
 7.00925  42.566
 7.03225  42.9014
 7.05525  43.2216
 7.07825  43.2753
 7.10125  43.2197
 7.12425  43.2642
 7.14725  43.4659
 7.17025  43.5799
 7.19325  43.9414
 7.21625  44.1696
 7.23925  44.2583
 7.26225  44.2282
 7.28525  44.3196
 7.30825  44.452
 7.33125  44.4732
 7.35425  44.4317
 7.37725  44.5209
 7.40025  44.5303
 7.42325  44.6008
 7.44625  44.4802
 7.46925  44.4591
 7.49225  44.6391
 7.51525  44.7801
 7.53825  44.8417
 7.56125  44.9429
 7.58425  44.9647
 7.60725  44.8497
 7.63025  44.6815
 7.65325  44.3863
 7.67625  44.3247
 7.69925  44.4689
 7.72225  44.5704
 7.74525  44.6827
 7.76825  44.7317
 7.79125  44.5752
 7.81425  44.6829
 7.83725  44.7378
 7.86025  44.6545
 7.88325  44.5785
 7.90625  44.5735
 7.92925  44.6176
 7.95225  44.3771
 7.97525  44.0268
 7.99825  43.9687
 8.02125  43.8168
 8.04425  43.7337
 8.06725  43.583
 8.09025  43.4866
 8.11325  43.2122
 8.13625  42.9981
 8.15925  42.8722
 8.18225  42.6651
 8.20525  42.2999
 8.22825  41.9607
 8.25125  41.7154
 8.27425  41.4482
 8.29725  41.1847
 8.32025  40.9536
 8.34325  40.7137
 8.36625  40.4207
 8.38925  39.986
 8.41225  39.7188
 8.43525  39.324
 8.45825  38.9747
 8.48125  38.668
 8.50425  38.455
 8.52725  38.1461
 8.55025  37.754
 8.57325  37.3272
 8.59625  37.0239
 8.61925  36.6445
 8.64225  36.1576
 8.66525  35.7472
 8.68825  35.4446
 8.71125  34.9976
 8.73425  34.6585
 8.75725  34.3343
 8.78025  34.1575
 8.80325  33.9059
 8.82625  33.6272
 8.84925  33.2457
 8.87225  32.8291
 8.89525  32.4112
 8.91825  32.0249
 8.94125  31.7158
 8.96425  31.5231
 8.98725  31.2808
 9.01025  30.9958
 9.03325  30.7282
 9.05625  30.401
 9.07925  30.1182
 9.10225  29.9581
 9.12525  29.6471
 9.14825  29.399
 9.17125  29.0161
 9.19425  28.7022
 9.21725  28.58
 9.24025  28.4962
 9.26325  28.2916
 9.28625  28.108
 9.30925  27.8753
 9.33225  27.6965
 9.35525  27.5288
 9.37825  27.3278
 9.40125  27.0658
 9.42425  26.8213
 9.44725  26.62
 9.47025  26.65
 9.49325  26.57
 9.51625  26.2993
 9.53925  26.2088
 9.56225  26.0563
 9.58525  25.8939
 9.60825  25.8935
 9.63125  25.8951
 9.65425  25.7227
 9.67725  25.5696
 9.70025  25.3891
 9.72325  25.3314
 9.74625  25.3715
 9.76925  25.4405
 9.79225  25.36
 9.81525  25.0731
 9.83825  24.7902
 9.86125  24.6702
 9.88425  24.6126
 9.90725  24.6564
 9.93025  24.6973
 9.95325  24.5643
 9.97625  24.5582
 9.99925  24.423
 10.0222  24.1956
 10.0453  24.2244
 10.0683  24.3305
 10.0913  24.3518
 10.1143  24.2939
 10.1373  24.1029
 10.1603  24.0519
 10.1832  24.1227
 10.2063  24.0625
 10.2293  23.983
 10.2523  23.81
 10.2752  23.7362
 10.2982  23.7139
 10.3213  23.7453
 10.3443  23.6526
 10.3673  23.542
 10.3902  23.5514
 10.4133  23.4782
 10.4363  23.4106
 10.4593  23.3861
 10.4823  23.3461
 10.5053  23.3352
 10.5283  23.2329
 10.5512  23.2402
 10.5742  23.2784
 10.5973  23.1781
 10.6203  23.1591
 10.6433  23.1618
 10.6662  23.1368
 10.6893  23.0827
 10.7123  23.1214
 10.7353  23.0775
 10.7583  22.9751
 10.7813  23.014
 10.8043  22.9512
 10.8272  22.7863
 10.8503  22.6918
 10.8733  22.7718
 10.8963  22.778
 10.9192  22.7671
 10.9422  22.7041
 10.9653  22.6235
 10.9883  22.6345
 11.0113  22.5224
 11.0343  22.5579
 11.0573  22.5475
 11.0803  22.664
 11.1033  22.6406
 11.1263  22.5905
 11.1493  22.565
 11.1723  22.5736
 11.1953  22.5428
 11.2182  22.5149
 11.2413  22.4799
 11.2643  22.512
 11.2873  22.4472
 11.3102  22.4072
 11.3333  22.4698
 11.3563  22.408
 11.3793  22.4579
 11.4023  22.6647
 11.4253  22.6962
 11.4483  22.6464
 11.4713  22.6938
 11.4942  22.7629
 11.5173  22.9928
 11.5403  23.5485
 11.5633  24.619
 11.5862  25.6761
 11.6093  25.742
 11.6323  24.8836
 11.6553  23.7155
 11.6783  23.006
 11.7013  22.6394
 11.7243  22.587
 11.7473  22.5386
 11.7703  22.5145
 11.7933  22.5309
 11.8163  22.6268
 11.8393  22.7178
 11.8622  22.6794
 11.8853  22.4696
 11.9083  22.5575
 11.9313  22.8033
 11.9543  23.3574
 11.9773  23.9679
 12.0003  23.8283
 12.0233  23.5044
 12.0463  23.4959
 12.0693  24.4213
 12.0923  25.2781
 12.1153  25.1109
 12.1382  23.961
 12.1613  23.3057
 12.1843  22.916
 12.2073  22.6523
 12.2302  22.5337
 12.2533  22.5667
 12.2763  22.6044
 12.2993  22.5844
 12.3223  22.5858
 12.3453  22.5722
 12.3683  22.6108
 12.3913  22.5876
 12.4142  22.5822
 12.4373  22.6273
 12.4603  22.6501
 12.4833  22.7153
 12.5062  22.6647
 12.5292  22.7826
 12.5523  22.7779
 12.5753  22.7508
 12.5983  22.8072
 12.6212  22.8899
 12.6443  22.9218
 12.6673  22.9726
 12.6903  23.0449
 12.7133  22.9801
 12.7363  22.9559
 12.7593  23.1013
 12.7822  23.2411
 12.8052  23.2026
 12.8283  23.246
 12.8513  23.335
 12.8742  23.4087
 12.8972  23.5717
 12.9203  23.6852
 12.9433  23.8719
 12.9663  23.9846
 12.9893  24.0197
 13.0123  24.1524
 13.0353  24.3524
 13.0582  24.4891
 13.0813  24.6321
 13.1043  24.824
 13.1273  25.0363
 13.1502  25.2346
 13.1732  25.424
 13.1963  25.6566
 13.2193  25.9281
 13.2423  26.261
 13.2652  26.66
 13.2883  26.9203
 13.3113  27.219
 13.3343  27.6264
 13.3573  27.9262
 13.3803  28.1717
 13.4033  28.4047
 13.4262  28.6106
 13.4492  28.7827
 13.4723  28.9927
 13.4953  29.2006
 13.5183  29.3528
 13.5412  29.6731
 13.5643  29.7085
 13.5873  29.7569
 13.6103  29.7603
 13.6333  29.8647
 13.6563  29.9246
 13.6793  29.8427
 13.7022  29.7142
 13.7253  29.7087
 13.7483  29.7751
 13.7713  29.5362
 13.7942  29.29
 13.8172  29.1843
 13.8403  29.2183
 13.8633  29.3335
 13.8863  29.6152
 13.9093  30.2123
 13.9323  30.9737
 13.9553  31.069
 13.9783  30.4172
 14.0013  29.3552
 14.0243  28.5744
 14.0473  28.1536
 14.0703  27.8952
 14.0932  27.5942
 14.1163  27.4098
 14.1393  27.25
 14.1623  27.0865
 14.1852  26.9641
 14.2083  26.8339
 14.2313  26.7396
 14.2543  26.6647
 14.2773  26.4903
 14.3003  26.4696
 14.3233  26.3843
 14.3463  26.2135
 14.3692  26.0549
 14.3923  26.0317
 14.4153  26.0309
 14.4383  25.9788
 14.4612  25.8472
 14.4843  25.7817
 14.5073  25.7828
 14.5303  25.6863
 14.5533  25.6183
 14.5763  25.4944
 14.5993  25.4503
 14.6223  25.4155
 14.6453  25.4301
 14.6683  25.3562
 14.6913  25.2978
 14.7143  25.2658
 14.7372  25.209
 14.7603  25.1718
 14.7833  25.2271
 14.8063  25.2537
 14.8293  25.1605
 14.8523  25.1958
 14.8753  25.145
 14.8983  25.2001
 14.9213  25.2729
 14.9443  25.2181
 14.9673  25.1628
 14.9903  25.1707
 15.0132  25.1968
 15.0363  25.1032
 15.0593  25.0774
 15.0823  25.167
 15.1052  25.4309
 15.1283  25.9534
 15.1513  27.6635
 15.1743  32.4071
 15.1973  36.9574
 15.2203  37.0413
 15.2433  31.7434
 15.2663  27.2639
 15.2892  25.603
 15.3123  25.1959
 15.3353  24.9802
 15.3583  24.8901
 15.3812  24.8143
 15.4043  24.7736
 15.4273  24.6605
 15.4503  24.5832
 15.4733  24.5069
 15.4963  24.6873
 15.5193  24.718
 15.5423  24.685
 15.5653  24.6566
 15.5883  24.6642
 15.6113  24.6842
 15.6343  24.6364
 15.6572  24.6879
 15.6803  24.6938
 15.7033  24.7605
 15.7263  24.763
 15.7492  24.6824
 15.7723  24.6332
 15.7953  24.6146
 15.8183  24.7042
 15.8413  24.6519
 15.8643  24.6739
 15.8873  24.7066
 15.9103  24.6877
 15.9332  24.6976
 15.9563  24.6283
 15.9793  24.6628
 16.0023  24.7533
 16.0253  24.7922
 16.0482  24.7943
 16.0713  24.7174
 16.0943  24.8631
 16.1172  24.9227
 16.1403  24.8738
 16.1633  24.8969
 16.1863  25.0278
 16.2093  25.1272
 16.2323  25.1727
 16.2553  25.2719
 16.2783  25.3793
 16.3012  25.1596
 16.3243  24.9199
 16.3472  24.7862
 16.3703  24.7411
 16.3933  24.7885
 16.4163  24.8665
 16.4393  24.8473
 16.4623  24.732
 16.4853  24.6717
 16.5083  24.6746
 16.5312  24.6812
 16.5543  24.6785
 16.5773  24.6904
 16.6002  24.6649
 16.6233  24.6472
 16.6463  24.5938
 16.6693  24.6302
 16.6923  24.6506
 16.7153  24.5616
 16.7383  24.5656
 16.7613  24.5939
 16.7843  24.5626
 16.8073  24.5688
 16.8303  24.4979
 16.8533  24.5279
 16.8763  24.5825
 16.8992  24.5839
 16.9223  24.5371
 16.9453  24.4271
 16.9683  24.3037
 16.9913  24.2789
 17.0143  24.3338
 17.0373  24.3286
 17.0603  24.2343
 17.0832  24.2557
 17.1063  24.3066
 17.1293  24.2709
 17.1522  24.2625
 17.1753  24.2842
 17.1983  24.2502
 17.2213  24.2264
 17.2443  24.1906
 17.2673  24.1637
 17.2903  24.2023
 17.3133  24.1496
 17.3362  24.0643
 17.3593  24.006
 17.3823  24.0502
 17.4053  24.0035
 17.4283  24.0322
 17.4513  23.9998
 17.4743  23.8726
 17.4973  23.915
 17.5203  23.9157
 17.5433  24.0094
 17.5663  23.9594
 17.5893  23.9363
 17.6123  23.9473
 17.6352  23.9244
 17.6583  23.8238
 17.6813  23.7762
 17.7042  23.8382
 17.7273  23.8927
 17.7503  23.8586
 17.7733  23.8022
 17.7963  23.7684
 17.8193  23.7796
 17.8423  23.7742
 17.8653  23.7353
 17.8882  23.7874
 17.9113  23.8262
 17.9343  23.7543
 17.9573  23.7905
 17.9803  23.8989
 18.0033  24.0664
 18.0263  24.2987
 18.0493  24.6693
 18.0723  25.4529
 18.0953  26.7117
 18.1183  27.4158
 18.1413  26.6701
 18.1643  25.2744
 18.1872  24.2755
 18.2103  24.0222
 18.2333  23.9326
 18.2563  23.8016
 18.2793  23.6404
 18.3023  23.5793
 18.3253  23.5243
 18.3483  23.6295
 18.3712  23.707
 18.3943  23.6832
 18.4173  23.6885
 18.4402  23.6636
 18.4633  23.5935
 18.4863  23.5869
 18.5093  23.6614
 18.5323  23.6182
 18.5553  23.5401
 18.5783  23.5714
 18.6013  23.6204
 18.6242  23.585
 18.6473  23.5449
 18.6703  23.537
 18.6933  23.5381
 18.7163  23.4651
 18.7392  23.3544
 18.7623  23.4154
 18.7853  23.4485
 18.8083  23.519
 18.8313  23.6093
 18.8543  23.6685
 18.8773  23.5847
 18.9003  23.5366
 18.9232  23.512
 18.9463  23.5498
 18.9693  23.5378
 18.9922  23.4481
 19.0153  23.4615
 19.0383  23.47
 19.0613  23.5379
 19.0843  23.6896
 19.1073  23.6538
 19.1303  23.6031
 19.1533  23.6768
 19.1762  23.5907
 19.1993  23.5135
 19.2223  23.4832
 19.2453  23.4577
 19.2683  23.5795
 19.2913  23.5387
 19.3143  23.5932
 19.3373  23.6535
 19.3603  23.6662
 19.3833  23.6328
 19.4062  23.6368
 19.4293  23.6228
 19.4523  23.6593
 19.4752  23.6886
 19.4983  23.696
 19.5213  23.6053
 19.5443  23.7338
 19.5673  23.7384
 19.5903  23.8
 19.6133  23.9462
 19.6363  24.0631
 19.6593  24.4708
 19.6823  25.2192
 19.7053  26.0531
 19.7283  26.3847
 19.7513  26.1843
 19.7742  25.4667
 19.7973  24.7332
 19.8203  24.5033
 19.8433  24.7825
 19.8663  24.8719
 19.8893  24.7857
 19.9123  24.4586
 19.9353  24.0667
 19.9582  23.8889
 19.9813  23.8153
 20.0043  23.7749
 20.0272  23.7135
 20.0503  23.7246
 20.0733  23.7225
 20.0963  23.757
 20.1193  23.6988
 20.1423  23.6028
 20.1653  23.6647
 20.1883  23.7064
 20.2112  23.7039
 20.2343  23.7553
 20.2573  23.7392
 20.2803  23.6972
 20.3033  23.7399
 20.3263  23.6829
 20.3493  23.6626
 20.3723  23.6921
 20.3953  23.7541
 20.4183  23.7577
 20.4413  23.7935
 20.4643  23.758
 20.4873  23.7428
 20.5102  23.7047
 20.5333  23.685
 20.5563  23.7304
 20.5792  23.7682
 20.6023  23.8368
 20.6253  23.9035
 20.6483  23.9931
 20.6713  24.0858
 20.6943  24.2745
 20.7173  24.5752
 20.7403  24.9323
 20.7632  25.1854
 20.7863  25.1276
 20.8093  24.5746
 20.8323  24.0767
 20.8553  23.8685
 20.8783  23.7792
 20.9013  23.8803
 20.9243  23.8893
 20.9473  23.8396
 20.9703  23.8574
 20.9933  23.8404
 21.0163  23.8079
 21.0393  23.8591
 21.0622  23.8456
 21.0853  23.8253
 21.1083  23.7342
 21.1313  23.821
 21.1543  23.7687
 21.1773  23.8342
 21.2003  23.9205
 21.2233  23.9014
 21.2462  23.8948
 21.2693  23.832
 21.2923  23.8665
 21.3152  23.8824
 21.3383  23.9732
 21.3613  23.9812
 21.3843  23.9737
 21.4073  23.9303
 21.4303  23.9233
 21.4533  23.9225
 21.4763  23.9659
 21.4992  23.958
 21.5223  23.8807
 21.5453  23.9384
 21.5683  23.8951
 21.5913  24.0028
 21.6142  24.0849
 21.6373  24.0921
 21.6603  24.0616
 21.6833  24.0756
 21.7063  24.0601
 21.7293  24.0885
 21.7523  24.1455
 21.7753  23.9584
 21.7982  23.9941
 21.8213  24.0624
 21.8443  24.083
 21.8672  24.126
 21.8903  24.1345
 21.9133  24.1665
 21.9363  24.207
 21.9593  24.1985
 21.9823  24.1993
 22.0053  24.2324
 22.0283  24.3274
 22.0512  24.3237
 22.0743  24.2583
 22.0973  24.2631
 22.1203  24.3266
 22.1433  24.4001
 22.1663  24.3691
 22.1893  24.266
 22.2123  24.3303
 22.2353  24.3815
 22.2583  24.32
 22.2813  24.3234
 22.3043  24.5067
 22.3273  24.5635
 22.3502  24.6237
 22.3733  24.6174
 22.3963  24.4834
 22.4193  24.3934
 22.4423  24.5028
 22.4653  24.5753
 22.4883  24.5475
 22.5113  24.6211
 22.5343  24.7129
 22.5573  24.7233
 22.5803  24.8702
 22.6033  24.9462
 22.6263  24.8977
 22.6493  24.9493
 22.6723  25.0017
 22.6953  25.0499
 22.7183  25.1639
 22.7413  25.22
 22.7643  25.2465
 22.7873  25.3289
 22.8103  25.5174
 22.8333  25.5612
 22.8563  25.5767
 22.8793  25.5569
 22.9022  25.7182
 22.9253  25.9595
 22.9483  25.9895
 22.9713  26.0885
 22.9943  26.2746