File: test-data-xrd/xrd-map-34-ID-E/Data_0006.chi
F:\20151113_APS_34IDE\\Brian\Particle1\OCV\Data_0006.tif
2-Theta Angle (Degrees)
Intensity
       2000
 0.01725  0.0000000E+00
 0.04025  0.0000000E+00
 0.06325  0.0000000E+00
 0.08625  0.0000000E+00
 0.10925  0.0000000E+00
 0.13225  0.0000000E+00
 0.15525  0.0000000E+00
 0.17825  0.0000000E+00
 0.20125  0.0000000E+00
 0.22425  0.0000000E+00
 0.24725  0.0000000E+00
 0.27025  0.0000000E+00
 0.29325  0.0000000E+00
 0.31625  0.0000000E+00
 0.33925  0.0000000E+00
 0.36225  0.0000000E+00
 0.38525  0.0000000E+00
 0.40825  0.0000000E+00
 0.43125  0.0000000E+00
 0.45425  0.0000000E+00
 0.47725  0.0000000E+00
 0.50025  0.0000000E+00
 0.52325  0.0000000E+00
 0.54625  0.0000000E+00
 0.56925  0.0000000E+00
 0.59225  0.0000000E+00
 0.61525  0.0000000E+00
 0.63825  0.0000000E+00
 0.66125  0.0000000E+00
 0.68425  0.0000000E+00
 0.70725  0.0000000E+00
 0.73025  0.0000000E+00
 0.75325  0.0000000E+00
 0.77625  0.0000000E+00
 0.79925  0.0000000E+00
 0.82225  0.0000000E+00
 0.84525  0.0000000E+00
 0.86825  0.0000000E+00
 0.89125  0.0000000E+00
 0.91425  0.0000000E+00
 0.93725  0.0000000E+00
 0.96025  0.0000000E+00
 0.98325  0.0000000E+00
 1.00625  0.0000000E+00
 1.02925  0.0000000E+00
 1.05225  0.0000000E+00
 1.07525  0.0000000E+00
 1.09825  0.0000000E+00
 1.12125  0.0000000E+00
 1.14425  0.0000000E+00
 1.16725  0.0000000E+00
 1.19025  0.0000000E+00
 1.21325  0.0000000E+00
 1.23625  0.0000000E+00
 1.25925  0.0000000E+00
 1.28225  0.0000000E+00
 1.30525  0.0000000E+00
 1.32825  0.0000000E+00
 1.35125  0.0000000E+00
 1.37425  0.0000000E+00
 1.39725  0.0000000E+00
 1.42025  0.0000000E+00
 1.44325  0.0000000E+00
 1.46625  0.0000000E+00
 1.48925  0.0000000E+00
 1.51225  0.0000000E+00
 1.53525  0.0000000E+00
 1.55825  0.0000000E+00
 1.58125  0.0000000E+00
 1.60425  0.0000000E+00
 1.62725  0.0000000E+00
 1.65025  0.0000000E+00
 1.67325  0.0000000E+00
 1.69625  0.0000000E+00
 1.71925  0.0000000E+00
 1.74225  0.0000000E+00
 1.76525  0.0000000E+00
 1.78825  0.0000000E+00
 1.81125  0.0000000E+00
 1.83425  0.0000000E+00
 1.85725  0.0000000E+00
 1.88025  0.0000000E+00
 1.90325  0.0000000E+00
 1.92625  0.0000000E+00
 1.94925  0.0000000E+00
 1.97225  0.0000000E+00
 1.99525  0.0000000E+00
 2.01825  0.0000000E+00
 2.04125  0.0000000E+00
 2.06425  0.0000000E+00
 2.08725  0.0000000E+00
 2.11025  0.0000000E+00
 2.13325  0.0000000E+00
 2.15625  0.0000000E+00
 2.17925  0.0000000E+00
 2.20225  0.0000000E+00
 2.22525  0.0000000E+00
 2.24825  0.0000000E+00
 2.27125  0.0000000E+00
 2.29425  0.0000000E+00
 2.31725  0.0000000E+00
 2.34025  0.0000000E+00
 2.36325  0.0000000E+00
 2.38625  0.0000000E+00
 2.40925  0.0000000E+00
 2.43225  0.0000000E+00
 2.45525  0.0000000E+00
 2.47825  0.0000000E+00
 2.50125  0.0000000E+00
 2.52425  0.0000000E+00
 2.54725  0.0000000E+00
 2.57025  0.0000000E+00
 2.59325  0.0000000E+00
 2.61625  0.0000000E+00
 2.63925  0.0000000E+00
 2.66225  0.0000000E+00
 2.68525  0.0000000E+00
 2.70825  0.0000000E+00
 2.73125  0.0000000E+00
 2.75425  0.0000000E+00
 2.77725  0.0000000E+00
 2.80025  0.0000000E+00
 2.82325  33.2677
 2.84625  34.4301
 2.86925  34.1099
 2.89225  34.3717
 2.91525  34.4917
 2.93825  34.9404
 2.96125  35.3553
 2.98425  35.8538
 3.00725  36.1846
 3.03025  35.7436
 3.05325  35.6951
 3.07625  35.7386
 3.09925  35.2827
 3.12225  34.9738
 3.14525  35.2718
 3.16825  35.4993
 3.19125  34.9535
 3.21425  35.0542
 3.23725  35.3269
 3.26025  35.7484
 3.28325  35.713
 3.30625  35.2841
 3.32925  34.9477
 3.35225  34.8266
 3.37525  34.7723
 3.39825  34.5018
 3.42125  34.4168
 3.44425  34.5821
 3.46725  34.676
 3.49025  34.0155
 3.51325  33.5082
 3.53625  33.4276
 3.55925  33.8596
 3.58225  33.997
 3.60525  34.1317
 3.62825  33.9017
 3.65125  33.8331
 3.67425  33.6607
 3.69725  33.5764
 3.72025  33.7387
 3.74325  33.9225
 3.76625  33.8695
 3.78925  33.4713
 3.81225  32.9436
 3.83525  32.5092
 3.85825  32.5411
 3.88125  32.9534
 3.90425  32.8726
 3.92725  32.7681
 3.95025  33.0159
 3.97325  33.3369
 3.99625  33.4091
 4.01925  32.9305
 4.04225  32.5528
 4.06525  32.4704
 4.08825  32.7855
 4.11125  32.8735
 4.13425  32.8785
 4.15725  32.92
 4.18025  32.4759
 4.20325  32.1815
 4.22625  32.1913
 4.24925  32.3302
 4.27225  32.3572
 4.29525  32.3011
 4.31825  32.3107
 4.34125  32.3241
 4.36425  32.3503
 4.38725  32.6695
 4.41025  32.7788
 4.43325  32.6015
 4.45625  32.3449
 4.47925  32.5358
 4.50225  32.538
 4.52525  32.44
 4.54825  32.4073
 4.57125  32.255
 4.59425  32.2557
 4.61725  32.7139
 4.64025  32.9501
 4.66325  33.1278
 4.68625  33.2269
 4.70925  33.3281
 4.73225  33.3196
 4.75525  33.006
 4.77825  32.8652
 4.80125  32.7727
 4.82425  32.8416
 4.84725  32.8305
 4.87025  32.6784
 4.89325  32.6856
 4.91625  32.959
 4.93925  33.1765
 4.96225  33.0229
 4.98525  32.8993
 5.00825  33.088
 5.03125  33.4631
 5.05425  33.6042
 5.07725  33.4052
 5.10025  33.5728
 5.12325  33.7278
 5.14625  33.918
 5.16925  33.8803
 5.19225  34.0665
 5.21525  34.0558
 5.23825  33.9347
 5.26125  33.9333
 5.28425  33.8883
 5.30725  33.809
 5.33025  33.9458
 5.35325  34.1903
 5.37625  34.4429
 5.39925  34.7429
 5.42225  34.6929
 5.44525  34.5335
 5.46825  34.7402
 5.49125  34.7885
 5.51425  34.9082
 5.53725  34.958
 5.56025  35.0032
 5.58325  35.1689
 5.60625  35.2431
 5.62925  35.0511
 5.65225  35.1901
 5.67525  35.5648
 5.69825  35.4994
 5.72125  35.4831
 5.74425  35.5117
 5.76725  35.499
 5.79025  35.6119
 5.81325  35.9808
 5.83625  36.2294
 5.85925  36.1875
 5.88225  36.3779
 5.90525  36.891
 5.92825  37.4596
 5.95125  39.1193
 5.97425  41.2037
 5.99725  41.2615
 6.02025  39.5647
 6.04325  37.9172
 6.06625  37.0131
 6.08925  36.76
 6.11225  36.8795
 6.13525  36.9604
 6.15825  37.0572
 6.18125  37.2393
 6.20425  37.2538
 6.22725  37.4499
 6.25025  37.6104
 6.27325  37.859
 6.29625  38.005
 6.31925  37.7994
 6.34225  37.7748
 6.36525  37.9405
 6.38825  38.3404
 6.41125  38.576
 6.43425  38.5838
 6.45725  38.6266
 6.48025  38.842
 6.50325  39.1113
 6.52625  39.437
 6.54925  39.3952
 6.57225  39.3705
 6.59525  39.5934
 6.61825  39.8627
 6.64125  40.0847
 6.66425  40.264
 6.68725  40.3241
 6.71025  40.5103
 6.73325  40.7295
 6.75625  40.932
 6.77925  41.0264
 6.80225  41.2164
 6.82525  41.3454
 6.84825  41.518
 6.87125  41.719
 6.89425  41.8369
 6.91725  41.8728
 6.94025  42.1867
 6.96325  42.4418
 6.98625  42.5793
 7.00925  42.6955
 7.03225  42.8275
 7.05525  42.8276
 7.07825  42.8708
 7.10125  43.0035
 7.12425  43.1507
 7.14725  43.3907
 7.17025  43.7137
 7.19325  43.9305
 7.21625  43.8875
 7.23925  43.833
 7.26225  43.9145
 7.28525  44.0498
 7.30825  44.0239
 7.33125  44.0534
 7.35425  43.9982
 7.37725  44.2036
 7.40025  44.2073
 7.42325  44.3145
 7.44625  44.4241
 7.46925  44.5121
 7.49225  44.7193
 7.51525  44.5745
 7.53825  44.5319
 7.56125  44.554
 7.58425  44.6689
 7.60725  44.656
 7.63025  44.6011
 7.65325  44.6123
 7.67625  44.6052
 7.69925  44.4869
 7.72225  44.381
 7.74525  44.3393
 7.76825  44.4024
 7.79125  44.4174
 7.81425  44.4032
 7.83725  44.3364
 7.86025  44.3314
 7.88325  44.3459
 7.90625  44.3309
 7.92925  44.2852
 7.95225  44.108
 7.97525  43.8935
 7.99825  43.7396
 8.02125  43.6387
 8.04425  43.7803
 8.06725  43.7517
 8.09025  43.6405
 8.11325  43.4172
 8.13625  43.0103
 8.15925  42.5744
 8.18225  42.4109
 8.20525  42.2391
 8.22825  41.9757
 8.25125  41.6688
 8.27425  41.3849
 8.29725  41.165
 8.32025  40.876
 8.34325  40.7009
 8.36625  40.4562
 8.38925  40.0791
 8.41225  39.746
 8.43525  39.2485
 8.45825  38.9486
 8.48125  38.6521
 8.50425  38.3324
 8.52725  38.0685
 8.55025  37.658
 8.57325  37.1994
 8.59625  36.8824
 8.61925  36.6586
 8.64225  36.4034
 8.66525  35.8934
 8.68825  35.5249
 8.71125  35.0782
 8.73425  34.6995
 8.75725  34.3172
 8.78025  34.0213
 8.80325  33.7718
 8.82625  33.7162
 8.84925  33.5915
 8.87225  33.1372
 8.89525  32.5809
 8.91825  32.2561
 8.94125  32.1088
 8.96425  31.7875
 8.98725  31.4578
 9.01025  31.1456
 9.03325  30.7375
 9.05625  30.3997
 9.07925  30.1584
 9.10225  29.9227
 9.12525  29.6067
 9.14825  29.4434
 9.17125  29.2734
 9.19425  28.9683
 9.21725  28.7661
 9.24025  28.4907
 9.26325  28.3059
 9.28625  28.094
 9.30925  27.8635
 9.33225  27.6924
 9.35525  27.5844
 9.37825  27.5212
 9.40125  27.458
 9.42425  27.3162
 9.44725  27.0388
 9.47025  26.8242
 9.49325  26.7299
 9.51625  26.6588
 9.53925  26.6558
 9.56225  26.525
 9.58525  26.4097
 9.60825  26.3053
 9.63125  26.199
 9.65425  26.0502
 9.67725  25.8546
 9.70025  25.572
 9.72325  25.4514
 9.74625  25.4325
 9.76925  25.4508
 9.79225  25.3314
 9.81525  25.2697
 9.83825  25.1114
 9.86125  25.0226
 9.88425  24.8703
 9.90725  24.7878
 9.93025  24.7967
 9.95325  24.7632
 9.97625  24.7237
 9.99925  24.6859
 10.0222  24.6004
 10.0453  24.5176
 10.0683  24.4354
 10.0913  24.3255
 10.1143  24.3288
 10.1373  24.2879
 10.1603  24.1853
 10.1832  24.0666
 10.2063  24.0708
 10.2293  24.1155
 10.2523  23.9674
 10.2752  23.9263
 10.2982  23.9267
 10.3213  23.6959
 10.3443  23.5941
 10.3673  23.6459
 10.3902  23.6781
 10.4133  23.7293
 10.4363  23.6283
 10.4593  23.5983
 10.4823  23.614
 10.5053  23.554
 10.5283  23.481
 10.5512  23.3783
 10.5742  23.3645
 10.5973  23.324
 10.6203  23.2471
 10.6433  23.1244
 10.6662  23.0949
 10.6893  23.066
 10.7123  23.0417
 10.7353  23.1495
 10.7583  23.2025
 10.7813  23.1963
 10.8043  23.1312
 10.8272  23.0492
 10.8503  22.9437
 10.8733  22.9562
 10.8963  22.8491
 10.9192  22.846
 10.9422  22.855
 10.9653  22.81
 10.9883  22.7375
 11.0113  22.6999
 11.0343  22.6728
 11.0573  22.5971
 11.0803  22.6526
 11.1033  22.653
 11.1263  22.7473
 11.1493  22.6932
 11.1723  22.6411
 11.1953  22.5609
 11.2182  22.4927
 11.2413  22.5
 11.2643  22.5559
 11.2873  22.5407
 11.3102  22.474
 11.3333  22.4778
 11.3563  22.6226
 11.3793  22.8157
 11.4023  23.1625
 11.4253  23.1343
 11.4483  23.0975
 11.4713  23.0713
 11.4942  23.1331
 11.5173  23.463
 11.5403  24.1769
 11.5633  25.421
 11.5862  26.0838
 11.6093  25.5671
 11.6323  24.2294
 11.6553  23.2601
 11.6783  22.8337
 11.7013  22.6313
 11.7243  22.6067
 11.7473  22.7142
 11.7703  22.73
 11.7933  22.6886
 11.8163  22.7188
 11.8393  22.7193
 11.8622  22.6655
 11.8853  22.6681
 11.9083  22.7042
 11.9313  22.7375
 11.9543  22.8779
 11.9773  23.0243
 12.0003  23.0138
 12.0233  22.9828
 12.0463  23.1017
 12.0693  23.3733
 12.0923  23.8826
 12.1153  24.0469
 12.1382  23.8276
 12.1613  23.2992
 12.1843  22.924
 12.2073  22.8269
 12.2302  22.8128
 12.2533  22.8037
 12.2763  22.7557
 12.2993  22.7569
 12.3223  22.842
 12.3453  22.8089
 12.3683  22.7409
 12.3913  22.7556
 12.4142  22.7155
 12.4373  22.6869
 12.4603  22.7797
 12.4833  22.8906
 12.5062  22.8521
 12.5292  22.8718
 12.5523  22.8335
 12.5753  22.7602
 12.5983  22.8333
 12.6212  23.0095
 12.6443  22.9795
 12.6673  22.9469
 12.6903  22.9047
 12.7133  22.9715
 12.7363  23.1135
 12.7593  23.2135
 12.7822  23.1706
 12.8052  23.2045
 12.8283  23.3819
 12.8513  23.484
 12.8742  23.568
 12.8972  23.6592
 12.9203  23.7842
 12.9433  23.8772
 12.9663  23.9293
 12.9893  24.1081
 13.0123  24.2475
 13.0353  24.3389
 13.0582  24.5392
 13.0813  24.6336
 13.1043  24.9075
 13.1273  25.2049
 13.1502  25.4145
 13.1732  25.601
 13.1963  25.8139
 13.2193  26.166
 13.2423  26.4379
 13.2652  26.6154
 13.2883  26.9243
 13.3113  27.151
 13.3343  27.428
 13.3573  27.8971
 13.3803  28.2239
 13.4033  28.4859
 13.4262  28.6274
 13.4492  28.8449
 13.4723  29.1384
 13.4953  29.4746
 13.5183  29.7244
 13.5412  29.7398
 13.5643  29.7934
 13.5873  29.9277
 13.6103  29.989
 13.6333  29.9642
 13.6563  29.9156
 13.6793  29.9783
 13.7022  29.8559
 13.7253  29.7849
 13.7483  29.5978
 13.7713  29.5034
 13.7942  29.3313
 13.8172  29.2651
 13.8403  29.2784
 13.8633  29.3016
 13.8863  29.7765
 13.9093  31.0654
 13.9323  32.473
 13.9553  33.0433
 13.9783  32.0205
 14.0013  30.1247
 14.0243  28.7162
 14.0473  27.927
 14.0703  27.7055
 14.0932  27.6109
 14.1163  27.528
 14.1393  27.329
 14.1623  27.1666
 14.1852  27.0335
 14.2083  26.9617
 14.2313  26.7408
 14.2543  26.6272
 14.2773  26.5385
 14.3003  26.4516
 14.3233  26.3455
 14.3463  26.2802
 14.3692  26.2391
 14.3923  26.2082
 14.4153  26.1774
 14.4383  26.0979
 14.4612  26.0298
 14.4843  25.9933
 14.5073  26.0071
 14.5303  25.8192
 14.5533  25.6811
 14.5763  25.6428
 14.5993  25.5935
 14.6223  25.6427
 14.6453  25.5962
 14.6683  25.4101
 14.6913  25.3006
 14.7143  25.2308
 14.7372  25.2494
 14.7603  25.3033
 14.7833  25.339
 14.8063  25.3395
 14.8293  25.5219
 14.8523  25.9449
 14.8753  25.7247
 14.8983  25.205
 14.9213  25.1179
 14.9443  25.1163
 14.9673  25.0837
 14.9903  25.0801
 15.0132  25.0627
 15.0363  25.0299
 15.0593  24.9362
 15.0823  25.0218
 15.1052  24.9949
 15.1283  24.9879
 15.1513  25.2401
 15.1743  25.5413
 15.1973  25.72
 15.2203  25.6266
 15.2433  25.2433
 15.2663  24.9759
 15.2892  24.9172
 15.3123  24.933
 15.3353  24.7851
 15.3583  24.7455
 15.3812  24.7643
 15.4043  24.7119
 15.4273  24.5945
 15.4503  24.6541
 15.4733  24.6429
 15.4963  24.7139
 15.5193  24.6992
 15.5423  24.7186
 15.5653  24.6472
 15.5883  24.6668
 15.6113  24.6743
 15.6343  24.6377
 15.6572  24.5854
 15.6803  24.598
 15.7033  24.6921
 15.7263  24.7145
 15.7492  24.6837
 15.7723  24.7966
 15.7953  24.7574
 15.8183  24.6974
 15.8413  24.5516
 15.8643  24.5983
 15.8873  24.6743
 15.9103  24.7311
 15.9332  24.7738
 15.9563  24.7309
 15.9793  24.674
 16.0023  24.6814
 16.0253  24.7465
 16.0482  24.7624
 16.0713  24.7028
 16.0943  24.7025
 16.1172  24.7965
 16.1403  24.8883
 16.1633  25.0905
 16.1863  25.2311
 16.2093  25.4776
 16.2323  25.7552
 16.2553  26.0012
 16.2783  25.9469
 16.3012  25.3821
 16.3243  24.9175
 16.3472  24.788
 16.3703  24.7291
 16.3933  24.7121
 16.4163  24.8486
 16.4393  24.8513
 16.4623  24.8138
 16.4853  24.7822
 16.5083  24.8186
 16.5312  24.7329
 16.5543  24.6762
 16.5773  24.6293
 16.6002  24.659
 16.6233  24.6887
 16.6463  24.7046
 16.6693  24.7303
 16.6923  24.7132
 16.7153  24.7148
 16.7383  24.7857
 16.7613  24.8454
 16.7843  24.7072
 16.8073  24.6251
 16.8303  24.5025
 16.8533  24.3872
 16.8763  24.3428
 16.8992  24.3446
 16.9223  24.4452
 16.9453  24.5144
 16.9683  24.4581
 16.9913  24.4733
 17.0143  24.511
 17.0373  24.4719
 17.0603  24.3993
 17.0832  24.3411
 17.1063  24.3012
 17.1293  24.3708
 17.1522  24.3521
 17.1753  24.2116
 17.1983  24.294
 17.2213  24.3804
 17.2443  24.2815
 17.2673  24.1668
 17.2903  24.2411
 17.3133  24.2776
 17.3362  24.2911
 17.3593  24.2988
 17.3823  24.2234
 17.4053  24.2005
 17.4283  24.2215
 17.4513  24.1507
 17.4743  24.0748
 17.4973  24.1207
 17.5203  24.0823
 17.5433  24.0389
 17.5663  24.0013
 17.5893  24.0123
 17.6123  24.0044
 17.6352  23.9526
 17.6583  23.8471
 17.6813  23.9481
 17.7042  23.996
 17.7273  23.9482
 17.7503  23.9115
 17.7733  23.8565
 17.7963  23.8875
 17.8193  23.8974
 17.8423  23.9053
 17.8653  23.9931
 17.8882  24.0306
 17.9113  24.0984
 17.9343  24.0651
 17.9573  24.0368
 17.9803  24.0279
 18.0033  24.1281
 18.0263  24.3259
 18.0493  24.4886
 18.0723  24.6154
 18.0953  24.7422
 18.1183  24.7232
 18.1413  24.4515
 18.1643  24.0853
 18.1872  23.9004
 18.2103  23.8677
 18.2333  23.8571
 18.2563  23.8604
 18.2793  23.8111
 18.3023  23.7975
 18.3253  23.656
 18.3483  23.6596
 18.3712  23.7235
 18.3943  23.788
 18.4173  23.8133
 18.4402  23.7189
 18.4633  23.6976
 18.4863  23.7482
 18.5093  23.6883
 18.5323  23.6485
 18.5553  23.6564
 18.5783  23.7559
 18.6013  23.7581
 18.6242  23.7043
 18.6473  23.6875
 18.6703  23.6363
 18.6933  23.6563
 18.7163  23.5578
 18.7392  23.5754
 18.7623  23.6452
 18.7853  23.6365
 18.8083  23.6277
 18.8313  23.5179
 18.8543  23.5359
 18.8773  23.5257
 18.9003  23.5645
 18.9232  23.5922
 18.9463  23.6306
 18.9693  23.4732
 18.9922  23.3972
 19.0153  23.4309
 19.0383  23.4331
 19.0613  23.4614
 19.0843  23.491
 19.1073  23.4681
 19.1303  23.5386
 19.1533  23.6425
 19.1762  23.5339
 19.1993  23.5466
 19.2223  23.5747
 19.2453  23.6426
 19.2683  23.6756
 19.2913  23.632
 19.3143  23.6502
 19.3373  23.7217
 19.3603  23.6993
 19.3833  23.6837
 19.4062  23.7058
 19.4293  23.7668
 19.4523  23.6967
 19.4752  23.671
 19.4983  23.6802
 19.5213  23.6375
 19.5443  23.6537
 19.5673  23.6948
 19.5903  23.7133
 19.6133  23.7329
 19.6363  23.879
 19.6593  24.2535
 19.6823  24.8015
 19.7053  25.5104
 19.7283  26.0579
 19.7513  25.6854
 19.7742  24.7609
 19.7973  24.5522
 19.8203  24.7194
 19.8433  25.0541
 19.8663  25.3208
 19.8893  25.1628
 19.9123  24.685
 19.9353  24.3532
 19.9582  24.1037
 19.9813  23.915
 20.0043  23.8894
 20.0272  23.8378
 20.0503  23.8202
 20.0733  23.7787
 20.0963  23.7878
 20.1193  23.8142
 20.1423  23.8306
 20.1653  23.9045
 20.1883  23.9753
 20.2112  23.8902
 20.2343  23.8875
 20.2573  23.8716
 20.2803  23.93
 20.3033  23.8518
 20.3263  23.7457
 20.3493  23.7332
 20.3723  23.7924
 20.3953  23.8172
 20.4183  23.8886
 20.4413  23.9519
 20.4643  23.8722
 20.4873  23.8218
 20.5102  23.8918
 20.5333  23.8113
 20.5563  23.8093
 20.5792  23.8007
 20.6023  23.9143
 20.6253  23.9882
 20.6483  23.9261
 20.6713  23.9223
 20.6943  24.047
 20.7173  24.456
 20.7403  24.7493
 20.7632  24.9004
 20.7863  24.7595
 20.8093  24.3849
 20.8323  24.0703
 20.8553  24.0336
 20.8783  24.0062
 20.9013  23.9342
 20.9243  24.05
 20.9473  24.1304
 20.9703  24.1062
 20.9933  24.0186
 21.0163  23.963
 21.0393  23.9604
 21.0622  23.9454
 21.0853  23.9647
 21.1083  23.9771
 21.1313  24.0263
 21.1543  23.8813
 21.1773  23.9782
 21.2003  24.0899
 21.2233  24.0694
 21.2462  23.9818
 21.2693  24.0005
 21.2923  24.0202
 21.3152  23.9983
 21.3383  23.9773
 21.3613  24.0748
 21.3843  24.102
 21.4073  24.0491
 21.4303  23.9914
 21.4533  23.9201
 21.4763  23.9306
 21.4992  24.116
 21.5223  24.1356
 21.5453  24.1397
 21.5683  24.1559
 21.5913  24.1342
 21.6142  24.1066
 21.6373  24.1353
 21.6603  24.1993
 21.6833  24.2236
 21.7063  24.26
 21.7293  24.274
 21.7523  24.2034
 21.7753  24.1123
 21.7982  24.181
 21.8213  24.2306
 21.8443  24.1871
 21.8672  24.2429
 21.8903  24.1954
 21.9133  24.2219
 21.9363  24.2763
 21.9593  24.3583
 21.9823  24.3185
 22.0053  24.3169
 22.0283  24.3876
 22.0512  24.3126
 22.0743  24.3327
 22.0973  24.4322
 22.1203  24.4802
 22.1433  24.4496
 22.1663  24.4333
 22.1893  24.4237
 22.2123  24.4035
 22.2353  24.4582
 22.2583  24.551
 22.2813  24.6202
 22.3043  24.7358
 22.3273  24.7588
 22.3502  24.703
 22.3733  24.6667
 22.3963  24.6918
 22.4193  24.576
 22.4423  24.5869
 22.4653  24.6554
 22.4883  24.7303
 22.5113  24.8643
 22.5343  24.9464
 22.5573  24.9351
 22.5803  24.9302
 22.6033  24.9296
 22.6263  25.0484
 22.6493  25.0788
 22.6723  25.0088
 22.6953  25.0951
 22.7183  25.1002
 22.7413  25.1351
 22.7643  25.263
 22.7873  25.2974
 22.8103  25.45
 22.8333  25.5674
 22.8563  25.5924
 22.8793  25.6955
 22.9022  25.7808
 22.9253  25.9784
 22.9483  26.0854
 22.9713  26.2135
 22.9943  26.4609