File: test-data-xrd/xrd-map-34-ID-E/Data_0010.chi
F:\20151113_APS_34IDE\\Brian\Particle1\OCV\Data_0010.tif
2-Theta Angle (Degrees)
Intensity
       2000
 0.01725  0.0000000E+00
 0.04025  0.0000000E+00
 0.06325  0.0000000E+00
 0.08625  0.0000000E+00
 0.10925  0.0000000E+00
 0.13225  0.0000000E+00
 0.15525  0.0000000E+00
 0.17825  0.0000000E+00
 0.20125  0.0000000E+00
 0.22425  0.0000000E+00
 0.24725  0.0000000E+00
 0.27025  0.0000000E+00
 0.29325  0.0000000E+00
 0.31625  0.0000000E+00
 0.33925  0.0000000E+00
 0.36225  0.0000000E+00
 0.38525  0.0000000E+00
 0.40825  0.0000000E+00
 0.43125  0.0000000E+00
 0.45425  0.0000000E+00
 0.47725  0.0000000E+00
 0.50025  0.0000000E+00
 0.52325  0.0000000E+00
 0.54625  0.0000000E+00
 0.56925  0.0000000E+00
 0.59225  0.0000000E+00
 0.61525  0.0000000E+00
 0.63825  0.0000000E+00
 0.66125  0.0000000E+00
 0.68425  0.0000000E+00
 0.70725  0.0000000E+00
 0.73025  0.0000000E+00
 0.75325  0.0000000E+00
 0.77625  0.0000000E+00
 0.79925  0.0000000E+00
 0.82225  0.0000000E+00
 0.84525  0.0000000E+00
 0.86825  0.0000000E+00
 0.89125  0.0000000E+00
 0.91425  0.0000000E+00
 0.93725  0.0000000E+00
 0.96025  0.0000000E+00
 0.98325  0.0000000E+00
 1.00625  0.0000000E+00
 1.02925  0.0000000E+00
 1.05225  0.0000000E+00
 1.07525  0.0000000E+00
 1.09825  0.0000000E+00
 1.12125  0.0000000E+00
 1.14425  0.0000000E+00
 1.16725  0.0000000E+00
 1.19025  0.0000000E+00
 1.21325  0.0000000E+00
 1.23625  0.0000000E+00
 1.25925  0.0000000E+00
 1.28225  0.0000000E+00
 1.30525  0.0000000E+00
 1.32825  0.0000000E+00
 1.35125  0.0000000E+00
 1.37425  0.0000000E+00
 1.39725  0.0000000E+00
 1.42025  0.0000000E+00
 1.44325  0.0000000E+00
 1.46625  0.0000000E+00
 1.48925  0.0000000E+00
 1.51225  0.0000000E+00
 1.53525  0.0000000E+00
 1.55825  0.0000000E+00
 1.58125  0.0000000E+00
 1.60425  0.0000000E+00
 1.62725  0.0000000E+00
 1.65025  0.0000000E+00
 1.67325  0.0000000E+00
 1.69625  0.0000000E+00
 1.71925  0.0000000E+00
 1.74225  0.0000000E+00
 1.76525  0.0000000E+00
 1.78825  0.0000000E+00
 1.81125  0.0000000E+00
 1.83425  0.0000000E+00
 1.85725  0.0000000E+00
 1.88025  0.0000000E+00
 1.90325  0.0000000E+00
 1.92625  0.0000000E+00
 1.94925  0.0000000E+00
 1.97225  0.0000000E+00
 1.99525  0.0000000E+00
 2.01825  0.0000000E+00
 2.04125  0.0000000E+00
 2.06425  0.0000000E+00
 2.08725  0.0000000E+00
 2.11025  0.0000000E+00
 2.13325  0.0000000E+00
 2.15625  0.0000000E+00
 2.17925  0.0000000E+00
 2.20225  0.0000000E+00
 2.22525  0.0000000E+00
 2.24825  0.0000000E+00
 2.27125  0.0000000E+00
 2.29425  0.0000000E+00
 2.31725  0.0000000E+00
 2.34025  0.0000000E+00
 2.36325  0.0000000E+00
 2.38625  0.0000000E+00
 2.40925  0.0000000E+00
 2.43225  0.0000000E+00
 2.45525  0.0000000E+00
 2.47825  0.0000000E+00
 2.50125  0.0000000E+00
 2.52425  0.0000000E+00
 2.54725  0.0000000E+00
 2.57025  0.0000000E+00
 2.59325  0.0000000E+00
 2.61625  0.0000000E+00
 2.63925  0.0000000E+00
 2.66225  0.0000000E+00
 2.68525  0.0000000E+00
 2.70825  0.0000000E+00
 2.73125  0.0000000E+00
 2.75425  0.0000000E+00
 2.77725  0.0000000E+00
 2.80025  0.0000000E+00
 2.82325  29.9131
 2.84625  33.4785
 2.86925  34.6312
 2.89225  34.8368
 2.91525  35.1903
 2.93825  34.8221
 2.96125  35.0975
 2.98425  35.0676
 3.00725  35.5225
 3.03025  35.6146
 3.05325  35.8397
 3.07625  36.5424
 3.09925  37.2397
 3.12225  36.2261
 3.14525  35.6755
 3.16825  35.3891
 3.19125  35.6668
 3.21425  35.6734
 3.23725  35.6662
 3.26025  35.9431
 3.28325  36.1716
 3.30625  36.1028
 3.32925  35.7714
 3.35225  35.3617
 3.37525  35.4661
 3.39825  35.1202
 3.42125  34.939
 3.44425  34.9073
 3.46725  34.8636
 3.49025  34.5329
 3.51325  34.2637
 3.53625  34.0641
 3.55925  33.9906
 3.58225  33.938
 3.60525  33.842
 3.62825  33.9139
 3.65125  33.8238
 3.67425  33.579
 3.69725  33.5935
 3.72025  33.2066
 3.74325  32.7117
 3.76625  32.7342
 3.78925  33.191
 3.81225  32.9244
 3.83525  32.5776
 3.85825  32.5884
 3.88125  32.7329
 3.90425  32.707
 3.92725  32.6116
 3.95025  32.9451
 3.97325  33.2912
 3.99625  33.7968
 4.01925  33.3375
 4.04225  32.6631
 4.06525  32.4541
 4.08825  32.5119
 4.11125  32.5874
 4.13425  32.7568
 4.15725  32.7227
 4.18025  32.4561
 4.20325  32.4537
 4.22625  32.3524
 4.24925  32.2507
 4.27225  32.4351
 4.29525  32.5374
 4.31825  32.393
 4.34125  32.4787
 4.36425  32.5965
 4.38725  32.5627
 4.41025  32.599
 4.43325  32.7101
 4.45625  32.8846
 4.47925  33.1092
 4.50225  32.9712
 4.52525  32.8267
 4.54825  32.8525
 4.57125  32.8975
 4.59425  32.9128
 4.61725  33.028
 4.64025  33.2032
 4.66325  33.4643
 4.68625  33.369
 4.70925  33.1573
 4.73225  32.8924
 4.75525  32.7888
 4.77825  32.961
 4.80125  32.9891
 4.82425  32.8658
 4.84725  32.9787
 4.87025  33.301
 4.89325  33.2553
 4.91625  33.3932
 4.93925  33.119
 4.96225  33.0041
 4.98525  33.1665
 5.00825  33.2987
 5.03125  33.4554
 5.05425  33.6114
 5.07725  33.6547
 5.10025  33.8569
 5.12325  34.0228
 5.14625  34.1196
 5.16925  33.9109
 5.19225  33.9833
 5.21525  34.0968
 5.23825  34.3735
 5.26125  34.3009
 5.28425  34.4053
 5.30725  34.5904
 5.33025  34.6492
 5.35325  34.5986
 5.37625  34.6534
 5.39925  34.7098
 5.42225  34.8472
 5.44525  34.8875
 5.46825  35.1201
 5.49125  35.0859
 5.51425  35.3038
 5.53725  35.358
 5.56025  35.2701
 5.58325  35.3404
 5.60625  35.4056
 5.62925  35.4835
 5.65225  35.4502
 5.67525  35.5398
 5.69825  35.6346
 5.72125  35.8887
 5.74425  36.1389
 5.76725  36.0442
 5.79025  35.9436
 5.81325  35.7729
 5.83625  35.7485
 5.85925  35.8762
 5.88225  36.0598
 5.90525  36.3264
 5.92825  36.7105
 5.95125  37.9524
 5.97425  39.617
 5.99725  40.1736
 6.02025  39.178
 6.04325  37.633
 6.06625  36.8951
 6.08925  36.8642
 6.11225  37.1046
 6.13525  37.1402
 6.15825  37.2029
 6.18125  37.3991
 6.20425  37.4172
 6.22725  37.5593
 6.25025  37.7269
 6.27325  37.9247
 6.29625  38.1062
 6.31925  37.9762
 6.34225  38.0431
 6.36525  38.3089
 6.38825  38.537
 6.41125  38.6968
 6.43425  38.8518
 6.45725  38.898
 6.48025  38.8372
 6.50325  39.0634
 6.52625  39.536
 6.54925  39.8874
 6.57225  39.9443
 6.59525  39.9733
 6.61825  40.2285
 6.64125  40.3719
 6.66425  40.493
 6.68725  40.5262
 6.71025  40.5399
 6.73325  40.7547
 6.75625  40.9854
 6.77925  41.1167
 6.80225  41.4538
 6.82525  41.7781
 6.84825  42.0265
 6.87125  42.2438
 6.89425  42.3983
 6.91725  42.4659
 6.94025  42.3951
 6.96325  42.3885
 6.98625  42.5796
 7.00925  42.6761
 7.03225  42.6671
 7.05525  42.8096
 7.07825  42.8349
 7.10125  42.8584
 7.12425  43.0744
 7.14725  43.2172
 7.17025  43.4784
 7.19325  43.7077
 7.21625  43.9447
 7.23925  44.0795
 7.26225  44.0538
 7.28525  44.1279
 7.30825  44.1221
 7.33125  44.2608
 7.35425  44.1894
 7.37725  44.188
 7.40025  44.3571
 7.42325  44.485
 7.44625  44.4427
 7.46925  44.5253
 7.49225  44.6695
 7.51525  44.8664
 7.53825  44.8684
 7.56125  44.8826
 7.58425  44.9744
 7.60725  44.8682
 7.63025  44.7693
 7.65325  44.8136
 7.67625  44.846
 7.69925  44.7201
 7.72225  44.5239
 7.74525  44.4807
 7.76825  44.3824
 7.79125  44.2684
 7.81425  44.3817
 7.83725  44.5289
 7.86025  44.4343
 7.88325  44.2995
 7.90625  44.2575
 7.92925  44.1824
 7.95225  44.0288
 7.97525  43.9766
 7.99825  43.8411
 8.02125  43.617
 8.04425  43.504
 8.06725  43.3858
 8.09025  43.3296
 8.11325  43.3205
 8.13625  43.0235
 8.15925  42.7676
 8.18225  42.4678
 8.20525  42.2289
 8.22825  42.0431
 8.25125  41.9012
 8.27425  41.5658
 8.29725  41.2177
 8.32025  41.0165
 8.34325  40.6713
 8.36625  40.3405
 8.38925  39.997
 8.41225  39.7901
 8.43525  39.4264
 8.45825  39.0016
 8.48125  38.5857
 8.50425  38.21
 8.52725  37.9745
 8.55025  37.598
 8.57325  37.3631
 8.59625  37.1025
 8.61925  36.6867
 8.64225  36.3416
 8.66525  35.9576
 8.68825  35.4988
 8.71125  35.3034
 8.73425  34.921
 8.75725  34.457
 8.78025  34.0159
 8.80325  33.6293
 8.82625  33.2966
 8.84925  33.1181
 8.87225  32.9704
 8.89525  32.6463
 8.91825  32.2447
 8.94125  31.8383
 8.96425  31.5273
 8.98725  31.2239
 9.01025  30.9525
 9.03325  30.6688
 9.05625  30.3625
 9.07925  30.1115
 9.10225  29.7877
 9.12525  29.6216
 9.14825  29.4982
 9.17125  29.3995
 9.19425  29.1647
 9.21725  28.8612
 9.24025  28.6213
 9.26325  28.4107
 9.28625  28.2756
 9.30925  28.1618
 9.33225  27.932
 9.35525  27.7013
 9.37825  27.5532
 9.40125  27.5444
 9.42425  27.3602
 9.44725  27.0585
 9.47025  26.8905
 9.49325  26.77
 9.51625  26.5583
 9.53925  26.4441
 9.56225  26.2377
 9.58525  26.082
 9.60825  26.0069
 9.63125  25.7929
 9.65425  25.6595
 9.67725  25.6482
 9.70025  25.5767
 9.72325  25.5055
 9.74625  25.3557
 9.76925  25.2036
 9.79225  25.1777
 9.81525  25.1216
 9.83825  24.9503
 9.86125  24.8411
 9.88425  24.6457
 9.90725  24.6066
 9.93025  24.5983
 9.95325  24.6196
 9.97625  24.5436
 9.99925  24.4424
 10.0222  24.3695
 10.0453  24.2923
 10.0683  24.2347
 10.0913  24.2392
 10.1143  24.1995
 10.1373  24.0495
 10.1603  23.9446
 10.1832  23.902
 10.2063  23.8507
 10.2293  23.8997
 10.2523  23.8217
 10.2752  23.6711
 10.2982  23.6412
 10.3213  23.6556
 10.3443  23.6072
 10.3673  23.5732
 10.3902  23.5816
 10.4133  23.5614
 10.4363  23.3989
 10.4593  23.2606
 10.4823  23.2856
 10.5053  23.4289
 10.5283  23.3522
 10.5512  23.2543
 10.5742  23.24
 10.5973  23.0957
 10.6203  23.079
 10.6433  23.0857
 10.6662  23.1157
 10.6893  23.0418
 10.7123  23.0618
 10.7353  23.0284
 10.7583  23.0325
 10.7813  22.9793
 10.8043  22.8694
 10.8272  22.7896
 10.8503  22.8475
 10.8733  22.8738
 10.8963  22.8348
 10.9192  22.774
 10.9422  22.7364
 10.9653  22.6835
 10.9883  22.6773
 11.0113  22.7274
 11.0343  22.7523
 11.0573  22.6031
 11.0803  22.6196
 11.1033  22.6736
 11.1263  22.7474
 11.1493  22.7948
 11.1723  22.8244
 11.1953  22.7015
 11.2182  22.5974
 11.2413  22.4986
 11.2643  22.44
 11.2873  22.4791
 11.3102  22.5638
 11.3333  22.5964
 11.3563  22.6341
 11.3793  22.699
 11.4023  22.854
 11.4253  22.8792
 11.4483  22.8586
 11.4713  22.7883
 11.4942  22.8859
 11.5173  23.0454
 11.5403  23.8884
 11.5633  25.449
 11.5862  26.8227
 11.6093  28.521
 11.6323  25.8238
 11.6553  24.2805
 11.6783  23.0332
 11.7013  22.5645
 11.7243  22.5184
 11.7473  22.5999
 11.7703  22.635
 11.7933  22.5985
 11.8163  22.6473
 11.8393  22.5655
 11.8622  22.4177
 11.8853  22.3712
 11.9083  22.4948
 11.9313  22.6034
 11.9543  22.6743
 11.9773  22.6903
 12.0003  22.6415
 12.0233  22.7006
 12.0463  22.7107
 12.0693  22.7298
 12.0923  22.93
 12.1153  23.0623
 12.1382  22.9949
 12.1613  22.8477
 12.1843  22.683
 12.2073  22.5614
 12.2302  22.5227
 12.2533  22.5954
 12.2763  22.6378
 12.2993  22.6363
 12.3223  22.6123
 12.3453  22.5978
 12.3683  22.6519
 12.3913  22.6682
 12.4142  22.6755
 12.4373  22.6826
 12.4603  22.6546
 12.4833  22.8185
 12.5062  22.8759
 12.5292  22.9603
 12.5523  22.9948
 12.5753  22.8503
 12.5983  22.8337
 12.6212  22.8534
 12.6443  22.8277
 12.6673  22.7923
 12.6903  22.8518
 12.7133  22.9193
 12.7363  22.9471
 12.7593  23.0541
 12.7822  23.1187
 12.8052  23.0638
 12.8283  23.1997
 12.8513  23.377
 12.8742  23.4231
 12.8972  23.3127
 12.9203  23.4524
 12.9433  23.6178
 12.9663  23.7779
 12.9893  23.9634
 13.0123  24.073
 13.0353  24.1964
 13.0582  24.3276
 13.0813  24.5104
 13.1043  24.8842
 13.1273  25.1585
 13.1502  25.2726
 13.1732  25.4817
 13.1963  25.7522
 13.2193  25.9817
 13.2423  26.3214
 13.2652  26.6184
 13.2883  26.8872
 13.3113  27.2308
 13.3343  27.5008
 13.3573  27.7271
 13.3803  27.9447
 13.4033  28.2404
 13.4262  28.4062
 13.4492  28.6937
 13.4723  28.9257
 13.4953  29.2241
 13.5183  29.4216
 13.5412  29.4718
 13.5643  29.5799
 13.5873  29.7399
 13.6103  29.8467
 13.6333  29.8785
 13.6563  29.8381
 13.6793  29.7509
 13.7022  29.6895
 13.7253  29.5482
 13.7483  29.4515
 13.7713  29.3411
 13.7942  29.3174
 13.8172  29.1412
 13.8403  29.0542
 13.8633  28.9824
 13.8863  28.9356
 13.9093  29.2323
 13.9323  29.9406
 13.9553  30.6073
 13.9783  30.6448
 14.0013  29.7043
 14.0243  28.638
 14.0473  27.81
 14.0703  27.5349
 14.0932  27.3636
 14.1163  27.2622
 14.1393  27.1559
 14.1623  27.0321
 14.1852  26.914
 14.2083  26.8629
 14.2313  26.7289
 14.2543  26.5534
 14.2773  26.4023
 14.3003  26.3721
 14.3233  26.2123
 14.3463  26.1142
 14.3692  26.1672
 14.3923  26.1019
 14.4153  25.9786
 14.4383  25.959
 14.4612  25.8741
 14.4843  25.7418
 14.5073  25.695
 14.5303  25.6114
 14.5533  25.5744
 14.5763  25.4674
 14.5993  25.4405
 14.6223  25.4257
 14.6453  25.3854
 14.6683  25.2772
 14.6913  25.2715
 14.7143  25.2226
 14.7372  25.193
 14.7603  25.1259
 14.7833  25.1262
 14.8063  25.0759
 14.8293  25.0543
 14.8523  25.0629
 14.8753  25.0187
 14.8983  25.027
 14.9213  25.0408
 14.9443  24.9469
 14.9673  24.8877
 14.9903  24.8449
 15.0132  24.917
 15.0363  24.9058
 15.0593  24.8663
 15.0823  24.846
 15.1052  24.8388
 15.1283  24.8967
 15.1513  25.1197
 15.1743  25.4531
 15.1973  25.847
 15.2203  26.11
 15.2433  25.8048
 15.2663  25.3078
 15.2892  24.9685
 15.3123  24.8044
 15.3353  24.6628
 15.3583  24.6569
 15.3812  24.7135
 15.4043  24.7268
 15.4273  24.6072
 15.4503  24.5234
 15.4733  24.5798
 15.4963  24.6873
 15.5193  24.6648
 15.5423  24.6366
 15.5653  24.5248
 15.5883  24.555
 15.6113  24.5791
 15.6343  24.4303
 15.6572  24.4935
 15.6803  24.5815
 15.7033  24.6477
 15.7263  24.6769
 15.7492  24.6586
 15.7723  24.7012
 15.7953  24.6184
 15.8183  24.6489
 15.8413  24.6757
 15.8643  24.6197
 15.8873  24.679
 15.9103  24.7708
 15.9332  24.698
 15.9563  24.6431
 15.9793  24.6112
 16.0023  24.6497
 16.0253  24.7455
 16.0482  24.6928
 16.0713  24.6845
 16.0943  24.6918
 16.1172  24.7561
 16.1403  24.7576
 16.1633  24.8433
 16.1863  24.9921
 16.2093  25.0714
 16.2323  25.0998
 16.2553  25.2509
 16.2783  25.2235
 16.3012  25.0146
 16.3243  24.8948
 16.3472  24.752
 16.3703  24.6836
 16.3933  24.678
 16.4163  24.8196
 16.4393  24.8254
 16.4623  24.7834
 16.4853  24.7143
 16.5083  24.647
 16.5312  24.5917
 16.5543  24.6411
 16.5773  24.6101
 16.6002  24.6511
 16.6233  24.5978
 16.6463  24.5071
 16.6693  24.5276
 16.6923  24.5309
 16.7153  24.5776
 16.7383  24.6203
 16.7613  24.6279
 16.7843  24.5878
 16.8073  24.4605
 16.8303  24.5167
 16.8533  24.495
 16.8763  24.4462
 16.8992  24.4305
 16.9223  24.4303
 16.9453  24.3578
 16.9683  24.3417
 16.9913  24.3617
 17.0143  24.3016
 17.0373  24.2134
 17.0603  24.082
 17.0832  24.1373
 17.1063  24.2843
 17.1293  24.3785
 17.1522  24.3191
 17.1753  24.2414
 17.1983  24.1451
 17.2213  24.148
 17.2443  24.1971
 17.2673  24.1219
 17.2903  24.0257
 17.3133  24.0992
 17.3362  24.184
 17.3593  24.1333
 17.3823  24.0706
 17.4053  24.0364
 17.4283  23.9975
 17.4513  23.9883
 17.4743  24.0063
 17.4973  23.9559
 17.5203  23.9523
 17.5433  23.9809
 17.5663  23.9132
 17.5893  23.7445
 17.6123  23.7588
 17.6352  23.7924
 17.6583  23.7816
 17.6813  23.7987
 17.7042  23.863
 17.7273  23.8699
 17.7503  23.7957
 17.7733  23.7753
 17.7963  23.8407
 17.8193  23.8701
 17.8423  23.8514
 17.8653  23.768
 17.8882  23.6839
 17.9113  23.7254
 17.9343  23.7387
 17.9573  23.6405
 17.9803  23.6429
 18.0033  23.7229
 18.0263  23.735
 18.0493  23.8161
 18.0723  23.9181
 18.0953  24.0165
 18.1183  23.9361
 18.1413  23.8573
 18.1643  23.6557
 18.1872  23.6411
 18.2103  23.7276
 18.2333  23.7023
 18.2563  23.5685
 18.2793  23.5301
 18.3023  23.5846
 18.3253  23.5872
 18.3483  23.6325
 18.3712  23.6048
 18.3943  23.6094
 18.4173  23.6916
 18.4402  23.6337
 18.4633  23.6068
 18.4863  23.5814
 18.5093  23.5561
 18.5323  23.5326
 18.5553  23.519
 18.5783  23.6033
 18.6013  23.5983
 18.6242  23.5327
 18.6473  23.5093
 18.6703  23.4299
 18.6933  23.5518
 18.7163  23.5265
 18.7392  23.544
 18.7623  23.5788
 18.7853  23.6109
 18.8083  23.6135
 18.8313  23.5487
 18.8543  23.5422
 18.8773  23.5209
 18.9003  23.4587
 18.9232  23.4923
 18.9463  23.5538
 18.9693  23.4967
 18.9922  23.516
 19.0153  23.5457
 19.0383  23.6229
 19.0613  23.6203
 19.0843  23.5573
 19.1073  23.5184
 19.1303  23.5572
 19.1533  23.5816
 19.1762  23.5623
 19.1993  23.5211
 19.2223  23.5448
 19.2453  23.6081
 19.2683  23.6859
 19.2913  23.6034
 19.3143  23.7009
 19.3373  23.6293
 19.3603  23.5117
 19.3833  23.5577
 19.4062  23.5552
 19.4293  23.5352
 19.4523  23.6136
 19.4752  23.5887
 19.4983  23.5319
 19.5213  23.5691
 19.5443  23.6729
 19.5673  23.6008
 19.5903  23.6967
 19.6133  23.752
 19.6363  23.8661
 19.6593  24.0054
 19.6823  24.2735
 19.7053  24.4893
 19.7283  24.4527
 19.7513  24.2967
 19.7742  24.2182
 19.7973  24.3323
 19.8203  24.573
 19.8433  24.7625
 19.8663  24.6404
 19.8893  24.2991
 19.9123  24.0725
 19.9353  23.9249
 19.9582  23.7604
 19.9813  23.5596
 20.0043  23.579
 20.0272  23.6343
 20.0503  23.6764
 20.0733  23.6404
 20.0963  23.6346
 20.1193  23.6656
 20.1423  23.6245
 20.1653  23.6611
 20.1883  23.7553
 20.2112  23.7821
 20.2343  23.7859
 20.2573  23.7459
 20.2803  23.6572
 20.3033  23.6386
 20.3263  23.7013
 20.3493  23.8048
 20.3723  23.7284
 20.3953  23.663
 20.4183  23.7083
 20.4413  23.7849
 20.4643  23.775
 20.4873  23.7334
 20.5102  23.6523
 20.5333  23.6099
 20.5563  23.6885
 20.5792  23.7029
 20.6023  23.7785
 20.6253  23.7963
 20.6483  23.747
 20.6713  23.7601
 20.6943  23.8436
 20.7173  24.0111
 20.7403  24.1061
 20.7632  24.19
 20.7863  24.2374
 20.8093  24.0874
 20.8323  23.9101
 20.8553  23.8599
 20.8783  23.8474
 20.9013  23.9336
 20.9243  23.9974
 20.9473  23.917
 20.9703  23.8516
 20.9933  23.8203
 21.0163  23.7179
 21.0393  23.762
 21.0622  23.8046
 21.0853  23.8411
 21.1083  23.8204
 21.1313  23.8921
 21.1543  23.8216
 21.1773  23.8981
 21.2003  23.93
 21.2233  23.9255
 21.2462  23.9336
 21.2693  23.9272
 21.2923  23.9175
 21.3152  23.8818
 21.3383  23.9343
 21.3613  23.9749
 21.3843  23.9739
 21.4073  23.9412
 21.4303  23.9542
 21.4533  23.988
 21.4763  24.0142
 21.4992  24.025
 21.5223  24.0351
 21.5453  24.0436
 21.5683  23.9884
 21.5913  24.0528
 21.6142  24.1066
 21.6373  24.1461
 21.6603  24.1398
 21.6833  24.1254
 21.7063  24.1475
 21.7293  24.1753
 21.7523  24.1425
 21.7753  24.1494
 21.7982  24.1517
 21.8213  24.2157
 21.8443  24.173
 21.8672  24.1723
 21.8903  24.2297
 21.9133  24.2229
 21.9363  24.2215
 21.9593  24.431
 21.9823  24.5879
 22.0053  24.3901
 22.0283  24.2166
 22.0512  24.2558
 22.0743  24.293
 22.0973  24.3115
 22.1203  24.3989
 22.1433  24.4031
 22.1663  24.2985
 22.1893  24.2476
 22.2123  24.3183
 22.2353  24.4458
 22.2583  24.4714
 22.2813  24.3775
 22.3043  24.5224
 22.3273  24.543
 22.3502  24.5195
 22.3733  24.5897
 22.3963  24.5961
 22.4193  24.5509
 22.4423  24.6072
 22.4653  24.69
 22.4883  24.5761
 22.5113  24.627
 22.5343  24.6973
 22.5573  24.6926
 22.5803  24.7539
 22.6033  24.8302
 22.6263  24.9626
 22.6493  24.9713
 22.6723  24.9068
 22.6953  25.0233
 22.7183  25.0866
 22.7413  25.1987
 22.7643  25.2855
 22.7873  25.2793
 22.8103  25.4443
 22.8333  25.5222
 22.8563  25.5549
 22.8793  25.5925
 22.9022  25.6886
 22.9253  25.9184
 22.9483  25.9885
 22.9713  26.0319
 22.9943  26.1552