File: test-data-xrd/xrd-map-34-ID-E/Data_0030.chi
F:\20151113_APS_34IDE\\Brian\Particle1\OCV\Data_0030.tif
2-Theta Angle (Degrees)
Intensity
       2000
 0.01725  0.0000000E+00
 0.04025  0.0000000E+00
 0.06325  0.0000000E+00
 0.08625  0.0000000E+00
 0.10925  0.0000000E+00
 0.13225  0.0000000E+00
 0.15525  0.0000000E+00
 0.17825  0.0000000E+00
 0.20125  0.0000000E+00
 0.22425  0.0000000E+00
 0.24725  0.0000000E+00
 0.27025  0.0000000E+00
 0.29325  0.0000000E+00
 0.31625  0.0000000E+00
 0.33925  0.0000000E+00
 0.36225  0.0000000E+00
 0.38525  0.0000000E+00
 0.40825  0.0000000E+00
 0.43125  0.0000000E+00
 0.45425  0.0000000E+00
 0.47725  0.0000000E+00
 0.50025  0.0000000E+00
 0.52325  0.0000000E+00
 0.54625  0.0000000E+00
 0.56925  0.0000000E+00
 0.59225  0.0000000E+00
 0.61525  0.0000000E+00
 0.63825  0.0000000E+00
 0.66125  0.0000000E+00
 0.68425  0.0000000E+00
 0.70725  0.0000000E+00
 0.73025  0.0000000E+00
 0.75325  0.0000000E+00
 0.77625  0.0000000E+00
 0.79925  0.0000000E+00
 0.82225  0.0000000E+00
 0.84525  0.0000000E+00
 0.86825  0.0000000E+00
 0.89125  0.0000000E+00
 0.91425  0.0000000E+00
 0.93725  0.0000000E+00
 0.96025  0.0000000E+00
 0.98325  0.0000000E+00
 1.00625  0.0000000E+00
 1.02925  0.0000000E+00
 1.05225  0.0000000E+00
 1.07525  0.0000000E+00
 1.09825  0.0000000E+00
 1.12125  0.0000000E+00
 1.14425  0.0000000E+00
 1.16725  0.0000000E+00
 1.19025  0.0000000E+00
 1.21325  0.0000000E+00
 1.23625  0.0000000E+00
 1.25925  0.0000000E+00
 1.28225  0.0000000E+00
 1.30525  0.0000000E+00
 1.32825  0.0000000E+00
 1.35125  0.0000000E+00
 1.37425  0.0000000E+00
 1.39725  0.0000000E+00
 1.42025  0.0000000E+00
 1.44325  0.0000000E+00
 1.46625  0.0000000E+00
 1.48925  0.0000000E+00
 1.51225  0.0000000E+00
 1.53525  0.0000000E+00
 1.55825  0.0000000E+00
 1.58125  0.0000000E+00
 1.60425  0.0000000E+00
 1.62725  0.0000000E+00
 1.65025  0.0000000E+00
 1.67325  0.0000000E+00
 1.69625  0.0000000E+00
 1.71925  0.0000000E+00
 1.74225  0.0000000E+00
 1.76525  0.0000000E+00
 1.78825  0.0000000E+00
 1.81125  0.0000000E+00
 1.83425  0.0000000E+00
 1.85725  0.0000000E+00
 1.88025  0.0000000E+00
 1.90325  0.0000000E+00
 1.92625  0.0000000E+00
 1.94925  0.0000000E+00
 1.97225  0.0000000E+00
 1.99525  0.0000000E+00
 2.01825  0.0000000E+00
 2.04125  0.0000000E+00
 2.06425  0.0000000E+00
 2.08725  0.0000000E+00
 2.11025  0.0000000E+00
 2.13325  0.0000000E+00
 2.15625  0.0000000E+00
 2.17925  0.0000000E+00
 2.20225  0.0000000E+00
 2.22525  0.0000000E+00
 2.24825  0.0000000E+00
 2.27125  0.0000000E+00
 2.29425  0.0000000E+00
 2.31725  0.0000000E+00
 2.34025  0.0000000E+00
 2.36325  0.0000000E+00
 2.38625  0.0000000E+00
 2.40925  0.0000000E+00
 2.43225  0.0000000E+00
 2.45525  0.0000000E+00
 2.47825  0.0000000E+00
 2.50125  0.0000000E+00
 2.52425  0.0000000E+00
 2.54725  0.0000000E+00
 2.57025  0.0000000E+00
 2.59325  0.0000000E+00
 2.61625  0.0000000E+00
 2.63925  0.0000000E+00
 2.66225  0.0000000E+00
 2.68525  0.0000000E+00
 2.70825  0.0000000E+00
 2.73125  0.0000000E+00
 2.75425  0.0000000E+00
 2.77725  0.0000000E+00
 2.80025  0.0000000E+00
 2.82325  31.6945
 2.84625  34.6514
 2.86925  35.6607
 2.89225  35.1876
 2.91525  35.7325
 2.93825  36.2075
 2.96125  36.0343
 2.98425  35.4735
 3.00725  36.3846
 3.03025  36.2904
 3.05325  35.1285
 3.07625  35.0233
 3.09925  35.6323
 3.12225  36.2124
 3.14525  36.4881
 3.16825  36.8514
 3.19125  36.5352
 3.21425  36.1959
 3.23725  35.8397
 3.26025  35.6619
 3.28325  35.6426
 3.30625  35.3833
 3.32925  35.1526
 3.35225  35.1123
 3.37525  35.3459
 3.39825  35.2901
 3.42125  34.9591
 3.44425  35.1451
 3.46725  35.0219
 3.49025  35.0345
 3.51325  34.6177
 3.53625  34.5175
 3.55925  34.0324
 3.58225  33.6022
 3.60525  33.6495
 3.62825  33.6118
 3.65125  33.6417
 3.67425  33.7464
 3.69725  33.767
 3.72025  33.4052
 3.74325  33.2066
 3.76625  33.3559
 3.78925  33.4201
 3.81225  33.1847
 3.83525  33.2998
 3.85825  33.4273
 3.88125  33.3666
 3.90425  33.0696
 3.92725  32.7802
 3.95025  32.7204
 3.97325  33.1172
 3.99625  33.3295
 4.01925  33.3035
 4.04225  33.397
 4.06525  33.3279
 4.08825  33.2701
 4.11125  33.2395
 4.13425  33.3348
 4.15725  33.2481
 4.18025  32.7311
 4.20325  32.5438
 4.22625  32.5932
 4.24925  32.7112
 4.27225  32.8688
 4.29525  32.9921
 4.31825  32.9849
 4.34125  33.0676
 4.36425  33.1009
 4.38725  33.076
 4.41025  33.0713
 4.43325  33.0436
 4.45625  32.8248
 4.47925  32.8641
 4.50225  33.0052
 4.52525  32.904
 4.54825  32.6484
 4.57125  32.684
 4.59425  32.8324
 4.61725  32.8661
 4.64025  33.1623
 4.66325  33.1625
 4.68625  33.1215
 4.70925  33.2672
 4.73225  33.0407
 4.75525  32.8692
 4.77825  32.9564
 4.80125  32.8292
 4.82425  32.9589
 4.84725  33.1488
 4.87025  33.2557
 4.89325  33.3279
 4.91625  33.5557
 4.93925  33.4495
 4.96225  33.3535
 4.98525  33.4621
 5.00825  33.5233
 5.03125  33.5572
 5.05425  33.7168
 5.07725  33.8783
 5.10025  33.9179
 5.12325  33.8727
 5.14625  34.1615
 5.16925  34.1287
 5.19225  34.1616
 5.21525  34.3929
 5.23825  34.5106
 5.26125  34.2537
 5.28425  34.2358
 5.30725  34.1605
 5.33025  34.4093
 5.35325  34.456
 5.37625  34.5392
 5.39925  34.7523
 5.42225  34.8809
 5.44525  34.8366
 5.46825  34.8699
 5.49125  34.9419
 5.51425  35.0176
 5.53725  35.1224
 5.56025  35.1788
 5.58325  35.3531
 5.60625  35.4863
 5.62925  35.4954
 5.65225  35.4547
 5.67525  35.5493
 5.69825  35.6114
 5.72125  35.7659
 5.74425  35.7828
 5.76725  35.7808
 5.79025  35.7514
 5.81325  35.7817
 5.83625  36.1286
 5.85925  36.3707
 5.88225  36.7096
 5.90525  37.201
 5.92825  38.2257
 5.95125  40.483
 5.97425  43.6706
 5.99725  44.3471
 6.02025  41.5278
 6.04325  38.5892
 6.06625  37.4385
 6.08925  37.2125
 6.11225  37.2005
 6.13525  37.1149
 6.15825  37.1501
 6.18125  37.3156
 6.20425  37.3714
 6.22725  37.4337
 6.25025  37.5322
 6.27325  37.6628
 6.29625  37.7937
 6.31925  37.9556
 6.34225  38.0881
 6.36525  38.2478
 6.38825  38.5426
 6.41125  38.8166
 6.43425  39.1446
 6.45725  39.0698
 6.48025  38.8655
 6.50325  38.9395
 6.52625  39.3294
 6.54925  39.5491
 6.57225  39.8185
 6.59525  40.0326
 6.61825  40.2107
 6.64125  40.5076
 6.66425  40.6001
 6.68725  40.6889
 6.71025  40.825
 6.73325  41.0486
 6.75625  41.0558
 6.77925  41.1878
 6.80225  41.307
 6.82525  41.4554
 6.84825  41.6232
 6.87125  41.9276
 6.89425  42.1588
 6.91725  42.2635
 6.94025  42.2407
 6.96325  42.4008
 6.98625  42.6416
 7.00925  42.7489
 7.03225  42.9242
 7.05525  43.2843
 7.07825  43.5989
 7.10125  43.6591
 7.12425  43.5623
 7.14725  43.4462
 7.17025  43.4347
 7.19325  43.506
 7.21625  43.5267
 7.23925  43.6273
 7.26225  43.8609
 7.28525  43.9905
 7.30825  44.038
 7.33125  44.0824
 7.35425  44.2822
 7.37725  44.4609
 7.40025  44.5612
 7.42325  44.4724
 7.44625  44.597
 7.46925  44.7196
 7.49225  44.7248
 7.51525  44.7604
 7.53825  44.7267
 7.56125  44.7941
 7.58425  44.8529
 7.60725  44.7804
 7.63025  44.7234
 7.65325  44.7731
 7.67625  44.8805
 7.69925  44.8313
 7.72225  44.8786
 7.74525  44.8735
 7.76825  44.8862
 7.79125  44.9027
 7.81425  44.8032
 7.83725  44.7008
 7.86025  44.5913
 7.88325  44.3442
 7.90625  44.1152
 7.92925  44.1013
 7.95225  43.9827
 7.97525  43.9427
 7.99825  43.8889
 8.02125  43.8599
 8.04425  43.782
 8.06725  43.5492
 8.09025  43.3848
 8.11325  43.4973
 8.13625  43.2496
 8.15925  42.897
 8.18225  42.6734
 8.20525  42.3098
 8.22825  41.8835
 8.25125  41.6402
 8.27425  41.4385
 8.29725  41.0969
 8.32025  40.7404
 8.34325  40.4582
 8.36625  40.2901
 8.38925  39.9556
 8.41225  39.6547
 8.43525  39.4202
 8.45825  39.1158
 8.48125  38.6177
 8.50425  38.1645
 8.52725  37.908
 8.55025  37.7054
 8.57325  37.2573
 8.59625  36.8068
 8.61925  36.4977
 8.64225  36.1841
 8.66525  35.7729
 8.68825  35.5384
 8.71125  35.2124
 8.73425  34.8919
 8.75725  34.4501
 8.78025  34.1429
 8.80325  33.7982
 8.82625  33.4529
 8.84925  33.2117
 8.87225  32.8657
 8.89525  32.5064
 8.91825  32.1357
 8.94125  31.8924
 8.96425  31.6192
 8.98725  31.3039
 9.01025  30.8534
 9.03325  30.6683
 9.05625  30.4638
 9.07925  30.2525
 9.10225  29.9909
 9.12525  29.8639
 9.14825  29.668
 9.17125  29.3321
 9.19425  29.0451
 9.21725  28.9501
 9.24025  28.6167
 9.26325  28.3123
 9.28625  28.2492
 9.30925  28.1439
 9.33225  27.9471
 9.35525  27.6272
 9.37825  27.4268
 9.40125  27.2782
 9.42425  27.103
 9.44725  27.0228
 9.47025  26.8756
 9.49325  26.6154
 9.51625  26.4582
 9.53925  26.3337
 9.56225  26.2305
 9.58525  26.1126
 9.60825  26.1016
 9.63125  25.8858
 9.65425  25.792
 9.67725  25.6237
 9.70025  25.4367
 9.72325  25.4543
 9.74625  25.3482
 9.76925  25.2677
 9.79225  25.1172
 9.81525  24.981
 9.83825  24.9312
 9.86125  24.964
 9.88425  24.9837
 9.90725  24.8602
 9.93025  24.7273
 9.95325  24.5138
 9.97625  24.493
 9.99925  24.4432
 10.0222  24.3561
 10.0453  24.3164
 10.0683  24.1125
 10.0913  23.981
 10.1143  24.0745
 10.1373  24.0591
 10.1603  24.0734
 10.1832  24.1109
 10.2063  24.1542
 10.2293  24.1493
 10.2523  24.0708
 10.2752  23.8752
 10.2982  23.8135
 10.3213  23.7809
 10.3443  23.72
 10.3673  23.5597
 10.3902  23.4852
 10.4133  23.5894
 10.4363  23.4935
 10.4593  23.3426
 10.4823  23.3617
 10.5053  23.3716
 10.5283  23.3923
 10.5512  23.4361
 10.5742  23.4186
 10.5973  23.2088
 10.6203  22.9856
 10.6433  22.9191
 10.6662  22.946
 10.6893  22.98
 10.7123  23.0075
 10.7353  23.0401
 10.7583  22.9985
 10.7813  22.9884
 10.8043  22.8653
 10.8272  22.7167
 10.8503  22.773
 10.8733  22.8737
 10.8963  22.7938
 10.9192  22.7234
 10.9422  22.79
 10.9653  22.7707
 10.9883  22.7634
 11.0113  22.7925
 11.0343  22.8115
 11.0573  22.7616
 11.0803  22.7482
 11.1033  22.7011
 11.1263  22.6768
 11.1493  22.6985
 11.1723  22.6895
 11.1953  22.6426
 11.2182  22.5658
 11.2413  22.5528
 11.2643  22.6878
 11.2873  22.7385
 11.3102  22.7389
 11.3333  22.667
 11.3563  22.6218
 11.3793  22.8005
 11.4023  23.0193
 11.4253  23.0378
 11.4483  22.9248
 11.4713  22.9357
 11.4942  22.8906
 11.5173  23.0563
 11.5403  23.7435
 11.5633  25.2492
 11.5862  25.9327
 11.6093  25.3226
 11.6323  24.0543
 11.6553  23.1356
 11.6783  22.8196
 11.7013  22.6934
 11.7243  22.6798
 11.7473  22.6369
 11.7703  22.5603
 11.7933  22.536
 11.8163  22.5837
 11.8393  22.6296
 11.8622  22.6976
 11.8853  22.6683
 11.9083  22.7562
 11.9313  22.8914
 11.9543  23.1641
 11.9773  23.3842
 12.0003  23.6322
 12.0233  23.9575
 12.0463  25.1576
 12.0693  30.469
 12.0923  35.8539
 12.1153  35.9809
 12.1382  27.2837
 12.1613  24.3263
 12.1843  23.4611
 12.2073  23.0729
 12.2302  22.8671
 12.2533  22.687
 12.2763  22.6964
 12.2993  22.8312
 12.3223  22.8816
 12.3453  22.8602
 12.3683  22.7784
 12.3913  22.784
 12.4142  22.8164
 12.4373  22.8468
 12.4603  22.8626
 12.4833  22.793
 12.5062  22.7505
 12.5292  22.8454
 12.5523  22.9978
 12.5753  22.9496
 12.5983  22.9481
 12.6212  22.958
 12.6443  22.9193
 12.6673  22.9395
 12.6903  22.9521
 12.7133  22.968
 12.7363  23.1188
 12.7593  23.1114
 12.7822  23.1496
 12.8052  23.2199
 12.8283  23.2922
 12.8513  23.2812
 12.8742  23.4589
 12.8972  23.5362
 12.9203  23.6826
 12.9433  23.8403
 12.9663  23.8575
 12.9893  23.9033
 13.0123  24.1006
 13.0353  24.3006
 13.0582  24.5281
 13.0813  24.6397
 13.1043  24.8342
 13.1273  25.1075
 13.1502  25.4028
 13.1732  25.5853
 13.1963  25.827
 13.2193  26.1346
 13.2423  26.4409
 13.2652  26.724
 13.2883  27.066
 13.3113  27.3813
 13.3343  27.6201
 13.3573  27.9496
 13.3803  28.1768
 13.4033  28.4429
 13.4262  28.7757
 13.4492  28.9831
 13.4723  29.1703
 13.4953  29.3895
 13.5183  29.5952
 13.5412  29.8045
 13.5643  29.869
 13.5873  29.9416
 13.6103  29.9879
 13.6333  30.0619
 13.6563  29.9806
 13.6793  30.0726
 13.7022  29.9662
 13.7253  30.0166
 13.7483  29.9605
 13.7713  29.8705
 13.7942  29.8337
 13.8172  29.9377
 13.8403  30.2162
 13.8633  30.4997
 13.8863  31.2613
 13.9093  33.3066
 13.9323  36.3797
 13.9553  38.2504
 13.9783  37.4813
 14.0013  34.4434
 14.0243  31.6208
 14.0473  29.6739
 14.0703  28.621
 14.0932  28.0448
 14.1163  27.6519
 14.1393  27.4479
 14.1623  27.3384
 14.1852  27.0904
 14.2083  26.9095
 14.2313  26.6916
 14.2543  26.551
 14.2773  26.5466
 14.3003  26.5291
 14.3233  26.4731
 14.3463  26.4012
 14.3692  26.3351
 14.3923  26.1461
 14.4153  26.1605
 14.4383  26.1312
 14.4612  25.9821
 14.4843  25.7972
 14.5073  25.7821
 14.5303  25.7078
 14.5533  25.6647
 14.5763  25.7263
 14.5993  25.6661
 14.6223  25.5402
 14.6453  25.4833
 14.6683  25.4123
 14.6913  25.4659
 14.7143  25.3869
 14.7372  25.2376
 14.7603  25.1899
 14.7833  25.0576
 14.8063  24.9894
 14.8293  25.0648
 14.8523  25.1065
 14.8753  24.9986
 14.8983  25.0971
 14.9213  25.1196
 14.9443  25.1086
 14.9673  25.0054
 14.9903  24.9725
 15.0132  25.1087
 15.0363  25.1103
 15.0593  24.9617
 15.0823  24.8558
 15.1052  24.9497
 15.1283  25.1381
 15.1513  25.4608
 15.1743  26.0531
 15.1973  26.3543
 15.2203  26.3175
 15.2433  25.6017
 15.2663  25.0846
 15.2892  24.9745
 15.3123  24.9597
 15.3353  24.8365
 15.3583  24.7467
 15.3812  24.8193
 15.4043  24.9093
 15.4273  24.8161
 15.4503  24.6751
 15.4733  24.5927
 15.4963  24.6201
 15.5193  24.6033
 15.5423  24.6458
 15.5653  24.7326
 15.5883  24.719
 15.6113  24.6949
 15.6343  24.7297
 15.6572  24.8147
 15.6803  24.8214
 15.7033  24.6858
 15.7263  24.6538
 15.7492  24.6155
 15.7723  24.6078
 15.7953  24.704
 15.8183  24.8656
 15.8413  24.902
 15.8643  24.6949
 15.8873  24.6269
 15.9103  24.6831
 15.9332  24.7528
 15.9563  24.7238
 15.9793  24.7007
 16.0023  24.8469
 16.0253  24.8527
 16.0482  24.7633
 16.0713  24.7426
 16.0943  24.8878
 16.1172  25.0138
 16.1403  24.965
 16.1633  24.9275
 16.1863  24.9669
 16.2093  25.0594
 16.2323  25.2664
 16.2553  25.466
 16.2783  25.5134
 16.3012  25.2597
 16.3243  24.9876
 16.3472  24.8286
 16.3703  24.6464
 16.3933  24.5901
 16.4163  24.6951
 16.4393  24.7335
 16.4623  24.7022
 16.4853  24.723
 16.5083  24.7552
 16.5312  24.7158
 16.5543  24.74
 16.5773  24.6709
 16.6002  24.7428
 16.6233  24.7519
 16.6463  24.757
 16.6693  24.7627
 16.6923  24.7699
 16.7153  24.697
 16.7383  24.6273
 16.7613  24.6087
 16.7843  24.4973
 16.8073  24.4758
 16.8303  24.4826
 16.8533  24.5356
 16.8763  24.4587
 16.8992  24.4179
 16.9223  24.4844
 16.9453  24.4927
 16.9683  24.4105
 16.9913  24.3955
 17.0143  24.3679
 17.0373  24.2952
 17.0603  24.2724
 17.0832  24.3365
 17.1063  24.3171
 17.1293  24.3714
 17.1522  24.3957
 17.1753  24.3288
 17.1983  24.3353
 17.2213  24.3173
 17.2443  24.2184
 17.2673  24.151
 17.2903  24.1604
 17.3133  24.2414
 17.3362  24.236
 17.3593  24.2766
 17.3823  24.2543
 17.4053  24.1224
 17.4283  24.0458
 17.4513  24.0258
 17.4743  24.1031
 17.4973  24.1249
 17.5203  24.0305
 17.5433  23.9922
 17.5663  23.9525
 17.5893  23.9186
 17.6123  23.9508
 17.6352  24.0094
 17.6583  23.9523
 17.6813  23.9425
 17.7042  23.878
 17.7273  23.8717
 17.7503  23.8259
 17.7733  23.9352
 17.7963  24.0884
 17.8193  24.0301
 17.8423  23.9003
 17.8653  23.8355
 17.8882  23.9353
 17.9113  24.0224
 17.9343  24.0323
 17.9573  24.165
 17.9803  24.5112
 18.0033  24.8209
 18.0263  25.3152
 18.0493  25.986
 18.0723  26.3905
 18.0953  26.3468
 18.1183  25.6755
 18.1413  24.9104
 18.1643  24.2224
 18.1872  23.9105
 18.2103  23.9365
 18.2333  23.9063
 18.2563  23.8587
 18.2793  23.7574
 18.3023  23.731
 18.3253  23.763
 18.3483  23.7597
 18.3712  23.7876
 18.3943  23.8579
 18.4173  23.8114
 18.4402  23.7233
 18.4633  23.7148
 18.4863  23.5964
 18.5093  23.5655
 18.5323  23.5507
 18.5553  23.5987
 18.5783  23.6
 18.6013  23.675
 18.6242  23.6794
 18.6473  23.6087
 18.6703  23.5759
 18.6933  23.565
 18.7163  23.5393
 18.7392  23.5503
 18.7623  23.5286
 18.7853  23.5636
 18.8083  23.5779
 18.8313  23.5268
 18.8543  23.4835
 18.8773  23.4786
 18.9003  23.5363
 18.9232  23.6435
 18.9463  23.6863
 18.9693  23.6572
 18.9922  23.6224
 19.0153  23.6748
 19.0383  23.6735
 19.0613  23.617
 19.0843  23.6293
 19.1073  23.489
 19.1303  23.5142
 19.1533  23.5914
 19.1762  23.5674
 19.1993  23.5621
 19.2223  23.6398
 19.2453  23.6544
 19.2683  23.7195
 19.2913  23.6593
 19.3143  23.7536
 19.3373  23.7979
 19.3603  23.764
 19.3833  23.8185
 19.4062  23.8529
 19.4293  23.8099
 19.4523  23.7553
 19.4752  23.7227
 19.4983  23.7024
 19.5213  23.7398
 19.5443  23.868
 19.5673  23.8915
 19.5903  23.9077
 19.6133  24.0857
 19.6363  24.3749
 19.6593  24.9368
 19.6823  25.8723
 19.7053  26.6138
 19.7283  26.4387
 19.7513  25.7567
 19.7742  25.2831
 19.7973  25.5753
 19.8203  27.2672
 19.8433  29.858
 19.8663  29.9384
 19.8893  27.6433
 19.9123  25.7401
 19.9353  24.6669
 19.9582  24.2099
 19.9813  24.0149
 20.0043  23.903
 20.0272  23.9238
 20.0503  23.9792
 20.0733  23.9584
 20.0963  23.9191
 20.1193  23.8682
 20.1423  23.8179
 20.1653  23.8323
 20.1883  23.9221
 20.2112  23.8644
 20.2343  23.8808
 20.2573  23.7787
 20.2803  23.7997
 20.3033  23.785
 20.3263  23.8328
 20.3493  23.8527
 20.3723  23.8306
 20.3953  23.8653
 20.4183  23.9258
 20.4413  23.9081
 20.4643  23.8292
 20.4873  23.7139
 20.5102  23.7382
 20.5333  23.8281
 20.5563  23.9429
 20.5792  23.9623
 20.6023  24.0225
 20.6253  23.9735
 20.6483  23.9844
 20.6713  24.1285
 20.6943  24.4712
 20.7173  24.8851
 20.7403  25.2414
 20.7632  25.3851
 20.7863  25.1148
 20.8093  24.6884
 20.8323  24.2635
 20.8553  24.0973
 20.8783  24.0211
 20.9013  24.0473
 20.9243  24.0303
 20.9473  24.0871
 20.9703  24.0167
 20.9933  23.931
 21.0163  23.9708
 21.0393  23.9438
 21.0622  23.9448
 21.0853  23.9988
 21.1083  23.9995
 21.1313  24.0717
 21.1543  23.9674
 21.1773  23.9115
 21.2003  23.8695
 21.2233  23.8243
 21.2462  23.8565
 21.2693  24.0079
 21.2923  24.1127
 21.3152  24.0466
 21.3383  23.9722
 21.3613  24.0021
 21.3843  24.0592
 21.4073  24.0481
 21.4303  23.9785
 21.4533  23.9154
 21.4763  23.9749
 21.4992  24.036
 21.5223  24.06
 21.5453  24.0536
 21.5683  24.0435
 21.5913  24.16
 21.6142  24.1256
 21.6373  24.0731
 21.6603  24.0549
 21.6833  24.0127
 21.7063  24.0334
 21.7293  24.0616
 21.7523  24.1431
 21.7753  24.2744
 21.7982  24.3408
 21.8213  24.3062
 21.8443  24.2134
 21.8672  24.1492
 21.8903  24.1183
 21.9133  24.157
 21.9363  24.2135
 21.9593  24.3102
 21.9823  24.2883
 22.0053  24.2251
 22.0283  24.3221
 22.0512  24.4168
 22.0743  24.4198
 22.0973  24.3702
 22.1203  24.342
 22.1433  24.4735
 22.1663  24.4615
 22.1893  24.3373
 22.2123  24.4147
 22.2353  24.525
 22.2583  24.5429
 22.2813  24.516
 22.3043  24.5353
 22.3273  24.5564
 22.3502  24.6398
 22.3733  24.6041
 22.3963  24.5523
 22.4193  24.54
 22.4423  24.6244
 22.4653  24.6724
 22.4883  24.7064
 22.5113  24.7302
 22.5343  24.8563
 22.5573  24.9263
 22.5803  24.9154
 22.6033  24.9504
 22.6263  25.0079
 22.6493  24.9613
 22.6723  24.9216
 22.6953  25.1143
 22.7183  25.2
 22.7413  25.2735
 22.7643  25.2868
 22.7873  25.2424
 22.8103  25.2903
 22.8333  25.4271
 22.8563  25.4126
 22.8793  25.5775
 22.9022  25.795
 22.9253  25.9583
 22.9483  26.0485
 22.9713  26.2048
 22.9943  26.5336