File: test-data-xrd/xrd-map-34-ID-E/Data_0016.chi
F:\20151113_APS_34IDE\\Brian\Particle1\OCV\Data_0016.tif
2-Theta Angle (Degrees)
Intensity
       2000
 0.01725  0.0000000E+00
 0.04025  0.0000000E+00
 0.06325  0.0000000E+00
 0.08625  0.0000000E+00
 0.10925  0.0000000E+00
 0.13225  0.0000000E+00
 0.15525  0.0000000E+00
 0.17825  0.0000000E+00
 0.20125  0.0000000E+00
 0.22425  0.0000000E+00
 0.24725  0.0000000E+00
 0.27025  0.0000000E+00
 0.29325  0.0000000E+00
 0.31625  0.0000000E+00
 0.33925  0.0000000E+00
 0.36225  0.0000000E+00
 0.38525  0.0000000E+00
 0.40825  0.0000000E+00
 0.43125  0.0000000E+00
 0.45425  0.0000000E+00
 0.47725  0.0000000E+00
 0.50025  0.0000000E+00
 0.52325  0.0000000E+00
 0.54625  0.0000000E+00
 0.56925  0.0000000E+00
 0.59225  0.0000000E+00
 0.61525  0.0000000E+00
 0.63825  0.0000000E+00
 0.66125  0.0000000E+00
 0.68425  0.0000000E+00
 0.70725  0.0000000E+00
 0.73025  0.0000000E+00
 0.75325  0.0000000E+00
 0.77625  0.0000000E+00
 0.79925  0.0000000E+00
 0.82225  0.0000000E+00
 0.84525  0.0000000E+00
 0.86825  0.0000000E+00
 0.89125  0.0000000E+00
 0.91425  0.0000000E+00
 0.93725  0.0000000E+00
 0.96025  0.0000000E+00
 0.98325  0.0000000E+00
 1.00625  0.0000000E+00
 1.02925  0.0000000E+00
 1.05225  0.0000000E+00
 1.07525  0.0000000E+00
 1.09825  0.0000000E+00
 1.12125  0.0000000E+00
 1.14425  0.0000000E+00
 1.16725  0.0000000E+00
 1.19025  0.0000000E+00
 1.21325  0.0000000E+00
 1.23625  0.0000000E+00
 1.25925  0.0000000E+00
 1.28225  0.0000000E+00
 1.30525  0.0000000E+00
 1.32825  0.0000000E+00
 1.35125  0.0000000E+00
 1.37425  0.0000000E+00
 1.39725  0.0000000E+00
 1.42025  0.0000000E+00
 1.44325  0.0000000E+00
 1.46625  0.0000000E+00
 1.48925  0.0000000E+00
 1.51225  0.0000000E+00
 1.53525  0.0000000E+00
 1.55825  0.0000000E+00
 1.58125  0.0000000E+00
 1.60425  0.0000000E+00
 1.62725  0.0000000E+00
 1.65025  0.0000000E+00
 1.67325  0.0000000E+00
 1.69625  0.0000000E+00
 1.71925  0.0000000E+00
 1.74225  0.0000000E+00
 1.76525  0.0000000E+00
 1.78825  0.0000000E+00
 1.81125  0.0000000E+00
 1.83425  0.0000000E+00
 1.85725  0.0000000E+00
 1.88025  0.0000000E+00
 1.90325  0.0000000E+00
 1.92625  0.0000000E+00
 1.94925  0.0000000E+00
 1.97225  0.0000000E+00
 1.99525  0.0000000E+00
 2.01825  0.0000000E+00
 2.04125  0.0000000E+00
 2.06425  0.0000000E+00
 2.08725  0.0000000E+00
 2.11025  0.0000000E+00
 2.13325  0.0000000E+00
 2.15625  0.0000000E+00
 2.17925  0.0000000E+00
 2.20225  0.0000000E+00
 2.22525  0.0000000E+00
 2.24825  0.0000000E+00
 2.27125  0.0000000E+00
 2.29425  0.0000000E+00
 2.31725  0.0000000E+00
 2.34025  0.0000000E+00
 2.36325  0.0000000E+00
 2.38625  0.0000000E+00
 2.40925  0.0000000E+00
 2.43225  0.0000000E+00
 2.45525  0.0000000E+00
 2.47825  0.0000000E+00
 2.50125  0.0000000E+00
 2.52425  0.0000000E+00
 2.54725  0.0000000E+00
 2.57025  0.0000000E+00
 2.59325  0.0000000E+00
 2.61625  0.0000000E+00
 2.63925  0.0000000E+00
 2.66225  0.0000000E+00
 2.68525  0.0000000E+00
 2.70825  0.0000000E+00
 2.73125  0.0000000E+00
 2.75425  0.0000000E+00
 2.77725  0.0000000E+00
 2.80025  0.0000000E+00
 2.82325  34.1313
 2.84625  34.83
 2.86925  34.7611
 2.89225  34.6635
 2.91525  35.5562
 2.93825  36.4708
 2.96125  36.7662
 2.98425  36.505
 3.00725  37.3138
 3.03025  36.7226
 3.05325  35.7493
 3.07625  35.4766
 3.09925  35.1877
 3.12225  35.5186
 3.14525  35.7615
 3.16825  35.3212
 3.19125  34.8936
 3.21425  34.7911
 3.23725  35.0971
 3.26025  35.3581
 3.28325  35.138
 3.30625  34.9133
 3.32925  35.1463
 3.35225  34.9803
 3.37525  34.3525
 3.39825  34.1043
 3.42125  34.2138
 3.44425  34.3391
 3.46725  34.2336
 3.49025  34.2972
 3.51325  34.2477
 3.53625  34.5685
 3.55925  34.7006
 3.58225  34.3226
 3.60525  34.2748
 3.62825  33.6601
 3.65125  33.3429
 3.67425  33.4107
 3.69725  33.3234
 3.72025  32.9653
 3.74325  33.2331
 3.76625  33.2287
 3.78925  32.8186
 3.81225  32.2053
 3.83525  32.4036
 3.85825  32.7279
 3.88125  33.1047
 3.90425  33.1691
 3.92725  32.8443
 3.95025  32.6952
 3.97325  32.7134
 3.99625  32.7729
 4.01925  32.9194
 4.04225  32.9258
 4.06525  32.9079
 4.08825  32.8832
 4.11125  32.6887
 4.13425  32.4867
 4.15725  32.6986
 4.18025  32.818
 4.20325  32.8737
 4.22625  32.862
 4.24925  32.7047
 4.27225  32.398
 4.29525  32.1151
 4.31825  32.4633
 4.34125  32.6513
 4.36425  32.6832
 4.38725  32.6504
 4.41025  32.6274
 4.43325  32.6564
 4.45625  32.4031
 4.47925  32.288
 4.50225  32.4962
 4.52525  32.7384
 4.54825  32.6498
 4.57125  32.6374
 4.59425  32.6101
 4.61725  32.4874
 4.64025  32.4853
 4.66325  32.6275
 4.68625  32.4709
 4.70925  32.472
 4.73225  32.487
 4.75525  32.5095
 4.77825  32.8048
 4.80125  32.7997
 4.82425  32.6763
 4.84725  32.6302
 4.87025  32.8864
 4.89325  32.9117
 4.91625  33.0882
 4.93925  33.2247
 4.96225  33.2489
 4.98525  33.2576
 5.00825  33.429
 5.03125  33.458
 5.05425  33.6294
 5.07725  33.6738
 5.10025  33.8148
 5.12325  33.8096
 5.14625  33.924
 5.16925  33.8938
 5.19225  33.8691
 5.21525  33.9299
 5.23825  34.0986
 5.26125  34.2383
 5.28425  34.2197
 5.30725  34.3823
 5.33025  34.676
 5.35325  34.7363
 5.37625  34.7511
 5.39925  35.1262
 5.42225  34.9626
 5.44525  34.8609
 5.46825  34.9568
 5.49125  35.1423
 5.51425  35.2949
 5.53725  35.1775
 5.56025  35.0259
 5.58325  35.015
 5.60625  35.1889
 5.62925  35.2782
 5.65225  35.1868
 5.67525  35.3853
 5.69825  35.3567
 5.72125  35.2922
 5.74425  35.4699
 5.76725  35.5586
 5.79025  35.5137
 5.81325  35.8665
 5.83625  36.1584
 5.85925  36.2175
 5.88225  36.7347
 5.90525  37.7111
 5.92825  39.176
 5.95125  42.8285
 5.97425  48.1071
 5.99725  50.3577
 6.02025  46.0831
 6.04325  41.2572
 6.06625  38.7512
 6.08925  37.6528
 6.11225  37.3498
 6.13525  37.1507
 6.15825  37.2264
 6.18125  37.37
 6.20425  37.2288
 6.22725  37.279
 6.25025  37.3989
 6.27325  37.5495
 6.29625  37.7807
 6.31925  38.0015
 6.34225  38.2433
 6.36525  38.2182
 6.38825  38.3218
 6.41125  38.3419
 6.43425  38.6168
 6.45725  38.8114
 6.48025  38.8437
 6.50325  38.8998
 6.52625  39.0904
 6.54925  39.2701
 6.57225  39.4405
 6.59525  39.6781
 6.61825  39.9309
 6.64125  40.0896
 6.66425  40.295
 6.68725  40.2639
 6.71025  40.3418
 6.73325  40.6819
 6.75625  41.0638
 6.77925  41.1762
 6.80225  41.3073
 6.82525  41.4706
 6.84825  41.6547
 6.87125  41.6557
 6.89425  41.7054
 6.91725  41.9186
 6.94025  41.9832
 6.96325  42.2884
 6.98625  42.4179
 7.00925  42.3243
 7.03225  42.4254
 7.05525  42.6848
 7.07825  43.0711
 7.10125  43.334
 7.12425  43.4661
 7.14725  43.4214
 7.17025  43.3724
 7.19325  43.4468
 7.21625  43.5513
 7.23925  43.6636
 7.26225  43.723
 7.28525  43.8854
 7.30825  43.9776
 7.33125  44.196
 7.35425  44.3983
 7.37725  44.4999
 7.40025  44.4387
 7.42325  44.3722
 7.44625  44.3656
 7.46925  44.5337
 7.49225  44.6487
 7.51525  44.67
 7.53825  44.45
 7.56125  44.3601
 7.58425  44.5478
 7.60725  44.5789
 7.63025  44.548
 7.65325  44.5988
 7.67625  44.635
 7.69925  44.6593
 7.72225  44.7533
 7.74525  44.7738
 7.76825  44.4819
 7.79125  44.3455
 7.81425  44.3292
 7.83725  44.2948
 7.86025  44.3659
 7.88325  44.2448
 7.90625  44.2055
 7.92925  44.2859
 7.95225  44.1654
 7.97525  43.9667
 7.99825  43.9726
 8.02125  43.8499
 8.04425  43.5115
 8.06725  43.3256
 8.09025  43.3527
 8.11325  43.3536
 8.13625  43.1161
 8.15925  42.8678
 8.18225  42.5511
 8.20525  42.3621
 8.22825  42.1255
 8.25125  41.8886
 8.27425  41.4542
 8.29725  41.0217
 8.32025  40.755
 8.34325  40.6856
 8.36625  40.6463
 8.38925  40.1675
 8.41225  39.6897
 8.43525  39.3312
 8.45825  39.0513
 8.48125  38.7432
 8.50425  38.4206
 8.52725  38.0849
 8.55025  37.5649
 8.57325  37.1379
 8.59625  36.7678
 8.61925  36.5226
 8.64225  36.4276
 8.66525  35.9956
 8.68825  35.4394
 8.71125  35.0742
 8.73425  34.7611
 8.75725  34.3363
 8.78025  34.021
 8.80325  33.8376
 8.82625  33.6273
 8.84925  33.417
 8.87225  32.9407
 8.89525  32.5622
 8.91825  32.333
 8.94125  32.0639
 8.96425  31.7029
 8.98725  31.3294
 9.01025  30.872
 9.03325  30.7763
 9.05625  30.6141
 9.07925  30.3566
 9.10225  30.0672
 9.12525  29.8066
 9.14825  29.6481
 9.17125  29.4278
 9.19425  29.0855
 9.21725  28.829
 9.24025  28.6929
 9.26325  28.601
 9.28625  28.469
 9.30925  28.221
 9.33225  28.0379
 9.35525  27.8869
 9.37825  27.7639
 9.40125  27.65
 9.42425  27.5834
 9.44725  27.4685
 9.47025  27.3188
 9.49325  27.0175
 9.51625  26.8614
 9.53925  26.7309
 9.56225  26.5767
 9.58525  26.4447
 9.60825  26.3891
 9.63125  26.2246
 9.65425  26.0398
 9.67725  25.8581
 9.70025  25.7824
 9.72325  25.7366
 9.74625  25.6317
 9.76925  25.4658
 9.79225  25.3841
 9.81525  25.3243
 9.83825  25.2666
 9.86125  25.0899
 9.88425  24.9931
 9.90725  25.0815
 9.93025  25.1028
 9.95325  25.0048
 9.97625  24.9954
 9.99925  24.9211
 10.0222  24.8075
 10.0453  24.6753
 10.0683  24.5477
 10.0913  24.5413
 10.1143  24.5268
 10.1373  24.5023
 10.1603  24.5297
 10.1832  24.4289
 10.2063  24.3518
 10.2293  24.2042
 10.2523  24.0635
 10.2752  24.0049
 10.2982  23.9397
 10.3213  23.8682
 10.3443  23.794
 10.3673  23.7909
 10.3902  23.8115
 10.4133  23.8459
 10.4363  23.7293
 10.4593  23.6614
 10.4823  23.7059
 10.5053  23.6685
 10.5283  23.4822
 10.5512  23.4275
 10.5742  23.3928
 10.5973  23.2975
 10.6203  23.3702
 10.6433  23.4114
 10.6662  23.3186
 10.6893  23.194
 10.7123  23.1587
 10.7353  23.118
 10.7583  23.0907
 10.7813  23.0579
 10.8043  23.0363
 10.8272  23.0301
 10.8503  23.0873
 10.8733  23.179
 10.8963  23.0962
 10.9192  23.1437
 10.9422  23.1537
 10.9653  23.1336
 10.9883  23.0098
 11.0113  22.888
 11.0343  22.876
 11.0573  22.8166
 11.0803  22.914
 11.1033  22.8845
 11.1263  22.7932
 11.1493  22.7771
 11.1723  22.8739
 11.1953  22.8488
 11.2182  22.7684
 11.2413  22.7466
 11.2643  22.7851
 11.2873  22.7495
 11.3102  22.8377
 11.3333  22.9515
 11.3563  22.9523
 11.3793  23.0731
 11.4023  23.3003
 11.4253  23.322
 11.4483  23.3452
 11.4713  23.6381
 11.4942  23.9117
 11.5173  24.6279
 11.5403  27.5844
 11.5633  35.8807
 11.5862  43.2682
 11.6093  42.3751
 11.6323  33.3893
 11.6553  26.2629
 11.6783  24.3176
 11.7013  23.5304
 11.7243  23.2229
 11.7473  23.1244
 11.7703  22.9745
 11.7933  22.9275
 11.8163  22.9166
 11.8393  22.9155
 11.8622  22.842
 11.8853  22.846
 11.9083  23.0701
 11.9313  23.2686
 11.9543  23.7865
 11.9773  24.3517
 12.0003  24.4477
 12.0233  24.0615
 12.0463  24.1605
 12.0693  25.1833
 12.0923  26.3888
 12.1153  26.3829
 12.1382  25.2188
 12.1613  24.0213
 12.1843  23.2971
 12.2073  22.9348
 12.2302  22.8942
 12.2533  22.9224
 12.2763  22.8649
 12.2993  22.8768
 12.3223  22.9016
 12.3453  22.8846
 12.3683  22.853
 12.3913  22.7816
 12.4142  22.8195
 12.4373  22.8922
 12.4603  22.9336
 12.4833  22.9181
 12.5062  22.9337
 12.5292  23.0444
 12.5523  23.0964
 12.5753  22.9762
 12.5983  22.9405
 12.6212  23.0271
 12.6443  23.0903
 12.6673  23.2337
 12.6903  23.2541
 12.7133  23.3486
 12.7363  23.2973
 12.7593  23.3474
 12.7822  23.4041
 12.8052  23.4472
 12.8283  23.5775
 12.8513  23.6412
 12.8742  23.6327
 12.8972  23.68
 12.9203  23.7912
 12.9433  23.8933
 12.9663  24.0814
 12.9893  24.1818
 13.0123  24.1965
 13.0353  24.3683
 13.0582  24.5627
 13.0813  24.7138
 13.1043  24.9664
 13.1273  25.2071
 13.1502  25.4843
 13.1732  25.7185
 13.1963  25.9893
 13.2193  26.2905
 13.2423  26.7006
 13.2652  27.0006
 13.2883  27.272
 13.3113  27.3929
 13.3343  27.6682
 13.3573  28.0733
 13.3803  28.4185
 13.4033  28.7506
 13.4262  28.9144
 13.4492  29.0734
 13.4723  29.1708
 13.4953  29.3127
 13.5183  29.5206
 13.5412  29.7258
 13.5643  29.8407
 13.5873  30.0164
 13.6103  30.0285
 13.6333  30.0503
 13.6563  29.959
 13.6793  29.9668
 13.7022  29.8216
 13.7253  29.72
 13.7483  29.6978
 13.7713  29.6936
 13.7942  29.6513
 13.8172  29.5245
 13.8403  29.5398
 13.8633  29.7064
 13.8863  30.3547
 13.9093  31.9765
 13.9323  34.381
 13.9553  36.1001
 13.9783  35.1979
 14.0013  32.3486
 14.0243  29.9276
 14.0473  28.7178
 14.0703  28.2398
 14.0932  28.0414
 14.1163  27.8494
 14.1393  27.6804
 14.1623  27.525
 14.1852  27.3836
 14.2083  27.1397
 14.2313  26.9112
 14.2543  26.7773
 14.2773  26.641
 14.3003  26.5491
 14.3233  26.4961
 14.3463  26.4796
 14.3692  26.4292
 14.3923  26.3826
 14.4153  26.2523
 14.4383  26.2012
 14.4612  26.1081
 14.4843  25.9713
 14.5073  25.9342
 14.5303  25.859
 14.5533  25.7953
 14.5763  25.6561
 14.5993  25.6093
 14.6223  25.663
 14.6453  25.7237
 14.6683  25.6209
 14.6913  25.5476
 14.7143  25.4947
 14.7372  25.4649
 14.7603  25.4584
 14.7833  25.4486
 14.8063  25.3659
 14.8293  25.2178
 14.8523  25.2294
 14.8753  25.1984
 14.8983  25.1532
 14.9213  25.1768
 14.9443  25.1294
 14.9673  25.0734
 14.9903  25.1172
 15.0132  25.0975
 15.0363  25.1358
 15.0593  25.1123
 15.0823  25.1215
 15.1052  25.1401
 15.1283  25.3301
 15.1513  25.6955
 15.1743  26.3598
 15.1973  26.8214
 15.2203  26.9381
 15.2433  26.3452
 15.2663  25.5905
 15.2892  25.1597
 15.3123  24.9731
 15.3353  24.9777
 15.3583  25.0253
 15.3812  25.0281
 15.4043  24.8761
 15.4273  24.6636
 15.4503  24.6039
 15.4733  24.6515
 15.4963  24.7315
 15.5193  24.8686
 15.5423  24.9582
 15.5653  24.9636
 15.5883  24.978
 15.6113  24.9196
 15.6343  24.7199
 15.6572  24.7562
 15.6803  24.8546
 15.7033  25.013
 15.7263  24.9956
 15.7492  24.8795
 15.7723  24.9084
 15.7953  24.8762
 15.8183  24.8928
 15.8413  24.8749
 15.8643  24.8353
 15.8873  24.8541
 15.9103  24.9449
 15.9332  24.9251
 15.9563  24.8533
 15.9793  24.8929
 16.0023  24.9087
 16.0253  24.9094
 16.0482  24.8608
 16.0713  24.909
 16.0943  24.9671
 16.1172  25.0195
 16.1403  25.1215
 16.1633  25.2274
 16.1863  25.3539
 16.2093  25.6838
 16.2323  26.047
 16.2553  26.3274
 16.2783  26.2225
 16.3012  25.6539
 16.3243  25.2627
 16.3472  25.126
 16.3703  24.943
 16.3933  25.0185
 16.4163  25.0349
 16.4393  24.9345
 16.4623  24.7333
 16.4853  24.7902
 16.5083  24.8916
 16.5312  24.7934
 16.5543  24.7679
 16.5773  24.7981
 16.6002  24.8589
 16.6233  24.8786
 16.6463  24.8122
 16.6693  24.7472
 16.6923  24.8077
 16.7153  24.815
 16.7383  24.7843
 16.7613  24.7583
 16.7843  24.6664
 16.8073  24.7194
 16.8303  24.7426
 16.8533  24.6935
 16.8763  24.6283
 16.8992  24.5497
 16.9223  24.5735
 16.9453  24.6159
 16.9683  24.6318
 16.9913  24.5964
 17.0143  24.4574
 17.0373  24.4504
 17.0603  24.4515
 17.0832  24.4731
 17.1063  24.4296
 17.1293  24.4019
 17.1522  24.3683
 17.1753  24.3842
 17.1983  24.4267
 17.2213  24.3814
 17.2443  24.3655
 17.2673  24.3658
 17.2903  24.345
 17.3133  24.3392
 17.3362  24.4019
 17.3593  24.3295
 17.3823  24.2229
 17.4053  24.1713
 17.4283  24.1999
 17.4513  24.251
 17.4743  24.3838
 17.4973  24.3758
 17.5203  24.2433
 17.5433  24.126
 17.5663  24.0988
 17.5893  24.0553
 17.6123  23.9954
 17.6352  23.9837
 17.6583  23.9774
 17.6813  24.0354
 17.7042  24.0863
 17.7273  24.0914
 17.7503  24.0445
 17.7733  24.022
 17.7963  24.0495
 17.8193  24.0244
 17.8423  24.0057
 17.8653  23.9698
 17.8882  24.0277
 17.9113  24.1718
 17.9343  24.2059
 17.9573  24.1712
 17.9803  24.323
 18.0033  24.5384
 18.0263  24.723
 18.0493  25.1554
 18.0723  25.7601
 18.0953  26.2711
 18.1183  26.0982
 18.1413  25.4657
 18.1643  24.6703
 18.1872  24.245
 18.2103  24.1428
 18.2333  23.9216
 18.2563  23.9054
 18.2793  23.9371
 18.3023  23.9454
 18.3253  23.8897
 18.3483  23.9397
 18.3712  23.9373
 18.3943  23.9652
 18.4173  23.9656
 18.4402  23.9147
 18.4633  23.9383
 18.4863  23.9383
 18.5093  23.8068
 18.5323  23.7814
 18.5553  23.8128
 18.5783  23.8526
 18.6013  23.9357
 18.6242  23.9271
 18.6473  23.8556
 18.6703  23.7623
 18.6933  23.8234
 18.7163  23.7863
 18.7392  23.5955
 18.7623  23.6456
 18.7853  23.7632
 18.8083  23.7778
 18.8313  23.7514
 18.8543  23.7037
 18.8773  23.7138
 18.9003  23.7708
 18.9232  23.8014
 18.9463  23.8774
 18.9693  23.7177
 18.9922  23.6452
 19.0153  23.7895
 19.0383  23.8984
 19.0613  23.9578
 19.0843  23.9294
 19.1073  23.8347
 19.1303  23.8616
 19.1533  23.84
 19.1762  23.8053
 19.1993  23.8484
 19.2223  23.816
 19.2453  23.7037
 19.2683  23.8405
 19.2913  23.8913
 19.3143  23.8825
 19.3373  23.8654
 19.3603  23.9295
 19.3833  23.9673
 19.4062  23.9629
 19.4293  23.9273
 19.4523  23.9045
 19.4752  23.9222
 19.4983  23.9154
 19.5213  23.9705
 19.5443  24.0477
 19.5673  24.0517
 19.5903  24.1983
 19.6133  24.3485
 19.6363  24.6848
 19.6593  25.2071
 19.6823  26.6322
 19.7053  28.5612
 19.7283  29.5771
 19.7513  28.8037
 19.7742  26.9434
 19.7973  26.7073
 19.8203  27.8022
 19.8433  29.2887
 19.8663  29.4542
 19.8893  27.5025
 19.9123  25.9031
 19.9353  25.0411
 19.9582  24.5875
 19.9813  24.2669
 20.0043  24.1562
 20.0272  24.0987
 20.0503  24.1359
 20.0733  24.151
 20.0963  24.1692
 20.1193  24.2106
 20.1423  24.1711
 20.1653  24.1514
 20.1883  24.0506
 20.2112  23.9464
 20.2343  23.9858
 20.2573  24.0561
 20.2803  24.0616
 20.3033  24.0857
 20.3263  23.9696
 20.3493  23.9945
 20.3723  24.0033
 20.3953  24.0118
 20.4183  24.0664
 20.4413  24.0998
 20.4643  24.0962
 20.4873  23.9921
 20.5102  23.9803
 20.5333  24.0127
 20.5563  24.0314
 20.5792  24.0808
 20.6023  24.2742
 20.6253  24.3753
 20.6483  24.4489
 20.6713  24.6383
 20.6943  25.1196
 20.7173  26.3786
 20.7403  27.9106
 20.7632  28.522
 20.7863  27.5762
 20.8093  26.144
 20.8323  25.0732
 20.8553  24.5657
 20.8783  24.4272
 20.9013  24.4167
 20.9243  24.422
 20.9473  24.3721
 20.9703  24.2893
 20.9933  24.27
 21.0163  24.2518
 21.0393  24.2653
 21.0622  24.1825
 21.0853  24.1457
 21.1083  24.0887
 21.1313  24.1497
 21.1543  24.0671
 21.1773  24.1065
 21.2003  24.1318
 21.2233  24.1046
 21.2462  24.1501
 21.2693  24.5022
 21.2923  24.5855
 21.3152  24.4795
 21.3383  24.2497
 21.3613  24.3523
 21.3843  24.4521
 21.4073  24.2954
 21.4303  24.1926
 21.4533  24.1637
 21.4763  24.1293
 21.4992  24.1988
 21.5223  24.226
 21.5453  24.2438
 21.5683  24.2897
 21.5913  24.3497
 21.6142  24.3904
 21.6373  24.4499
 21.6603  24.4783
 21.6833  24.4246
 21.7063  24.4294
 21.7293  24.4819
 21.7523  24.3716
 21.7753  24.3417
 21.7982  24.4212
 21.8213  24.4638
 21.8443  24.3785
 21.8672  24.4517
 21.8903  24.3595
 21.9133  24.3922
 21.9363  24.4658
 21.9593  24.4552
 21.9823  24.5083
 22.0053  24.5497
 22.0283  24.6143
 22.0512  24.6436
 22.0743  24.611
 22.0973  24.5672
 22.1203  24.6573
 22.1433  24.6335
 22.1663  24.7064
 22.1893  24.66
 22.2123  24.6491
 22.2353  24.6617
 22.2583  24.6643
 22.2813  24.7737
 22.3043  24.8546
 22.3273  24.7979
 22.3502  24.8052
 22.3733  24.822
 22.3963  24.799
 22.4193  24.7055
 22.4423  24.7666
 22.4653  24.7882
 22.4883  24.7949
 22.5113  24.9634
 22.5343  25.0018
 22.5573  25.0376
 22.5803  25.1375
 22.6033  25.2157
 22.6263  25.2047
 22.6493  25.2411
 22.6723  25.2624
 22.6953  25.3532
 22.7183  25.4494
 22.7413  25.5016
 22.7643  25.5231
 22.7873  25.5279
 22.8103  25.6486
 22.8333  25.7179
 22.8563  25.7049
 22.8793  25.739
 22.9022  25.8453
 22.9253  26.1215
 22.9483  26.176
 22.9713  26.3238
 22.9943  26.5068