File: test-data-xrd/xrd-map-34-ID-E/Data_0133.chi
F:\20151113_APS_34IDE\\Brian\Particle1\OCV\Data_0133.tif
2-Theta Angle (Degrees)
Intensity
       2000
 0.01725  0.0000000E+00
 0.04025  0.0000000E+00
 0.06325  0.0000000E+00
 0.08625  0.0000000E+00
 0.10925  0.0000000E+00
 0.13225  0.0000000E+00
 0.15525  0.0000000E+00
 0.17825  0.0000000E+00
 0.20125  0.0000000E+00
 0.22425  0.0000000E+00
 0.24725  0.0000000E+00
 0.27025  0.0000000E+00
 0.29325  0.0000000E+00
 0.31625  0.0000000E+00
 0.33925  0.0000000E+00
 0.36225  0.0000000E+00
 0.38525  0.0000000E+00
 0.40825  0.0000000E+00
 0.43125  0.0000000E+00
 0.45425  0.0000000E+00
 0.47725  0.0000000E+00
 0.50025  0.0000000E+00
 0.52325  0.0000000E+00
 0.54625  0.0000000E+00
 0.56925  0.0000000E+00
 0.59225  0.0000000E+00
 0.61525  0.0000000E+00
 0.63825  0.0000000E+00
 0.66125  0.0000000E+00
 0.68425  0.0000000E+00
 0.70725  0.0000000E+00
 0.73025  0.0000000E+00
 0.75325  0.0000000E+00
 0.77625  0.0000000E+00
 0.79925  0.0000000E+00
 0.82225  0.0000000E+00
 0.84525  0.0000000E+00
 0.86825  0.0000000E+00
 0.89125  0.0000000E+00
 0.91425  0.0000000E+00
 0.93725  0.0000000E+00
 0.96025  0.0000000E+00
 0.98325  0.0000000E+00
 1.00625  0.0000000E+00
 1.02925  0.0000000E+00
 1.05225  0.0000000E+00
 1.07525  0.0000000E+00
 1.09825  0.0000000E+00
 1.12125  0.0000000E+00
 1.14425  0.0000000E+00
 1.16725  0.0000000E+00
 1.19025  0.0000000E+00
 1.21325  0.0000000E+00
 1.23625  0.0000000E+00
 1.25925  0.0000000E+00
 1.28225  0.0000000E+00
 1.30525  0.0000000E+00
 1.32825  0.0000000E+00
 1.35125  0.0000000E+00
 1.37425  0.0000000E+00
 1.39725  0.0000000E+00
 1.42025  0.0000000E+00
 1.44325  0.0000000E+00
 1.46625  0.0000000E+00
 1.48925  0.0000000E+00
 1.51225  0.0000000E+00
 1.53525  0.0000000E+00
 1.55825  0.0000000E+00
 1.58125  0.0000000E+00
 1.60425  0.0000000E+00
 1.62725  0.0000000E+00
 1.65025  0.0000000E+00
 1.67325  0.0000000E+00
 1.69625  0.0000000E+00
 1.71925  0.0000000E+00
 1.74225  0.0000000E+00
 1.76525  0.0000000E+00
 1.78825  0.0000000E+00
 1.81125  0.0000000E+00
 1.83425  0.0000000E+00
 1.85725  0.0000000E+00
 1.88025  0.0000000E+00
 1.90325  0.0000000E+00
 1.92625  0.0000000E+00
 1.94925  0.0000000E+00
 1.97225  0.0000000E+00
 1.99525  0.0000000E+00
 2.01825  0.0000000E+00
 2.04125  0.0000000E+00
 2.06425  0.0000000E+00
 2.08725  0.0000000E+00
 2.11025  0.0000000E+00
 2.13325  0.0000000E+00
 2.15625  0.0000000E+00
 2.17925  0.0000000E+00
 2.20225  0.0000000E+00
 2.22525  0.0000000E+00
 2.24825  0.0000000E+00
 2.27125  0.0000000E+00
 2.29425  0.0000000E+00
 2.31725  0.0000000E+00
 2.34025  0.0000000E+00
 2.36325  0.0000000E+00
 2.38625  0.0000000E+00
 2.40925  0.0000000E+00
 2.43225  0.0000000E+00
 2.45525  0.0000000E+00
 2.47825  0.0000000E+00
 2.50125  0.0000000E+00
 2.52425  0.0000000E+00
 2.54725  0.0000000E+00
 2.57025  0.0000000E+00
 2.59325  0.0000000E+00
 2.61625  0.0000000E+00
 2.63925  0.0000000E+00
 2.66225  0.0000000E+00
 2.68525  0.0000000E+00
 2.70825  0.0000000E+00
 2.73125  0.0000000E+00
 2.75425  0.0000000E+00
 2.77725  0.0000000E+00
 2.80025  0.0000000E+00
 2.82325  31.0876
 2.84625  32.8468
 2.86925  33.0106
 2.89225  33.834
 2.91525  34.6863
 2.93825  34.9704
 2.96125  35.0345
 2.98425  35.7331
 3.00725  36.2355
 3.03025  35.827
 3.05325  35.115
 3.07625  35.6832
 3.09925  36.4643
 3.12225  35.6775
 3.14525  35.714
 3.16825  35.8377
 3.19125  35.7868
 3.21425  35.7314
 3.23725  35.8767
 3.26025  35.776
 3.28325  36.0094
 3.30625  36.0845
 3.32925  35.8126
 3.35225  35.5687
 3.37525  35.0906
 3.39825  34.8765
 3.42125  35.1652
 3.44425  35.2411
 3.46725  35.0964
 3.49025  35.1188
 3.51325  34.8301
 3.53625  34.5781
 3.55925  34.5865
 3.58225  34.1519
 3.60525  33.8079
 3.62825  33.3996
 3.65125  33.4469
 3.67425  33.8053
 3.69725  33.74
 3.72025  33.2785
 3.74325  33.1682
 3.76625  33.456
 3.78925  33.1765
 3.81225  32.8581
 3.83525  33.0611
 3.85825  33.1951
 3.88125  33.1426
 3.90425  32.8658
 3.92725  32.7485
 3.95025  32.791
 3.97325  33.0061
 3.99625  33.1416
 4.01925  33.0928
 4.04225  33.0059
 4.06525  32.8663
 4.08825  32.7209
 4.11125  32.8639
 4.13425  32.648
 4.15725  32.3896
 4.18025  32.1474
 4.20325  32.2632
 4.22625  32.3466
 4.24925  32.0101
 4.27225  31.9682
 4.29525  32.1682
 4.31825  32.5363
 4.34125  32.6991
 4.36425  32.4585
 4.38725  32.4748
 4.41025  32.4895
 4.43325  32.421
 4.45625  32.5261
 4.47925  32.6259
 4.50225  32.545
 4.52525  32.6947
 4.54825  32.6646
 4.57125  32.6124
 4.59425  32.7544
 4.61725  32.8392
 4.64025  32.7237
 4.66325  32.9832
 4.68625  33.0107
 4.70925  32.9216
 4.73225  32.9725
 4.75525  33.2721
 4.77825  32.9782
 4.80125  32.6795
 4.82425  32.6666
 4.84725  32.9015
 4.87025  33.1384
 4.89325  33.2339
 4.91625  33.1678
 4.93925  32.9445
 4.96225  32.9236
 4.98525  33.0148
 5.00825  33.0677
 5.03125  33.2425
 5.05425  33.4245
 5.07725  33.5368
 5.10025  33.6239
 5.12325  33.5983
 5.14625  33.7185
 5.16925  33.8597
 5.19225  34.0861
 5.21525  34.2429
 5.23825  34.1627
 5.26125  33.9654
 5.28425  33.8896
 5.30725  33.9143
 5.33025  34.1922
 5.35325  34.4462
 5.37625  34.5729
 5.39925  34.6806
 5.42225  34.4693
 5.44525  34.5119
 5.46825  34.8463
 5.49125  35.104
 5.51425  35.276
 5.53725  35.0039
 5.56025  35.0297
 5.58325  35.022
 5.60625  35.1209
 5.62925  35.2421
 5.65225  35.347
 5.67525  35.2189
 5.69825  35.2565
 5.72125  35.3608
 5.74425  35.466
 5.76725  35.4245
 5.79025  35.5242
 5.81325  35.8545
 5.83625  36.05
 5.85925  35.8116
 5.88225  35.7553
 5.90525  36.0948
 5.92825  36.5334
 5.95125  37.7874
 5.97425  39.298
 5.99725  39.8592
 6.02025  39.1223
 6.04325  37.8924
 6.06625  37.1075
 6.08925  37.0149
 6.11225  36.9225
 6.13525  36.9829
 6.15825  36.8737
 6.18125  36.8584
 6.20425  36.9088
 6.22725  37.2184
 6.25025  37.4639
 6.27325  37.6363
 6.29625  37.766
 6.31925  37.7658
 6.34225  37.8915
 6.36525  38.136
 6.38825  38.4232
 6.41125  38.3963
 6.43425  38.4594
 6.45725  38.5555
 6.48025  38.7517
 6.50325  39.1962
 6.52625  39.561
 6.54925  39.5264
 6.57225  39.6255
 6.59525  39.8067
 6.61825  40.0316
 6.64125  40.2096
 6.66425  40.3965
 6.68725  40.4794
 6.71025  40.5685
 6.73325  40.8741
 6.75625  41.0859
 6.77925  41.1433
 6.80225  41.0944
 6.82525  41.211
 6.84825  41.5061
 6.87125  41.6779
 6.89425  41.8438
 6.91725  42.0056
 6.94025  42.1395
 6.96325  42.3498
 6.98625  42.4019
 7.00925  42.5132
 7.03225  42.5804
 7.05525  42.5684
 7.07825  42.668
 7.10125  42.78
 7.12425  43.0586
 7.14725  43.4159
 7.17025  43.6801
 7.19325  43.5512
 7.21625  43.457
 7.23925  43.5792
 7.26225  43.8906
 7.28525  43.9884
 7.30825  43.9593
 7.33125  43.9737
 7.35425  44.1075
 7.37725  44.2743
 7.40025  44.4128
 7.42325  44.4407
 7.44625  44.5937
 7.46925  44.8903
 7.49225  44.8203
 7.51525  44.7041
 7.53825  44.5684
 7.56125  44.5768
 7.58425  44.7106
 7.60725  44.7562
 7.63025  44.6854
 7.65325  44.5748
 7.67625  44.4381
 7.69925  44.6336
 7.72225  44.7541
 7.74525  44.6973
 7.76825  44.5457
 7.79125  44.4486
 7.81425  44.3442
 7.83725  44.3604
 7.86025  44.275
 7.88325  43.98
 7.90625  43.9021
 7.92925  44.0996
 7.95225  44.2412
 7.97525  43.8362
 7.99825  43.6203
 8.02125  43.4793
 8.04425  43.2988
 8.06725  43.2865
 8.09025  43.4258
 8.11325  43.32
 8.13625  42.996
 8.15925  42.6788
 8.18225  42.4889
 8.20525  42.1108
 8.22825  41.7789
 8.25125  41.5521
 8.27425  41.3197
 8.29725  40.934
 8.32025  40.5226
 8.34325  40.2123
 8.36625  39.9992
 8.38925  39.6498
 8.41225  39.3197
 8.43525  39.0323
 8.45825  38.6666
 8.48125  38.3467
 8.50425  37.9585
 8.52725  37.5387
 8.55025  37.1702
 8.57325  36.9117
 8.59625  36.5737
 8.61925  36.2659
 8.64225  36.0145
 8.66525  35.6869
 8.68825  35.3237
 8.71125  34.9591
 8.73425  34.5402
 8.75725  34.2842
 8.78025  33.9727
 8.80325  33.5229
 8.82625  33.1013
 8.84925  32.8447
 8.87225  32.7302
 8.89525  32.3578
 8.91825  31.9949
 8.94125  31.7109
 8.96425  31.5331
 8.98725  31.1892
 9.01025  30.8878
 9.03325  30.5612
 9.05625  30.2581
 9.07925  30.1052
 9.10225  29.8099
 9.12525  29.4878
 9.14825  29.311
 9.17125  29.2456
 9.19425  29.062
 9.21725  28.7764
 9.24025  28.4155
 9.26325  28.1714
 9.28625  28.0798
 9.30925  27.8528
 9.33225  27.6265
 9.35525  27.4712
 9.37825  27.3697
 9.40125  27.1835
 9.42425  26.9583
 9.44725  26.8448
 9.47025  26.7473
 9.49325  26.69
 9.51625  26.5347
 9.53925  26.3689
 9.56225  26.3234
 9.58525  26.0336
 9.60825  25.7931
 9.63125  25.5429
 9.65425  25.5123
 9.67725  25.3984
 9.70025  25.3501
 9.72325  25.3787
 9.74625  25.3466
 9.76925  25.321
 9.79225  25.1744
 9.81525  25.0384
 9.83825  24.9349
 9.86125  24.8944
 9.88425  24.7494
 9.90725  24.7528
 9.93025  24.7394
 9.95325  24.6319
 9.97625  24.5207
 9.99925  24.4658
 10.0222  24.3379
 10.0453  24.3136
 10.0683  24.2223
 10.0913  24.0785
 10.1143  24.096
 10.1373  24.1101
 10.1603  23.9944
 10.1832  23.8832
 10.2063  23.8103
 10.2293  23.7689
 10.2523  23.6633
 10.2752  23.6533
 10.2982  23.6224
 10.3213  23.5765
 10.3443  23.5243
 10.3673  23.3892
 10.3902  23.3673
 10.4133  23.4634
 10.4363  23.3104
 10.4593  23.2599
 10.4823  23.2935
 10.5053  23.3406
 10.5283  23.2959
 10.5512  23.1435
 10.5742  23.1961
 10.5973  23.1392
 10.6203  23.0861
 10.6433  22.9699
 10.6662  22.9496
 10.6893  22.911
 10.7123  22.8566
 10.7353  22.8527
 10.7583  22.8882
 10.7813  22.8685
 10.8043  22.7725
 10.8272  22.7161
 10.8503  22.7104
 10.8733  22.6769
 10.8963  22.6118
 10.9192  22.7311
 10.9422  22.6772
 10.9653  22.6715
 10.9883  22.5956
 11.0113  22.4855
 11.0343  22.4275
 11.0573  22.4727
 11.0803  22.5715
 11.1033  22.5933
 11.1263  22.592
 11.1493  22.5651
 11.1723  22.6101
 11.1953  22.5733
 11.2182  22.4271
 11.2413  22.3829
 11.2643  22.5025
 11.2873  22.4579
 11.3102  22.3575
 11.3333  22.3141
 11.3563  22.3217
 11.3793  22.3578
 11.4023  22.4766
 11.4253  22.5601
 11.4483  22.471
 11.4713  22.402
 11.4942  22.3932
 11.5173  22.3575
 11.5403  22.5226
 11.5633  22.8739
 11.5862  23.2236
 11.6093  23.1283
 11.6323  22.7967
 11.6553  22.5391
 11.6783  22.456
 11.7013  22.34
 11.7243  22.2951
 11.7473  22.3918
 11.7703  22.4315
 11.7933  22.4386
 11.8163  22.4377
 11.8393  22.3206
 11.8622  22.2422
 11.8853  22.3003
 11.9083  22.4837
 11.9313  22.5513
 11.9543  22.6276
 11.9773  22.6943
 12.0003  22.7093
 12.0233  22.6875
 12.0463  22.6775
 12.0693  22.767
 12.0923  22.8412
 12.1153  22.7879
 12.1382  22.7091
 12.1613  22.6074
 12.1843  22.4466
 12.2073  22.4065
 12.2302  22.3724
 12.2533  22.39
 12.2763  22.4463
 12.2993  22.6294
 12.3223  23.0051
 12.3453  22.7138
 12.3683  22.7231
 12.3913  22.7119
 12.4142  22.5821
 12.4373  22.4781
 12.4603  22.5047
 12.4833  22.599
 12.5062  22.7002
 12.5292  22.7081
 12.5523  22.788
 12.5753  22.7282
 12.5983  22.6803
 12.6212  22.7578
 12.6443  22.8233
 12.6673  22.8376
 12.6903  22.822
 12.7133  22.8938
 12.7363  23.0117
 12.7593  23.0571
 12.7822  23.0531
 12.8052  22.9989
 12.8283  22.9945
 12.8513  23.0601
 12.8742  23.2124
 12.8972  23.2742
 12.9203  23.4638
 12.9433  23.6442
 12.9663  23.7933
 12.9893  23.9481
 13.0123  24.0364
 13.0353  24.214
 13.0582  24.4749
 13.0813  24.6763
 13.1043  24.8782
 13.1273  25.0717
 13.1502  25.2569
 13.1732  25.499
 13.1963  25.8124
 13.2193  26.0811
 13.2423  26.4585
 13.2652  26.7031
 13.2883  26.875
 13.3113  26.979
 13.3343  27.2437
 13.3573  27.5676
 13.3803  27.9385
 13.4033  28.3344
 13.4262  28.5321
 13.4492  28.7827
 13.4723  29.011
 13.4953  29.2909
 13.5183  29.3788
 13.5412  29.4996
 13.5643  29.6799
 13.5873  29.8191
 13.6103  29.8339
 13.6333  29.7409
 13.6563  29.6926
 13.6793  29.6609
 13.7022  29.5581
 13.7253  29.3699
 13.7483  29.2433
 13.7713  29.0934
 13.7942  29.0737
 13.8172  29.0045
 13.8403  28.8725
 13.8633  28.7028
 13.8863  28.6128
 13.9093  28.7058
 13.9323  28.8543
 13.9553  28.9724
 13.9783  28.7604
 14.0013  28.283
 14.0243  27.84
 14.0473  27.4495
 14.0703  27.3269
 14.0932  27.1801
 14.1163  27.1278
 14.1393  27.0069
 14.1623  26.8488
 14.1852  26.671
 14.2083  26.511
 14.2313  26.4951
 14.2543  26.3937
 14.2773  26.1729
 14.3003  26.0676
 14.3233  26.0625
 14.3463  26.061
 14.3692  25.9987
 14.3923  25.8839
 14.4153  25.8513
 14.4383  25.7926
 14.4612  25.756
 14.4843  25.6542
 14.5073  25.5898
 14.5303  25.4975
 14.5533  25.4839
 14.5763  25.3756
 14.5993  25.1609
 14.6223  25.1219
 14.6453  25.1739
 14.6683  25.19
 14.6913  25.1412
 14.7143  25.1314
 14.7372  25.207
 14.7603  25.4373
 14.7833  25.506
 14.8063  25.5194
 14.8293  25.592
 14.8523  25.428
 14.8753  24.9722
 14.8983  24.7802
 14.9213  24.7565
 14.9443  24.6857
 14.9673  24.6576
 14.9903  24.6783
 15.0132  24.6985
 15.0363  24.7076
 15.0593  24.7146
 15.0823  24.7294
 15.1052  24.6311
 15.1283  24.6034
 15.1513  24.7146
 15.1743  24.8137
 15.1973  24.7626
 15.2203  24.6766
 15.2433  24.6356
 15.2663  24.5921
 15.2892  24.4897
 15.3123  24.45
 15.3353  24.478
 15.3583  24.4537
 15.3812  24.417
 15.4043  24.3299
 15.4273  24.3127
 15.4503  24.4929
 15.4733  24.5317
 15.4963  24.4554
 15.5193  24.4331
 15.5423  24.3421
 15.5653  24.2891
 15.5883  24.3211
 15.6113  24.3857
 15.6343  24.3904
 15.6572  24.3568
 15.6803  24.427
 15.7033  24.4876
 15.7263  24.4712
 15.7492  24.3744
 15.7723  24.5055
 15.7953  24.611
 15.8183  24.5994
 15.8413  24.5471
 15.8643  24.4776
 15.8873  24.4358
 15.9103  24.4287
 15.9332  24.4225
 15.9563  24.4774
 15.9793  24.5314
 16.0023  24.6161
 16.0253  24.6562
 16.0482  24.7088
 16.0713  24.766
 16.0943  24.6509
 16.1172  24.6645
 16.1403  24.7648
 16.1633  24.9642
 16.1863  25.4236
 16.2093  26.8427
 16.2323  29.2286
 16.2553  30.6114
 16.2783  28.918
 16.3012  26.3197
 16.3243  25.1768
 16.3472  24.8359
 16.3703  24.5879
 16.3933  24.6121
 16.4163  24.6899
 16.4393  24.6687
 16.4623  24.6318
 16.4853  24.6233
 16.5083  24.6277
 16.5312  24.541
 16.5543  24.5746
 16.5773  24.5675
 16.6002  24.5683
 16.6233  24.4341
 16.6463  24.3534
 16.6693  24.397
 16.6923  24.3571
 16.7153  24.3908
 16.7383  24.4145
 16.7613  24.2559
 16.7843  24.2317
 16.8073  24.3288
 16.8303  24.3257
 16.8533  24.2547
 16.8763  24.4299
 16.8992  24.3907
 16.9223  24.3061
 16.9453  24.2372
 16.9683  24.2079
 16.9913  24.2748
 17.0143  24.3101
 17.0373  24.3118
 17.0603  24.2471
 17.0832  24.2594
 17.1063  24.2408
 17.1293  24.2432
 17.1522  24.2626
 17.1753  24.2768
 17.1983  24.2535
 17.2213  24.2281
 17.2443  24.1171
 17.2673  24.0402
 17.2903  24.0716
 17.3133  24.1331
 17.3362  24.0375
 17.3593  23.9707
 17.3823  23.9313
 17.4053  23.8737
 17.4283  23.8102
 17.4513  23.8665
 17.4743  23.9375
 17.4973  23.8261
 17.5203  23.7116
 17.5433  23.6978
 17.5663  23.6761
 17.5893  23.6096
 17.6123  23.6642
 17.6352  23.6536
 17.6583  23.5834
 17.6813  23.6968
 17.7042  23.7057
 17.7273  23.6122
 17.7503  23.5721
 17.7733  23.5821
 17.7963  23.5992
 17.8193  23.5749
 17.8423  23.5784
 17.8653  23.5699
 17.8882  23.505
 17.9113  23.578
 17.9343  23.6591
 17.9573  23.6154
 17.9803  23.5499
 18.0033  23.6344
 18.0263  23.6116
 18.0493  23.6208
 18.0723  23.7039
 18.0953  23.8207
 18.1183  23.8767
 18.1413  23.8213
 18.1643  23.6234
 18.1872  23.4739
 18.2103  23.455
 18.2333  23.4151
 18.2563  23.4298
 18.2793  23.5255
 18.3023  23.5468
 18.3253  23.4799
 18.3483  23.4749
 18.3712  23.5351
 18.3943  23.5821
 18.4173  23.5338
 18.4402  23.3961
 18.4633  23.3199
 18.4863  23.3225
 18.5093  23.3876
 18.5323  23.3849
 18.5553  23.3572
 18.5783  23.4442
 18.6013  23.4392
 18.6242  23.3759
 18.6473  23.3689
 18.6703  23.3631
 18.6933  23.3802
 18.7163  23.3585
 18.7392  23.34
 18.7623  23.3512
 18.7853  23.3338
 18.8083  23.3067
 18.8313  23.2733
 18.8543  23.1917
 18.8773  23.2144
 18.9003  23.2744
 18.9232  23.4389
 18.9463  23.4836
 18.9693  23.4244
 18.9922  23.3824
 19.0153  23.3994
 19.0383  23.4336
 19.0613  23.4619
 19.0843  23.4444
 19.1073  23.3338
 19.1303  23.3445
 19.1533  23.4036
 19.1762  23.4606
 19.1993  23.5758
 19.2223  23.5727
 19.2453  23.3526
 19.2683  23.2981
 19.2913  23.2566
 19.3143  23.3497
 19.3373  23.4311
 19.3603  23.3708
 19.3833  23.4183
 19.4062  23.6806
 19.4293  23.6531
 19.4523  23.4582
 19.4752  23.4647
 19.4983  23.5137
 19.5213  23.5047
 19.5443  23.5249
 19.5673  23.5038
 19.5903  23.4926
 19.6133  23.5185
 19.6363  23.5802
 19.6593  23.6807
 19.6823  23.794
 19.7053  23.9273
 19.7283  23.9488
 19.7513  23.87
 19.7742  23.7907
 19.7973  23.8009
 19.8203  23.8649
 19.8433  23.9951
 19.8663  24.0293
 19.8893  23.933
 19.9123  23.7798
 19.9353  23.5812
 19.9582  23.5649
 19.9813  23.5897
 20.0043  23.5862
 20.0272  23.5741
 20.0503  23.5461
 20.0733  23.5007
 20.0963  23.5258
 20.1193  23.5553
 20.1423  23.5116
 20.1653  23.5239
 20.1883  23.5076
 20.2112  23.4909
 20.2343  23.5646
 20.2573  23.585
 20.2803  23.4877
 20.3033  23.5143
 20.3263  23.5061
 20.3493  23.5395
 20.3723  23.5203
 20.3953  23.4262
 20.4183  23.5421
 20.4413  23.565
 20.4643  23.6161
 20.4873  23.6069
 20.5102  23.5543
 20.5333  23.5777
 20.5563  23.6275
 20.5792  23.6598
 20.6023  23.6931
 20.6253  23.7623
 20.6483  23.7561
 20.6713  23.7361
 20.6943  23.7562
 20.7173  23.8862
 20.7403  24.008
 20.7632  24.174
 20.7863  24.0843
 20.8093  23.9247
 20.8323  23.8105
 20.8553  23.7686
 20.8783  23.7862
 20.9013  23.7157
 20.9243  23.733
 20.9473  23.833
 20.9703  23.8146
 20.9933  23.7423
 21.0163  23.6702
 21.0393  23.663
 21.0622  23.7521
 21.0853  23.7907
 21.1083  23.6907
 21.1313  23.78
 21.1543  23.7541
 21.1773  23.7118
 21.2003  23.6486
 21.2233  23.675
 21.2462  23.7203
 21.2693  23.8453
 21.2923  23.8307
 21.3152  23.709
 21.3383  23.7597
 21.3613  23.8421
 21.3843  23.8458
 21.4073  23.8313
 21.4303  23.8673
 21.4533  23.8058
 21.4763  23.9185
 21.4992  23.9545
 21.5223  23.8901
 21.5453  23.9574
 21.5683  24.0223
 21.5913  23.9593
 21.6142  23.9078
 21.6373  23.8888
 21.6603  24.0185
 21.6833  24.0571
 21.7063  23.9886
 21.7293  23.9874
 21.7523  23.9505
 21.7753  23.9106
 21.7982  23.9884
 21.8213  24.1021
 21.8443  24.0387
 21.8672  24.0882
 21.8903  24.064
 21.9133  23.9962
 21.9363  23.9974
 21.9593  24.0508
 21.9823  24.088
 22.0053  24.0683
 22.0283  24.0921
 22.0512  24.1369
 22.0743  24.1563
 22.0973  24.1521
 22.1203  24.1953
 22.1433  24.2229
 22.1663  24.1647
 22.1893  24.1613
 22.2123  24.3657
 22.2353  24.6689
 22.2583  24.3573
 22.2813  24.1954
 22.3043  24.3057
 22.3273  24.4139
 22.3502  24.4058
 22.3733  24.3958
 22.3963  24.3718
 22.4193  24.4443
 22.4423  24.5383
 22.4653  24.5911
 22.4883  24.5625
 22.5113  24.6662
 22.5343  24.8005
 22.5573  24.8516
 22.5803  24.7781
 22.6033  24.7699
 22.6263  24.8483
 22.6493  24.8088
 22.6723  24.8208
 22.6953  24.9356
 22.7183  24.9734
 22.7413  25.0997
 22.7643  25.1541
 22.7873  25.1065
 22.8103  25.1553
 22.8333  25.3383
 22.8563  25.3855
 22.8793  25.4283
 22.9022  25.4813
 22.9253  25.625
 22.9483  25.7084
 22.9713  25.7758
 22.9943  25.9392