File: test-data-xrd/xrd-map-34-ID-E/Data_0069.chi
F:\20151113_APS_34IDE\\Brian\Particle1\OCV\Data_0069.tif
2-Theta Angle (Degrees)
Intensity
       2000
 0.01725  0.0000000E+00
 0.04025  0.0000000E+00
 0.06325  0.0000000E+00
 0.08625  0.0000000E+00
 0.10925  0.0000000E+00
 0.13225  0.0000000E+00
 0.15525  0.0000000E+00
 0.17825  0.0000000E+00
 0.20125  0.0000000E+00
 0.22425  0.0000000E+00
 0.24725  0.0000000E+00
 0.27025  0.0000000E+00
 0.29325  0.0000000E+00
 0.31625  0.0000000E+00
 0.33925  0.0000000E+00
 0.36225  0.0000000E+00
 0.38525  0.0000000E+00
 0.40825  0.0000000E+00
 0.43125  0.0000000E+00
 0.45425  0.0000000E+00
 0.47725  0.0000000E+00
 0.50025  0.0000000E+00
 0.52325  0.0000000E+00
 0.54625  0.0000000E+00
 0.56925  0.0000000E+00
 0.59225  0.0000000E+00
 0.61525  0.0000000E+00
 0.63825  0.0000000E+00
 0.66125  0.0000000E+00
 0.68425  0.0000000E+00
 0.70725  0.0000000E+00
 0.73025  0.0000000E+00
 0.75325  0.0000000E+00
 0.77625  0.0000000E+00
 0.79925  0.0000000E+00
 0.82225  0.0000000E+00
 0.84525  0.0000000E+00
 0.86825  0.0000000E+00
 0.89125  0.0000000E+00
 0.91425  0.0000000E+00
 0.93725  0.0000000E+00
 0.96025  0.0000000E+00
 0.98325  0.0000000E+00
 1.00625  0.0000000E+00
 1.02925  0.0000000E+00
 1.05225  0.0000000E+00
 1.07525  0.0000000E+00
 1.09825  0.0000000E+00
 1.12125  0.0000000E+00
 1.14425  0.0000000E+00
 1.16725  0.0000000E+00
 1.19025  0.0000000E+00
 1.21325  0.0000000E+00
 1.23625  0.0000000E+00
 1.25925  0.0000000E+00
 1.28225  0.0000000E+00
 1.30525  0.0000000E+00
 1.32825  0.0000000E+00
 1.35125  0.0000000E+00
 1.37425  0.0000000E+00
 1.39725  0.0000000E+00
 1.42025  0.0000000E+00
 1.44325  0.0000000E+00
 1.46625  0.0000000E+00
 1.48925  0.0000000E+00
 1.51225  0.0000000E+00
 1.53525  0.0000000E+00
 1.55825  0.0000000E+00
 1.58125  0.0000000E+00
 1.60425  0.0000000E+00
 1.62725  0.0000000E+00
 1.65025  0.0000000E+00
 1.67325  0.0000000E+00
 1.69625  0.0000000E+00
 1.71925  0.0000000E+00
 1.74225  0.0000000E+00
 1.76525  0.0000000E+00
 1.78825  0.0000000E+00
 1.81125  0.0000000E+00
 1.83425  0.0000000E+00
 1.85725  0.0000000E+00
 1.88025  0.0000000E+00
 1.90325  0.0000000E+00
 1.92625  0.0000000E+00
 1.94925  0.0000000E+00
 1.97225  0.0000000E+00
 1.99525  0.0000000E+00
 2.01825  0.0000000E+00
 2.04125  0.0000000E+00
 2.06425  0.0000000E+00
 2.08725  0.0000000E+00
 2.11025  0.0000000E+00
 2.13325  0.0000000E+00
 2.15625  0.0000000E+00
 2.17925  0.0000000E+00
 2.20225  0.0000000E+00
 2.22525  0.0000000E+00
 2.24825  0.0000000E+00
 2.27125  0.0000000E+00
 2.29425  0.0000000E+00
 2.31725  0.0000000E+00
 2.34025  0.0000000E+00
 2.36325  0.0000000E+00
 2.38625  0.0000000E+00
 2.40925  0.0000000E+00
 2.43225  0.0000000E+00
 2.45525  0.0000000E+00
 2.47825  0.0000000E+00
 2.50125  0.0000000E+00
 2.52425  0.0000000E+00
 2.54725  0.0000000E+00
 2.57025  0.0000000E+00
 2.59325  0.0000000E+00
 2.61625  0.0000000E+00
 2.63925  0.0000000E+00
 2.66225  0.0000000E+00
 2.68525  0.0000000E+00
 2.70825  0.0000000E+00
 2.73125  0.0000000E+00
 2.75425  0.0000000E+00
 2.77725  0.0000000E+00
 2.80025  0.0000000E+00
 2.82325  34.6307
 2.84625  32.3571
 2.86925  32.6426
 2.89225  33.9464
 2.91525  35.0844
 2.93825  35.0557
 2.96125  34.5178
 2.98425  34.7752
 3.00725  35.7643
 3.03025  35.5299
 3.05325  35.5698
 3.07625  36.1275
 3.09925  36.5226
 3.12225  35.885
 3.14525  35.6831
 3.16825  35.8885
 3.19125  36.0056
 3.21425  35.6352
 3.23725  34.6779
 3.26025  34.5031
 3.28325  34.2998
 3.30625  33.848
 3.32925  33.7466
 3.35225  33.6345
 3.37525  33.6688
 3.39825  33.973
 3.42125  33.8689
 3.44425  33.7719
 3.46725  34.123
 3.49025  34.2733
 3.51325  33.5271
 3.53625  33.0053
 3.55925  32.7855
 3.58225  32.6422
 3.60525  32.9754
 3.62825  33.0063
 3.65125  32.6251
 3.67425  32.7298
 3.69725  32.73
 3.72025  32.1648
 3.74325  32.06
 3.76625  32.2957
 3.78925  32.3228
 3.81225  32.2855
 3.83525  32.5585
 3.85825  32.8589
 3.88125  33.0215
 3.90425  32.6051
 3.92725  32.1407
 3.95025  32.4032
 3.97325  32.7977
 3.99625  33.0213
 4.01925  32.789
 4.04225  32.6624
 4.06525  32.7763
 4.08825  32.6793
 4.11125  32.3636
 4.13425  32.1886
 4.15725  32.0381
 4.18025  31.6219
 4.20325  31.5726
 4.22625  31.6569
 4.24925  31.41
 4.27225  31.5616
 4.29525  31.8314
 4.31825  32.1376
 4.34125  32.4218
 4.36425  32.2424
 4.38725  32.29
 4.41025  32.4019
 4.43325  32.1692
 4.45625  32.0494
 4.47925  32.3315
 4.50225  32.6229
 4.52525  32.7438
 4.54825  32.906
 4.57125  32.9045
 4.59425  32.7346
 4.61725  32.5268
 4.64025  32.3883
 4.66325  32.4377
 4.68625  32.337
 4.70925  32.3754
 4.73225  32.2011
 4.75525  31.9901
 4.77825  32.0339
 4.80125  32.1271
 4.82425  32.3191
 4.84725  32.3957
 4.87025  32.427
 4.89325  32.4688
 4.91625  32.6841
 4.93925  32.8376
 4.96225  32.8817
 4.98525  32.9911
 5.00825  33.1856
 5.03125  33.3955
 5.05425  33.3965
 5.07725  33.319
 5.10025  33.1976
 5.12325  33.215
 5.14625  33.4093
 5.16925  33.3701
 5.19225  33.5021
 5.21525  33.6116
 5.23825  33.641
 5.26125  33.9309
 5.28425  33.9556
 5.30725  34.0539
 5.33025  34.2258
 5.35325  34.3041
 5.37625  34.3523
 5.39925  34.436
 5.42225  34.3865
 5.44525  34.3613
 5.46825  34.5453
 5.49125  34.4822
 5.51425  34.423
 5.53725  34.5611
 5.56025  34.7174
 5.58325  34.7915
 5.60625  34.8536
 5.62925  34.8399
 5.65225  34.8926
 5.67525  35.2301
 5.69825  35.2717
 5.72125  35.3276
 5.74425  35.3989
 5.76725  35.5296
 5.79025  35.5861
 5.81325  35.8519
 5.83625  36.1314
 5.85925  36.5069
 5.88225  36.8893
 5.90525  37.5544
 5.92825  39.255
 5.95125  44.8634
 5.97425  51.1286
 5.99725  50.9941
 6.02025  45.5831
 6.04325  40.123
 6.06625  37.8185
 6.08925  36.9729
 6.11225  36.695
 6.13525  36.7144
 6.15825  36.8874
 6.18125  37.0012
 6.20425  36.8654
 6.22725  36.9479
 6.25025  37.1747
 6.27325  37.3419
 6.29625  37.4884
 6.31925  37.387
 6.34225  37.5174
 6.36525  37.5461
 6.38825  37.6661
 6.41125  37.8516
 6.43425  38.1061
 6.45725  38.4198
 6.48025  38.4922
 6.50325  38.7362
 6.52625  38.9985
 6.54925  39.0306
 6.57225  39.2479
 6.59525  39.2909
 6.61825  39.4249
 6.64125  39.4972
 6.66425  39.6587
 6.68725  39.7294
 6.71025  39.904
 6.73325  40.0757
 6.75625  40.3378
 6.77925  40.4332
 6.80225  40.5572
 6.82525  40.7804
 6.84825  40.9628
 6.87125  41.1967
 6.89425  41.3882
 6.91725  41.4903
 6.94025  41.59
 6.96325  41.7669
 6.98625  41.931
 7.00925  41.9917
 7.03225  42.3364
 7.05525  42.5633
 7.07825  42.5668
 7.10125  42.6436
 7.12425  42.651
 7.14725  42.6424
 7.17025  42.7777
 7.19325  42.7966
 7.21625  42.8337
 7.23925  43.0063
 7.26225  43.1857
 7.28525  43.0688
 7.30825  43.1225
 7.33125  43.3656
 7.35425  43.4115
 7.37725  43.4671
 7.40025  43.5227
 7.42325  43.6309
 7.44625  43.7594
 7.46925  43.7348
 7.49225  43.5957
 7.51525  43.676
 7.53825  43.6326
 7.56125  43.7964
 7.58425  43.8904
 7.60725  44.0265
 7.63025  44.0108
 7.65325  43.9169
 7.67625  43.8084
 7.69925  43.9112
 7.72225  44.0268
 7.74525  44.0498
 7.76825  43.8427
 7.79125  43.77
 7.81425  43.8087
 7.83725  43.799
 7.86025  43.7823
 7.88325  43.6464
 7.90625  43.5414
 7.92925  43.4338
 7.95225  43.2454
 7.97525  43.0873
 7.99825  43.1688
 8.02125  43.0814
 8.04425  42.8492
 8.06725  42.6658
 8.09025  42.6478
 8.11325  42.6532
 8.13625  42.3648
 8.15925  41.9931
 8.18225  41.7282
 8.20525  41.5274
 8.22825  41.2784
 8.25125  40.9934
 8.27425  40.7046
 8.29725  40.4985
 8.32025  40.2189
 8.34325  39.9151
 8.36625  39.6273
 8.38925  39.1882
 8.41225  38.7325
 8.43525  38.3798
 8.45825  38.2201
 8.48125  37.9904
 8.50425  37.6415
 8.52725  37.1658
 8.55025  36.8116
 8.57325  36.4424
 8.59625  36.1052
 8.61925  35.9366
 8.64225  35.7917
 8.66525  35.294
 8.68825  34.962
 8.71125  34.7409
 8.73425  34.4507
 8.75725  34.0469
 8.78025  33.7284
 8.80325  33.3543
 8.82625  32.9736
 8.84925  32.7748
 8.87225  32.4672
 8.89525  32.0442
 8.91825  31.6957
 8.94125  31.2922
 8.96425  31.0568
 8.98725  30.7641
 9.01025  30.3979
 9.03325  30.0612
 9.05625  29.8387
 9.07925  29.7007
 9.10225  29.4826
 9.12525  29.3012
 9.14825  29.1565
 9.17125  29.011
 9.19425  28.7534
 9.21725  28.4349
 9.24025  28.2001
 9.26325  27.8929
 9.28625  27.6278
 9.30925  27.5746
 9.33225  27.4131
 9.35525  27.2189
 9.37825  27.0292
 9.40125  26.9282
 9.42425  26.8906
 9.44725  26.7448
 9.47025  26.529
 9.49325  26.3414
 9.51625  26.1201
 9.53925  26.0776
 9.56225  25.8781
 9.58525  25.8303
 9.60825  25.8221
 9.63125  25.7082
 9.65425  25.4734
 9.67725  25.3135
 9.70025  25.2342
 9.72325  25.1887
 9.74625  25.1636
 9.76925  25.1138
 9.79225  24.9519
 9.81525  24.9
 9.83825  24.7672
 9.86125  24.6914
 9.88425  24.5608
 9.90725  24.5246
 9.93025  24.4349
 9.95325  24.2595
 9.97625  24.1802
 9.99925  24.1784
 10.0222  24.1501
 10.0453  24.1729
 10.0683  24.0837
 10.0913  23.9565
 10.1143  23.8243
 10.1373  23.7318
 10.1603  23.6842
 10.1832  23.6751
 10.2063  23.6029
 10.2293  23.6051
 10.2523  23.5846
 10.2752  23.4907
 10.2982  23.4431
 10.3213  23.4218
 10.3443  23.3582
 10.3673  23.2272
 10.3902  23.1388
 10.4133  23.1219
 10.4363  23.1306
 10.4593  23.2202
 10.4823  23.1985
 10.5053  23.1057
 10.5283  22.9141
 10.5512  22.8983
 10.5742  22.899
 10.5973  22.8371
 10.6203  22.9185
 10.6433  22.982
 10.6662  22.9603
 10.6893  22.8048
 10.7123  22.7768
 10.7353  22.7793
 10.7583  22.8421
 10.7813  22.8982
 10.8043  22.8127
 10.8272  22.6941
 10.8503  22.6732
 10.8733  22.6536
 10.8963  22.6147
 10.9192  22.5998
 10.9422  22.5372
 10.9653  22.484
 10.9883  22.5542
 11.0113  22.5912
 11.0343  22.508
 11.0573  22.4151
 11.0803  22.484
 11.1033  22.5103
 11.1263  22.5313
 11.1493  22.5312
 11.1723  22.5904
 11.1953  22.482
 11.2182  22.467
 11.2413  22.3819
 11.2643  22.3968
 11.2873  22.4767
 11.3102  22.6655
 11.3333  22.6498
 11.3563  22.5171
 11.3793  22.6716
 11.4023  22.9032
 11.4253  23.0228
 11.4483  22.9896
 11.4713  22.9648
 11.4942  23.2264
 11.5173  23.7573
 11.5403  25.4152
 11.5633  28.6247
 11.5862  34.3319
 11.6093  34.5109
 11.6323  30.0708
 11.6553  25.6907
 11.6783  23.6566
 11.7013  23.1079
 11.7243  22.8811
 11.7473  22.7785
 11.7703  22.7115
 11.7933  22.6352
 11.8163  22.6087
 11.8393  22.5544
 11.8622  22.5839
 11.8853  22.6873
 11.9083  22.816
 11.9313  23.0618
 11.9543  23.7933
 11.9773  24.9058
 12.0003  25.6604
 12.0233  25.0319
 12.0463  24.3178
 12.0693  24.8366
 12.0923  26.2763
 12.1153  26.8756
 12.1382  25.9792
 12.1613  24.2847
 12.1843  23.1175
 12.2073  22.7351
 12.2302  22.695
 12.2533  22.6326
 12.2763  22.5532
 12.2993  22.5605
 12.3223  22.7277
 12.3453  22.676
 12.3683  22.6419
 12.3913  22.6787
 12.4142  22.6906
 12.4373  22.6231
 12.4603  22.7107
 12.4833  22.7621
 12.5062  22.7481
 12.5292  22.7604
 12.5523  22.7405
 12.5753  22.7172
 12.5983  22.7761
 12.6212  22.84
 12.6443  22.6873
 12.6673  22.7159
 12.6903  22.8194
 12.7133  22.8571
 12.7363  22.9028
 12.7593  22.971
 12.7822  23.0255
 12.8052  23.0233
 12.8283  23.0364
 12.8513  23.0604
 12.8742  23.1602
 12.8972  23.2827
 12.9203  23.5027
 12.9433  23.6666
 12.9663  23.7947
 12.9893  23.9485
 13.0123  24.0876
 13.0353  24.2175
 13.0582  24.3073
 13.0813  24.455
 13.1043  24.689
 13.1273  24.8501
 13.1502  24.9319
 13.1732  25.23
 13.1963  25.5448
 13.2193  25.8682
 13.2423  26.195
 13.2652  26.5063
 13.2883  26.7163
 13.3113  26.9185
 13.3343  27.242
 13.3573  27.6301
 13.3803  27.8546
 13.4033  28.0488
 13.4262  28.175
 13.4492  28.4539
 13.4723  28.6543
 13.4953  28.8961
 13.5183  29.1605
 13.5412  29.3374
 13.5643  29.3018
 13.5873  29.3432
 13.6103  29.4786
 13.6333  29.6025
 13.6563  29.5919
 13.6793  29.559
 13.7022  29.4561
 13.7253  29.4258
 13.7483  29.3961
 13.7713  29.3277
 13.7942  29.3157
 13.8172  29.269
 13.8403  29.3456
 13.8633  29.6242
 13.8863  30.4398
 13.9093  32.3282
 13.9323  35.3041
 13.9553  38.0772
 13.9783  37.3876
 14.0013  34.1216
 14.0243  30.5838
 14.0473  28.7633
 14.0703  28.2243
 14.0932  27.796
 14.1163  27.2799
 14.1393  26.9932
 14.1623  26.8983
 14.1852  26.8619
 14.2083  26.7785
 14.2313  26.7141
 14.2543  26.6312
 14.2773  26.421
 14.3003  26.2303
 14.3233  26.1909
 14.3463  26.1438
 14.3692  26.0308
 14.3923  25.9411
 14.4153  25.8863
 14.4383  25.7455
 14.4612  25.6371
 14.4843  25.5361
 14.5073  25.4971
 14.5303  25.556
 14.5533  25.5872
 14.5763  25.4584
 14.5993  25.2791
 14.6223  25.2118
 14.6453  25.1123
 14.6683  25.0848
 14.6913  25.166
 14.7143  25.1727
 14.7372  25.0561
 14.7603  24.9571
 14.7833  24.9647
 14.8063  24.9335
 14.8293  24.914
 14.8523  24.9363
 14.8753  24.8821
 14.8983  24.9797
 14.9213  24.9666
 14.9443  24.913
 14.9673  24.872
 14.9903  24.9181
 15.0132  24.9802
 15.0363  24.9922
 15.0593  24.9603
 15.0823  24.9875
 15.1052  25.2353
 15.1283  26.3337
 15.1513  27.94
 15.1743  30.1539
 15.1973  30.2041
 15.2203  28.7529
 15.2433  26.9795
 15.2663  25.5475
 15.2892  25.0471
 15.3123  24.82
 15.3353  24.7062
 15.3583  24.7329
 15.3812  24.7208
 15.4043  24.6631
 15.4273  24.5739
 15.4503  24.6419
 15.4733  24.6379
 15.4963  24.5767
 15.5193  24.5084
 15.5423  24.5124
 15.5653  24.4951
 15.5883  24.4896
 15.6113  24.5601
 15.6343  24.5519
 15.6572  24.5858
 15.6803  24.5938
 15.7033  24.6154
 15.7263  24.625
 15.7492  24.4475
 15.7723  24.4292
 15.7953  24.5018
 15.8183  24.598
 15.8413  24.5772
 15.8643  24.5684
 15.8873  24.6122
 15.9103  24.6477
 15.9332  24.7568
 15.9563  24.7628
 15.9793  24.7723
 16.0023  24.9473
 16.0253  24.9682
 16.0482  24.9761
 16.0713  24.8368
 16.0943  24.7688
 16.1172  24.7568
 16.1403  24.8078
 16.1633  24.9429
 16.1863  25.1687
 16.2093  25.707
 16.2323  26.495
 16.2553  27.0795
 16.2783  26.7274
 16.3012  25.6814
 16.3243  25.066
 16.3472  24.8095
 16.3703  24.6129
 16.3933  24.6001
 16.4163  24.7668
 16.4393  24.8755
 16.4623  24.8607
 16.4853  24.7905
 16.5083  24.7037
 16.5312  24.5664
 16.5543  24.6059
 16.5773  24.5314
 16.6002  24.6347
 16.6233  24.6135
 16.6463  24.5624
 16.6693  24.512
 16.6923  24.5265
 16.7153  24.4946
 16.7383  24.3935
 16.7613  24.5121
 16.7843  24.621
 16.8073  24.6008
 16.8303  24.5059
 16.8533  24.445
 16.8763  24.4581
 16.8992  24.3268
 16.9223  24.2684
 16.9453  24.236
 16.9683  24.2223
 16.9913  24.2301
 17.0143  24.2644
 17.0373  24.2413
 17.0603  24.1736
 17.0832  24.2355
 17.1063  24.2688
 17.1293  24.306
 17.1522  24.2607
 17.1753  24.2757
 17.1983  24.2771
 17.2213  24.2566
 17.2443  24.3013
 17.2673  24.121
 17.2903  24.0567
 17.3133  24.1008
 17.3362  24.1295
 17.3593  24.0324
 17.3823  24.0045
 17.4053  23.9837
 17.4283  24.1005
 17.4513  24.0753
 17.4743  23.9871
 17.4973  24.0158
 17.5203  24.011
 17.5433  24.0563
 17.5663  24.0569
 17.5893  23.9367
 17.6123  23.9539
 17.6352  23.965
 17.6583  23.9266
 17.6813  23.9552
 17.7042  23.9909
 17.7273  23.8063
 17.7503  23.7913
 17.7733  23.8902
 17.7963  23.9881
 17.8193  24.0213
 17.8423  23.972
 17.8653  23.9928
 17.8882  23.9591
 17.9113  23.8942
 17.9343  23.9835
 17.9573  24.1193
 17.9803  24.4878
 18.0033  25.5758
 18.0263  27.0897
 18.0493  28.4783
 18.0723  29.0023
 18.0953  29.2844
 18.1183  28.336
 18.1413  26.6474
 18.1643  25.1536
 18.1872  24.3317
 18.2103  24.0414
 18.2333  23.8556
 18.2563  23.7878
 18.2793  23.756
 18.3023  23.8391
 18.3253  23.7658
 18.3483  23.7181
 18.3712  23.6917
 18.3943  23.6799
 18.4173  23.7604
 18.4402  23.6624
 18.4633  23.6545
 18.4863  23.655
 18.5093  23.646
 18.5323  23.559
 18.5553  23.4895
 18.5783  23.4804
 18.6013  23.6076
 18.6242  23.5259
 18.6473  23.5146
 18.6703  23.4192
 18.6933  23.4789
 18.7163  23.5562
 18.7392  23.4882
 18.7623  23.4479
 18.7853  23.4734
 18.8083  23.6099
 18.8313  23.6051
 18.8543  23.6054
 18.8773  23.5786
 18.9003  23.5095
 18.9232  23.5734
 18.9463  23.6368
 18.9693  23.5797
 18.9922  23.4874
 19.0153  23.4915
 19.0383  23.6478
 19.0613  23.6726
 19.0843  23.6423
 19.1073  23.5669
 19.1303  23.5512
 19.1533  23.6388
 19.1762  23.5849
 19.1993  23.6025
 19.2223  23.6316
 19.2453  23.5997
 19.2683  23.6084
 19.2913  23.5859
 19.3143  23.7061
 19.3373  23.9034
 19.3603  23.9656
 19.3833  23.8835
 19.4062  23.8127
 19.4293  23.807
 19.4523  23.8144
 19.4752  23.8901
 19.4983  23.8697
 19.5213  23.874
 19.5443  23.8936
 19.5673  23.9898
 19.5903  24.1132
 19.6133  24.312
 19.6363  24.5436
 19.6593  25.1566
 19.6823  26.1121
 19.7053  27.1571
 19.7283  27.6815
 19.7513  27.2089
 19.7742  26.7615
 19.7973  27.7975
 19.8203  31.7113
 19.8433  39.0069
 19.8663  42.555
 19.8893  37.7363
 19.9123  30.6869
 19.9353  26.7063
 19.9582  25.2485
 19.9813  24.7283
 20.0043  24.5185
 20.0272  24.3255
 20.0503  24.2387
 20.0733  24.1822
 20.0963  24.1727
 20.1193  24.2117
 20.1423  24.0867
 20.1653  23.9392
 20.1883  23.9065
 20.2112  23.9436
 20.2343  23.9503
 20.2573  23.9209
 20.2803  23.8889
 20.3033  23.8603
 20.3263  23.7818
 20.3493  23.7898
 20.3723  23.8239
 20.3953  23.8962
 20.4183  23.8974
 20.4413  23.8238
 20.4643  23.8207
 20.4873  23.724
 20.5102  23.7605
 20.5333  23.7778
 20.5563  23.8278
 20.5792  23.773
 20.6023  23.8499
 20.6253  23.9853
 20.6483  24.052
 20.6713  24.1547
 20.6943  24.5798
 20.7173  25.177
 20.7403  25.8873
 20.7632  26.5887
 20.7863  26.8536
 20.8093  26.2866
 20.8323  25.443
 20.8553  24.7568
 20.8783  24.3732
 20.9013  24.2138
 20.9243  24.1905
 20.9473  24.0245
 20.9703  23.8946
 20.9933  23.9146
 21.0163  23.9327
 21.0393  23.9454
 21.0622  23.9115
 21.0853  23.9553
 21.1083  23.9934
 21.1313  23.9903
 21.1543  23.8068
 21.1773  23.9008
 21.2003  23.9923
 21.2233  23.9508
 21.2462  23.9652
 21.2693  23.9315
 21.2923  23.8439
 21.3152  23.8042
 21.3383  23.8854
 21.3613  23.948
 21.3843  23.9391
 21.4073  23.9628
 21.4303  23.9791
 21.4533  23.9662
 21.4763  23.964
 21.4992  24.0251
 21.5223  23.9919
 21.5453  23.9991
 21.5683  23.9519
 21.5913  23.9968
 21.6142  24.0723
 21.6373  24.0557
 21.6603  24.0967
 21.6833  24.1886
 21.7063  24.1377
 21.7293  24.0883
 21.7523  24.0461
 21.7753  24.003
 21.7982  24.1268
 21.8213  24.1961
 21.8443  24.1696
 21.8672  24.1861
 21.8903  24.1246
 21.9133  24.1722
 21.9363  24.2362
 21.9593  24.1824
 21.9823  24.1909
 22.0053  24.1766
 22.0283  24.353
 22.0512  24.4328
 22.0743  24.3022
 22.0973  24.2344
 22.1203  24.253
 22.1433  24.2854
 22.1663  24.3097
 22.1893  24.3405
 22.2123  24.3482
 22.2353  24.3652
 22.2583  24.401
 22.2813  24.4229
 22.3043  24.5165
 22.3273  24.5289
 22.3502  24.5691
 22.3733  24.5742
 22.3963  24.5874
 22.4193  24.5087
 22.4423  24.5424
 22.4653  24.608
 22.4883  24.6213
 22.5113  24.6598
 22.5343  24.7401
 22.5573  24.7882
 22.5803  24.8095
 22.6033  24.9374
 22.6263  25.0636
 22.6493  25.0618
 22.6723  25.1354
 22.6953  25.243
 22.7183  25.2637
 22.7413  25.208
 22.7643  25.2589
 22.7873  25.2797
 22.8103  25.4512
 22.8333  25.578
 22.8563  25.5665
 22.8793  25.7076
 22.9022  25.9554
 22.9253  26.1416
 22.9483  26.3086
 22.9713  26.6547
 22.9943  27.1706