File: test-data-xrd/xrd-map-34-ID-E/Data_0051.chi
F:\20151113_APS_34IDE\\Brian\Particle1\OCV\Data_0051.tif
2-Theta Angle (Degrees)
Intensity
       2000
 0.01725  0.0000000E+00
 0.04025  0.0000000E+00
 0.06325  0.0000000E+00
 0.08625  0.0000000E+00
 0.10925  0.0000000E+00
 0.13225  0.0000000E+00
 0.15525  0.0000000E+00
 0.17825  0.0000000E+00
 0.20125  0.0000000E+00
 0.22425  0.0000000E+00
 0.24725  0.0000000E+00
 0.27025  0.0000000E+00
 0.29325  0.0000000E+00
 0.31625  0.0000000E+00
 0.33925  0.0000000E+00
 0.36225  0.0000000E+00
 0.38525  0.0000000E+00
 0.40825  0.0000000E+00
 0.43125  0.0000000E+00
 0.45425  0.0000000E+00
 0.47725  0.0000000E+00
 0.50025  0.0000000E+00
 0.52325  0.0000000E+00
 0.54625  0.0000000E+00
 0.56925  0.0000000E+00
 0.59225  0.0000000E+00
 0.61525  0.0000000E+00
 0.63825  0.0000000E+00
 0.66125  0.0000000E+00
 0.68425  0.0000000E+00
 0.70725  0.0000000E+00
 0.73025  0.0000000E+00
 0.75325  0.0000000E+00
 0.77625  0.0000000E+00
 0.79925  0.0000000E+00
 0.82225  0.0000000E+00
 0.84525  0.0000000E+00
 0.86825  0.0000000E+00
 0.89125  0.0000000E+00
 0.91425  0.0000000E+00
 0.93725  0.0000000E+00
 0.96025  0.0000000E+00
 0.98325  0.0000000E+00
 1.00625  0.0000000E+00
 1.02925  0.0000000E+00
 1.05225  0.0000000E+00
 1.07525  0.0000000E+00
 1.09825  0.0000000E+00
 1.12125  0.0000000E+00
 1.14425  0.0000000E+00
 1.16725  0.0000000E+00
 1.19025  0.0000000E+00
 1.21325  0.0000000E+00
 1.23625  0.0000000E+00
 1.25925  0.0000000E+00
 1.28225  0.0000000E+00
 1.30525  0.0000000E+00
 1.32825  0.0000000E+00
 1.35125  0.0000000E+00
 1.37425  0.0000000E+00
 1.39725  0.0000000E+00
 1.42025  0.0000000E+00
 1.44325  0.0000000E+00
 1.46625  0.0000000E+00
 1.48925  0.0000000E+00
 1.51225  0.0000000E+00
 1.53525  0.0000000E+00
 1.55825  0.0000000E+00
 1.58125  0.0000000E+00
 1.60425  0.0000000E+00
 1.62725  0.0000000E+00
 1.65025  0.0000000E+00
 1.67325  0.0000000E+00
 1.69625  0.0000000E+00
 1.71925  0.0000000E+00
 1.74225  0.0000000E+00
 1.76525  0.0000000E+00
 1.78825  0.0000000E+00
 1.81125  0.0000000E+00
 1.83425  0.0000000E+00
 1.85725  0.0000000E+00
 1.88025  0.0000000E+00
 1.90325  0.0000000E+00
 1.92625  0.0000000E+00
 1.94925  0.0000000E+00
 1.97225  0.0000000E+00
 1.99525  0.0000000E+00
 2.01825  0.0000000E+00
 2.04125  0.0000000E+00
 2.06425  0.0000000E+00
 2.08725  0.0000000E+00
 2.11025  0.0000000E+00
 2.13325  0.0000000E+00
 2.15625  0.0000000E+00
 2.17925  0.0000000E+00
 2.20225  0.0000000E+00
 2.22525  0.0000000E+00
 2.24825  0.0000000E+00
 2.27125  0.0000000E+00
 2.29425  0.0000000E+00
 2.31725  0.0000000E+00
 2.34025  0.0000000E+00
 2.36325  0.0000000E+00
 2.38625  0.0000000E+00
 2.40925  0.0000000E+00
 2.43225  0.0000000E+00
 2.45525  0.0000000E+00
 2.47825  0.0000000E+00
 2.50125  0.0000000E+00
 2.52425  0.0000000E+00
 2.54725  0.0000000E+00
 2.57025  0.0000000E+00
 2.59325  0.0000000E+00
 2.61625  0.0000000E+00
 2.63925  0.0000000E+00
 2.66225  0.0000000E+00
 2.68525  0.0000000E+00
 2.70825  0.0000000E+00
 2.73125  0.0000000E+00
 2.75425  0.0000000E+00
 2.77725  0.0000000E+00
 2.80025  0.0000000E+00
 2.82325  28.9469
 2.84625  32.124
 2.86925  33.1211
 2.89225  33.9565
 2.91525  35.1935
 2.93825  35.7944
 2.96125  35.5596
 2.98425  34.7905
 3.00725  35.1574
 3.03025  36.2737
 3.05325  36.4918
 3.07625  36.1603
 3.09925  36.3218
 3.12225  35.5962
 3.14525  35.1622
 3.16825  35.1834
 3.19125  35.0407
 3.21425  34.997
 3.23725  34.8303
 3.26025  34.8726
 3.28325  34.3772
 3.30625  34.1213
 3.32925  34.1685
 3.35225  34.3068
 3.37525  34.6129
 3.39825  34.3306
 3.42125  33.8779
 3.44425  33.698
 3.46725  34.0824
 3.49025  33.8784
 3.51325  33.609
 3.53625  33.3612
 3.55925  33.0327
 3.58225  32.7119
 3.60525  32.4526
 3.62825  32.5622
 3.65125  32.5304
 3.67425  32.5565
 3.69725  32.4884
 3.72025  32.5705
 3.74325  32.8597
 3.76625  32.9451
 3.78925  32.8698
 3.81225  32.6716
 3.83525  32.4935
 3.85825  32.4781
 3.88125  32.4968
 3.90425  32.1359
 3.92725  32.1075
 3.95025  32.3278
 3.97325  32.6934
 3.99625  32.5335
 4.01925  32.2914
 4.04225  32.1988
 4.06525  32.3164
 4.08825  32.4493
 4.11125  32.3849
 4.13425  32.3056
 4.15725  32.2325
 4.18025  31.8413
 4.20325  31.9126
 4.22625  32.1347
 4.24925  32.0813
 4.27225  31.9919
 4.29525  32.2442
 4.31825  32.2805
 4.34125  32.3874
 4.36425  32.4335
 4.38725  32.2942
 4.41025  32.3972
 4.43325  32.5805
 4.45625  32.3263
 4.47925  32.3451
 4.50225  32.3667
 4.52525  32.5069
 4.54825  32.4338
 4.57125  32.3629
 4.59425  32.4129
 4.61725  32.4154
 4.64025  32.4186
 4.66325  32.6952
 4.68625  32.5173
 4.70925  32.7221
 4.73225  32.6404
 4.75525  32.5671
 4.77825  32.4784
 4.80125  32.2391
 4.82425  32.2468
 4.84725  32.5479
 4.87025  32.5586
 4.89325  32.548
 4.91625  32.5397
 4.93925  32.537
 4.96225  32.4005
 4.98525  32.5296
 5.00825  32.825
 5.03125  33.006
 5.05425  33.115
 5.07725  33.1637
 5.10025  33.3251
 5.12325  33.2742
 5.14625  33.4111
 5.16925  33.6406
 5.19225  33.882
 5.21525  33.7884
 5.23825  33.8413
 5.26125  33.8178
 5.28425  33.9381
 5.30725  33.8643
 5.33025  34.0201
 5.35325  34.3569
 5.37625  34.5795
 5.39925  34.4359
 5.42225  34.3381
 5.44525  34.5047
 5.46825  34.7461
 5.49125  34.7503
 5.51425  34.74
 5.53725  34.7419
 5.56025  34.8424
 5.58325  35.0354
 5.60625  35.1896
 5.62925  35.1437
 5.65225  35.2094
 5.67525  35.5047
 5.69825  35.5853
 5.72125  35.6865
 5.74425  35.6707
 5.76725  35.7141
 5.79025  35.9138
 5.81325  36.1949
 5.83625  36.4714
 5.85925  36.4912
 5.88225  36.8241
 5.90525  38.6351
 5.92825  42.0802
 5.95125  47.5207
 5.97425  55.5934
 5.99725  57.0973
 6.02025  51.4978
 6.04325  41.746
 6.06625  38.365
 6.08925  37.3393
 6.11225  37.2629
 6.13525  37.1795
 6.15825  36.9353
 6.18125  36.8541
 6.20425  36.8395
 6.22725  37.1754
 6.25025  37.4636
 6.27325  37.5676
 6.29625  37.3435
 6.31925  37.3651
 6.34225  37.3954
 6.36525  37.649
 6.38825  38.0015
 6.41125  38.2847
 6.43425  38.4747
 6.45725  38.6565
 6.48025  38.7297
 6.50325  38.8287
 6.52625  39.039
 6.54925  39.2906
 6.57225  39.4598
 6.59525  39.4006
 6.61825  39.4205
 6.64125  39.5159
 6.66425  39.7126
 6.68725  39.8556
 6.71025  40.0518
 6.73325  40.3156
 6.75625  40.4118
 6.77925  40.6647
 6.80225  41.0079
 6.82525  41.2635
 6.84825  41.3605
 6.87125  41.4028
 6.89425  41.7387
 6.91725  42.0945
 6.94025  42.113
 6.96325  41.9772
 6.98625  41.9999
 7.00925  42.0577
 7.03225  42.2365
 7.05525  42.4949
 7.07825  42.6153
 7.10125  42.604
 7.12425  42.7746
 7.14725  43.0232
 7.17025  43.324
 7.19325  43.3547
 7.21625  43.378
 7.23925  43.4958
 7.26225  43.6327
 7.28525  43.602
 7.30825  43.5678
 7.33125  43.6639
 7.35425  43.9179
 7.37725  44.0594
 7.40025  44.1021
 7.42325  44.2666
 7.44625  44.2785
 7.46925  44.301
 7.49225  44.2961
 7.51525  44.2996
 7.53825  44.3094
 7.56125  44.4163
 7.58425  44.492
 7.60725  44.3879
 7.63025  44.42
 7.65325  44.3836
 7.67625  44.1705
 7.69925  44.0103
 7.72225  44.035
 7.74525  43.917
 7.76825  43.8383
 7.79125  43.877
 7.81425  43.8583
 7.83725  43.7998
 7.86025  43.7859
 7.88325  43.5893
 7.90625  43.4692
 7.92925  43.3765
 7.95225  43.3622
 7.97525  43.3724
 7.99825  43.232
 8.02125  42.9676
 8.04425  42.9002
 8.06725  42.8864
 8.09025  42.747
 8.11325  42.5917
 8.13625  42.4056
 8.15925  42.1016
 8.18225  41.9786
 8.20525  41.7198
 8.22825  41.3799
 8.25125  41.0846
 8.27425  41.0049
 8.29725  40.7421
 8.32025  40.4347
 8.34325  40.1336
 8.36625  39.9505
 8.38925  39.7138
 8.41225  39.4794
 8.43525  39.0356
 8.45825  38.5192
 8.48125  38.2119
 8.50425  37.9631
 8.52725  37.5967
 8.55025  37.0024
 8.57325  36.5459
 8.59625  36.1859
 8.61925  35.9339
 8.64225  35.5939
 8.66525  35.3117
 8.68825  35.0629
 8.71125  34.7702
 8.73425  34.3394
 8.75725  33.884
 8.78025  33.3662
 8.80325  32.9588
 8.82625  32.6533
 8.84925  32.5015
 8.87225  32.2581
 8.89525  31.9082
 8.91825  31.6585
 8.94125  31.4291
 8.96425  31.1979
 8.98725  30.9938
 9.01025  30.5361
 9.03325  30.2476
 9.05625  30.0416
 9.07925  29.7921
 9.10225  29.5183
 9.12525  29.3039
 9.14825  29.0851
 9.17125  28.8714
 9.19425  28.6677
 9.21725  28.4847
 9.24025  28.2051
 9.26325  27.9377
 9.28625  27.7253
 9.30925  27.6358
 9.33225  27.5315
 9.35525  27.3644
 9.37825  27.2355
 9.40125  27.0905
 9.42425  26.7622
 9.44725  26.5314
 9.47025  26.415
 9.49325  26.4359
 9.51625  26.4115
 9.53925  26.3026
 9.56225  25.9924
 9.58525  25.7914
 9.60825  25.8416
 9.63125  25.8373
 9.65425  25.6565
 9.67725  25.4477
 9.70025  25.2283
 9.72325  25.1566
 9.74625  25.1374
 9.76925  25.1146
 9.79225  25.0254
 9.81525  24.8472
 9.83825  24.7474
 9.86125  24.7159
 9.88425  24.6981
 9.90725  24.5502
 9.93025  24.5324
 9.95325  24.4477
 9.97625  24.344
 9.99925  24.2418
 10.0222  24.1439
 10.0453  24.0753
 10.0683  24.0247
 10.0913  23.9606
 10.1143  23.863
 10.1373  23.9464
 10.1603  23.9415
 10.1832  23.8607
 10.2063  23.7279
 10.2293  23.6682
 10.2523  23.6084
 10.2752  23.5323
 10.2982  23.4985
 10.3213  23.4221
 10.3443  23.3846
 10.3673  23.3916
 10.3902  23.441
 10.4133  23.5521
 10.4363  23.4521
 10.4593  23.3949
 10.4823  23.372
 10.5053  23.4459
 10.5283  23.3339
 10.5512  23.1207
 10.5742  23.1366
 10.5973  23.1342
 10.6203  23.156
 10.6433  23.0991
 10.6662  23.1925
 10.6893  23.189
 10.7123  23.148
 10.7353  22.9543
 10.7583  22.8564
 10.7813  22.8675
 10.8043  22.8116
 10.8272  22.8316
 10.8503  22.8932
 10.8733  22.8355
 10.8963  22.7815
 10.9192  22.8639
 10.9422  22.8405
 10.9653  22.7045
 10.9883  22.6211
 11.0113  22.6118
 11.0343  22.6089
 11.0573  22.525
 11.0803  22.559
 11.1033  22.64
 11.1263  23.0663
 11.1493  22.8333
 11.1723  22.6456
 11.1953  22.5118
 11.2182  22.4042
 11.2413  22.3816
 11.2643  22.345
 11.2873  22.3471
 11.3102  22.5521
 11.3333  22.6085
 11.3563  22.6089
 11.3793  22.7435
 11.4023  23.0456
 11.4253  23.0999
 11.4483  22.8963
 11.4713  22.8506
 11.4942  22.9506
 11.5173  23.418
 11.5403  24.8964
 11.5633  27.5938
 11.5862  29.8266
 11.6093  29.1386
 11.6323  26.3198
 11.6553  24.2627
 11.6783  23.3171
 11.7013  22.8595
 11.7243  22.6928
 11.7473  22.6118
 11.7703  22.5396
 11.7933  22.5122
 11.8163  22.6143
 11.8393  22.6547
 11.8622  22.6355
 11.8853  22.5875
 11.9083  22.6622
 11.9313  22.9775
 11.9543  23.5115
 11.9773  24.4103
 12.0003  24.5678
 12.0233  24.4815
 12.0463  24.4107
 12.0693  25.2697
 12.0923  26.5155
 12.1153  26.5314
 12.1382  25.2789
 12.1613  23.7874
 12.1843  23.0504
 12.2073  22.7918
 12.2302  22.6764
 12.2533  22.6508
 12.2763  22.6245
 12.2993  22.6533
 12.3223  22.6472
 12.3453  22.644
 12.3683  22.7703
 12.3913  22.7054
 12.4142  22.71
 12.4373  22.7281
 12.4603  22.7618
 12.4833  22.8017
 12.5062  22.6686
 12.5292  22.6242
 12.5523  22.8652
 12.5753  22.8693
 12.5983  22.9079
 12.6212  22.8964
 12.6443  22.8937
 12.6673  22.8293
 12.6903  22.8195
 12.7133  22.8774
 12.7363  22.9429
 12.7593  23.0456
 12.7822  23.0733
 12.8052  23.1213
 12.8283  23.2022
 12.8513  23.2566
 12.8742  23.3538
 12.8972  23.4454
 12.9203  23.544
 12.9433  23.6442
 12.9663  23.7548
 12.9893  23.9226
 13.0123  23.9115
 13.0353  24.0388
 13.0582  24.2665
 13.0813  24.4169
 13.1043  24.7691
 13.1273  25.0277
 13.1502  25.1155
 13.1732  25.2641
 13.1963  25.5744
 13.2193  25.9136
 13.2423  26.1297
 13.2652  26.4277
 13.2883  26.841
 13.3113  27.0936
 13.3343  27.3982
 13.3573  27.6661
 13.3803  27.911
 13.4033  28.2161
 13.4262  28.387
 13.4492  28.5803
 13.4723  28.8001
 13.4953  29.1549
 13.5183  29.2821
 13.5412  29.3002
 13.5643  29.5264
 13.5873  29.7407
 13.6103  29.8814
 13.6333  29.9075
 13.6563  29.934
 13.6793  29.9389
 13.7022  29.7974
 13.7253  29.6328
 13.7483  29.6134
 13.7713  29.5969
 13.7942  29.5685
 13.8172  29.616
 13.8403  29.7698
 13.8633  30.4368
 13.8863  32.5642
 13.9093  37.848
 13.9323  43.833
 13.9553  45.0953
 13.9783  41.1204
 14.0013  35.5186
 14.0243  31.2529
 14.0473  29.1947
 14.0703  28.3894
 14.0932  28.052
 14.1163  27.8287
 14.1393  27.512
 14.1623  27.1797
 14.1852  27.0363
 14.2083  26.9908
 14.2313  26.8179
 14.2543  26.6259
 14.2773  26.4972
 14.3003  26.3987
 14.3233  26.294
 14.3463  26.2386
 14.3692  26.1475
 14.3923  26.102
 14.4153  26.0098
 14.4383  25.8616
 14.4612  25.6432
 14.4843  25.6123
 14.5073  25.6338
 14.5303  25.6357
 14.5533  25.6523
 14.5763  25.5303
 14.5993  25.3733
 14.6223  25.2971
 14.6453  25.3008
 14.6683  25.2387
 14.6913  25.2561
 14.7143  25.2681
 14.7372  25.1174
 14.7603  24.9446
 14.7833  24.9437
 14.8063  24.9673
 14.8293  25.0281
 14.8523  25.0525
 14.8753  24.9301
 14.8983  24.9315
 14.9213  24.953
 14.9443  24.9281
 14.9673  24.8006
 14.9903  24.6882
 15.0132  24.7043
 15.0363  24.9116
 15.0593  24.967
 15.0823  25.0413
 15.1052  25.2263
 15.1283  25.4924
 15.1513  26.2754
 15.1743  27.6029
 15.1973  28.6246
 15.2203  28.3198
 15.2433  26.7802
 15.2663  25.6055
 15.2892  25.1577
 15.3123  24.9739
 15.3353  24.8372
 15.3583  24.6556
 15.3812  24.5744
 15.4043  24.5916
 15.4273  24.5558
 15.4503  24.4971
 15.4733  24.4904
 15.4963  24.5255
 15.5193  24.5574
 15.5423  24.5206
 15.5653  24.5054
 15.5883  24.5489
 15.6113  24.4901
 15.6343  24.4921
 15.6572  24.6182
 15.6803  24.7174
 15.7033  24.8129
 15.7263  24.7245
 15.7492  24.6468
 15.7723  24.6314
 15.7953  24.5615
 15.8183  24.5756
 15.8413  24.5265
 15.8643  24.5126
 15.8873  24.6311
 15.9103  24.7615
 15.9332  24.9381
 15.9563  24.6041
 15.9793  24.6111
 16.0023  24.68
 16.0253  24.7333
 16.0482  24.6808
 16.0713  24.5565
 16.0943  24.5587
 16.1172  24.7097
 16.1403  24.6094
 16.1633  24.6569
 16.1863  24.842
 16.2093  25.0337
 16.2323  25.3119
 16.2553  25.6859
 16.2783  25.7784
 16.3012  25.3862
 16.3243  25.066
 16.3472  24.8933
 16.3703  24.7345
 16.3933  24.8368
 16.4163  24.9188
 16.4393  24.8363
 16.4623  24.6885
 16.4853  24.6762
 16.5083  24.7807
 16.5312  24.7457
 16.5543  24.7077
 16.5773  24.6502
 16.6002  24.663
 16.6233  24.5833
 16.6463  24.5379
 16.6693  24.5674
 16.6923  24.5504
 16.7153  24.6413
 16.7383  24.6493
 16.7613  24.6
 16.7843  24.4989
 16.8073  24.3925
 16.8303  24.471
 16.8533  24.4156
 16.8763  24.3941
 16.8992  24.4017
 16.9223  24.4523
 16.9453  24.4022
 16.9683  24.3599
 16.9913  24.3648
 17.0143  24.232
 17.0373  24.2242
 17.0603  24.1874
 17.0832  24.2746
 17.1063  24.2467
 17.1293  24.1528
 17.1522  24.1986
 17.1753  24.2226
 17.1983  24.2691
 17.2213  24.1043
 17.2443  23.9565
 17.2673  23.9552
 17.2903  24.053
 17.3133  24.0661
 17.3362  24.0219
 17.3593  24.0648
 17.3823  24.0829
 17.4053  23.9841
 17.4283  23.9297
 17.4513  23.8959
 17.4743  23.9025
 17.4973  23.9052
 17.5203  23.9068
 17.5433  23.9158
 17.5663  23.8426
 17.5893  23.7968
 17.6123  23.8637
 17.6352  23.8453
 17.6583  23.8402
 17.6813  23.8974
 17.7042  23.8694
 17.7273  23.8657
 17.7503  23.8153
 17.7733  23.7745
 17.7963  23.6797
 17.8193  23.7383
 17.8423  23.7987
 17.8653  23.7656
 17.8882  23.7976
 17.9113  23.8902
 17.9343  23.8208
 17.9573  23.7602
 17.9803  23.8245
 18.0033  24.0796
 18.0263  24.2376
 18.0493  24.493
 18.0723  24.8074
 18.0953  25.1803
 18.1183  25.1543
 18.1413  24.74
 18.1643  24.2499
 18.1872  23.9816
 18.2103  23.9066
 18.2333  23.8232
 18.2563  23.7311
 18.2793  23.6867
 18.3023  23.7369
 18.3253  23.6039
 18.3483  23.5853
 18.3712  23.641
 18.3943  23.6854
 18.4173  23.7125
 18.4402  23.5929
 18.4633  23.6017
 18.4863  23.6426
 18.5093  23.6618
 18.5323  23.6127
 18.5553  23.5522
 18.5783  23.5613
 18.6013  23.6085
 18.6242  23.5158
 18.6473  23.5014
 18.6703  23.5395
 18.6933  23.6658
 18.7163  23.633
 18.7392  23.6099
 18.7623  23.5605
 18.7853  23.6137
 18.8083  23.5665
 18.8313  23.5021
 18.8543  23.5015
 18.8773  23.5006
 18.9003  23.5902
 18.9232  23.6799
 18.9463  23.731
 18.9693  23.6285
 18.9922  23.5232
 19.0153  23.5403
 19.0383  23.5691
 19.0613  23.5774
 19.0843  23.5495
 19.1073  23.5229
 19.1303  23.4615
 19.1533  23.4716
 19.1762  23.4755
 19.1993  23.5296
 19.2223  23.5387
 19.2453  23.5211
 19.2683  23.5635
 19.2913  23.5842
 19.3143  23.6344
 19.3373  23.6136
 19.3603  23.5498
 19.3833  23.6745
 19.4062  23.7485
 19.4293  23.8171
 19.4523  23.8496
 19.4752  23.8068
 19.4983  23.8302
 19.5213  23.8789
 19.5443  23.881
 19.5673  23.9987
 19.5903  24.117
 19.6133  24.4403
 19.6363  25.0462
 19.6593  26.1884
 19.6823  28.4319
 19.7053  29.7021
 19.7283  28.6088
 19.7513  26.6898
 19.7742  25.5841
 19.7973  25.3589
 19.8203  25.813
 19.8433  26.9694
 19.8663  28.2007
 19.8893  28.2397
 19.9123  26.7884
 19.9353  25.1309
 19.9582  24.3578
 19.9813  24.1225
 20.0043  23.9531
 20.0272  23.873
 20.0503  23.8894
 20.0733  23.8236
 20.0963  23.8618
 20.1193  23.8624
 20.1423  23.8224
 20.1653  23.7919
 20.1883  23.7984
 20.2112  23.7952
 20.2343  23.794
 20.2573  23.759
 20.2803  23.7062
 20.3033  23.7126
 20.3263  23.6702
 20.3493  23.7545
 20.3723  23.8012
 20.3953  23.7535
 20.4183  23.7868
 20.4413  23.9049
 20.4643  23.8933
 20.4873  23.9842
 20.5102  23.9624
 20.5333  23.7974
 20.5563  23.88
 20.5792  23.8912
 20.6023  23.9813
 20.6253  24.0825
 20.6483  24.1726
 20.6713  24.3484
 20.6943  24.9785
 20.7173  26.5557
 20.7403  28.0241
 20.7632  28.2175
 20.7863  27.0929
 20.8093  25.8642
 20.8323  24.9296
 20.8553  24.4116
 20.8783  24.1912
 20.9013  24.2316
 20.9243  24.2144
 20.9473  24.1442
 20.9703  24.0196
 20.9933  24.0406
 21.0163  24.0233
 21.0393  23.958
 21.0622  23.9906
 21.0853  24.0571
 21.1083  24.0063
 21.1313  24.026
 21.1543  23.9446
 21.1773  23.9034
 21.2003  23.8978
 21.2233  23.8808
 21.2462  23.9509
 21.2693  24.0159
 21.2923  23.9399
 21.3152  23.8938
 21.3383  23.8905
 21.3613  23.9596
 21.3843  23.9433
 21.4073  23.9194
 21.4303  23.9423
 21.4533  23.9799
 21.4763  23.9749
 21.4992  24.0187
 21.5223  24.0301
 21.5453  24.0842
 21.5683  24.0388
 21.5913  24.06
 21.6142  24.0431
 21.6373  24.0808
 21.6603  24.1375
 21.6833  24.2155
 21.7063  24.1899
 21.7293  24.0898
 21.7523  24.0795
 21.7753  24.1419
 21.7982  24.2223
 21.8213  24.2751
 21.8443  24.2063
 21.8672  24.1765
 21.8903  24.2035
 21.9133  24.2577
 21.9363  24.2229
 21.9593  24.2611
 21.9823  24.2481
 22.0053  24.2053
 22.0283  24.19
 22.0512  24.2725
 22.0743  24.2366
 22.0973  24.2665
 22.1203  24.3499
 22.1433  24.3413
 22.1663  24.3166
 22.1893  24.3259
 22.2123  24.3336
 22.2353  24.4491
 22.2583  24.4159
 22.2813  24.417
 22.3043  24.4968
 22.3273  24.5685
 22.3502  24.5898
 22.3733  24.5709
 22.3963  24.5722
 22.4193  24.5979
 22.4423  24.6622
 22.4653  24.6803
 22.4883  24.6942
 22.5113  24.8084
 22.5343  25.0058
 22.5573  25.1402
 22.5803  25.052
 22.6033  24.9464
 22.6263  24.9972
 22.6493  24.9164
 22.6723  24.9967
 22.6953  25.0952
 22.7183  25.1234
 22.7413  25.131
 22.7643  25.2576
 22.7873  25.2585
 22.8103  25.4312
 22.8333  25.5582
 22.8563  25.5844
 22.8793  25.6672
 22.9022  25.876
 22.9253  26.1353
 22.9483  26.3151
 22.9713  26.5307
 22.9943  26.8071