File: test-data-xrd/xrd-map-34-ID-E/Data_0127.chi
F:\20151113_APS_34IDE\\Brian\Particle1\OCV\Data_0127.tif
2-Theta Angle (Degrees)
Intensity
       2000
 0.01725  0.0000000E+00
 0.04025  0.0000000E+00
 0.06325  0.0000000E+00
 0.08625  0.0000000E+00
 0.10925  0.0000000E+00
 0.13225  0.0000000E+00
 0.15525  0.0000000E+00
 0.17825  0.0000000E+00
 0.20125  0.0000000E+00
 0.22425  0.0000000E+00
 0.24725  0.0000000E+00
 0.27025  0.0000000E+00
 0.29325  0.0000000E+00
 0.31625  0.0000000E+00
 0.33925  0.0000000E+00
 0.36225  0.0000000E+00
 0.38525  0.0000000E+00
 0.40825  0.0000000E+00
 0.43125  0.0000000E+00
 0.45425  0.0000000E+00
 0.47725  0.0000000E+00
 0.50025  0.0000000E+00
 0.52325  0.0000000E+00
 0.54625  0.0000000E+00
 0.56925  0.0000000E+00
 0.59225  0.0000000E+00
 0.61525  0.0000000E+00
 0.63825  0.0000000E+00
 0.66125  0.0000000E+00
 0.68425  0.0000000E+00
 0.70725  0.0000000E+00
 0.73025  0.0000000E+00
 0.75325  0.0000000E+00
 0.77625  0.0000000E+00
 0.79925  0.0000000E+00
 0.82225  0.0000000E+00
 0.84525  0.0000000E+00
 0.86825  0.0000000E+00
 0.89125  0.0000000E+00
 0.91425  0.0000000E+00
 0.93725  0.0000000E+00
 0.96025  0.0000000E+00
 0.98325  0.0000000E+00
 1.00625  0.0000000E+00
 1.02925  0.0000000E+00
 1.05225  0.0000000E+00
 1.07525  0.0000000E+00
 1.09825  0.0000000E+00
 1.12125  0.0000000E+00
 1.14425  0.0000000E+00
 1.16725  0.0000000E+00
 1.19025  0.0000000E+00
 1.21325  0.0000000E+00
 1.23625  0.0000000E+00
 1.25925  0.0000000E+00
 1.28225  0.0000000E+00
 1.30525  0.0000000E+00
 1.32825  0.0000000E+00
 1.35125  0.0000000E+00
 1.37425  0.0000000E+00
 1.39725  0.0000000E+00
 1.42025  0.0000000E+00
 1.44325  0.0000000E+00
 1.46625  0.0000000E+00
 1.48925  0.0000000E+00
 1.51225  0.0000000E+00
 1.53525  0.0000000E+00
 1.55825  0.0000000E+00
 1.58125  0.0000000E+00
 1.60425  0.0000000E+00
 1.62725  0.0000000E+00
 1.65025  0.0000000E+00
 1.67325  0.0000000E+00
 1.69625  0.0000000E+00
 1.71925  0.0000000E+00
 1.74225  0.0000000E+00
 1.76525  0.0000000E+00
 1.78825  0.0000000E+00
 1.81125  0.0000000E+00
 1.83425  0.0000000E+00
 1.85725  0.0000000E+00
 1.88025  0.0000000E+00
 1.90325  0.0000000E+00
 1.92625  0.0000000E+00
 1.94925  0.0000000E+00
 1.97225  0.0000000E+00
 1.99525  0.0000000E+00
 2.01825  0.0000000E+00
 2.04125  0.0000000E+00
 2.06425  0.0000000E+00
 2.08725  0.0000000E+00
 2.11025  0.0000000E+00
 2.13325  0.0000000E+00
 2.15625  0.0000000E+00
 2.17925  0.0000000E+00
 2.20225  0.0000000E+00
 2.22525  0.0000000E+00
 2.24825  0.0000000E+00
 2.27125  0.0000000E+00
 2.29425  0.0000000E+00
 2.31725  0.0000000E+00
 2.34025  0.0000000E+00
 2.36325  0.0000000E+00
 2.38625  0.0000000E+00
 2.40925  0.0000000E+00
 2.43225  0.0000000E+00
 2.45525  0.0000000E+00
 2.47825  0.0000000E+00
 2.50125  0.0000000E+00
 2.52425  0.0000000E+00
 2.54725  0.0000000E+00
 2.57025  0.0000000E+00
 2.59325  0.0000000E+00
 2.61625  0.0000000E+00
 2.63925  0.0000000E+00
 2.66225  0.0000000E+00
 2.68525  0.0000000E+00
 2.70825  0.0000000E+00
 2.73125  0.0000000E+00
 2.75425  0.0000000E+00
 2.77725  0.0000000E+00
 2.80025  0.0000000E+00
 2.82325  36.3439
 2.84625  34.248
 2.86925  34.4625
 2.89225  34.9487
 2.91525  35.4772
 2.93825  35.2501
 2.96125  34.8332
 2.98425  34.6542
 3.00725  35.5834
 3.03025  35.572
 3.05325  35.364
 3.07625  35.0136
 3.09925  35.1504
 3.12225  34.8386
 3.14525  35.2678
 3.16825  35.5669
 3.19125  35.4516
 3.21425  35.6249
 3.23725  35.4786
 3.26025  35.298
 3.28325  35.1101
 3.30625  35.2372
 3.32925  35.0289
 3.35225  34.3005
 3.37525  34.1922
 3.39825  34.0425
 3.42125  34.1422
 3.44425  34.2012
 3.46725  34.3068
 3.49025  34.117
 3.51325  33.8668
 3.53625  33.4151
 3.55925  33.476
 3.58225  33.317
 3.60525  33.2694
 3.62825  33.4831
 3.65125  33.5595
 3.67425  33.0895
 3.69725  32.9118
 3.72025  32.7386
 3.74325  32.6724
 3.76625  32.6923
 3.78925  32.5919
 3.81225  32.5324
 3.83525  32.7794
 3.85825  32.5953
 3.88125  32.5148
 3.90425  32.1015
 3.92725  31.9905
 3.95025  32.2316
 3.97325  32.4225
 3.99625  32.3097
 4.01925  32.0759
 4.04225  32.0649
 4.06525  32.142
 4.08825  32.1746
 4.11125  32.1753
 4.13425  32.0406
 4.15725  31.8488
 4.18025  31.5853
 4.20325  31.958
 4.22625  32.0417
 4.24925  31.9614
 4.27225  31.9904
 4.29525  31.9471
 4.31825  31.8537
 4.34125  31.6709
 4.36425  31.5733
 4.38725  31.8248
 4.41025  32.2108
 4.43325  32.3862
 4.45625  32.3804
 4.47925  32.4591
 4.50225  32.4521
 4.52525  32.5413
 4.54825  32.5463
 4.57125  32.4563
 4.59425  32.4734
 4.61725  32.5981
 4.64025  32.7468
 4.66325  33.1108
 4.68625  33.1814
 4.70925  32.8982
 4.73225  32.5718
 4.75525  32.5978
 4.77825  32.47
 4.80125  32.4301
 4.82425  32.4863
 4.84725  32.3363
 4.87025  32.4924
 4.89325  32.6211
 4.91625  32.8026
 4.93925  32.7204
 4.96225  32.6777
 4.98525  32.8079
 5.00825  33.0553
 5.03125  33.3575
 5.05425  33.4459
 5.07725  33.4492
 5.10025  33.6463
 5.12325  33.6078
 5.14625  33.7144
 5.16925  33.9783
 5.19225  34.063
 5.21525  33.7258
 5.23825  33.4913
 5.26125  33.8019
 5.28425  33.9576
 5.30725  34.0996
 5.33025  33.9866
 5.35325  33.9494
 5.37625  34.0676
 5.39925  34.476
 5.42225  34.5995
 5.44525  34.516
 5.46825  34.4939
 5.49125  34.3519
 5.51425  34.5755
 5.53725  34.8481
 5.56025  34.9586
 5.58325  35.1165
 5.60625  35.0904
 5.62925  34.9367
 5.65225  34.9899
 5.67525  35.3784
 5.69825  35.4445
 5.72125  35.3383
 5.74425  35.3284
 5.76725  35.2468
 5.79025  35.3116
 5.81325  35.447
 5.83625  35.5939
 5.85925  35.7589
 5.88225  35.8499
 5.90525  36.2003
 5.92825  36.8897
 5.95125  38.5955
 5.97425  39.6871
 5.99725  40.3805
 6.02025  39.1689
 6.04325  37.6461
 6.06625  36.7868
 6.08925  36.5734
 6.11225  36.5975
 6.13525  36.466
 6.15825  36.3621
 6.18125  36.5091
 6.20425  36.6555
 6.22725  36.9559
 6.25025  37.1652
 6.27325  37.3659
 6.29625  37.5758
 6.31925  37.5349
 6.34225  37.7105
 6.36525  37.8912
 6.38825  38.2074
 6.41125  38.6607
 6.43425  39.2639
 6.45725  40.4967
 6.48025  41.155
 6.50325  40.238
 6.52625  39.3768
 6.54925  39.2373
 6.57225  39.5039
 6.59525  39.7538
 6.61825  39.8523
 6.64125  39.8261
 6.66425  39.8206
 6.68725  39.9346
 6.71025  40.1233
 6.73325  40.2651
 6.75625  40.4384
 6.77925  40.7136
 6.80225  40.9336
 6.82525  41.2368
 6.84825  41.279
 6.87125  41.2341
 6.89425  41.5188
 6.91725  41.6899
 6.94025  41.896
 6.96325  42.0889
 6.98625  42.3112
 7.00925  42.2529
 7.03225  42.45
 7.05525  42.5925
 7.07825  42.7468
 7.10125  42.7521
 7.12425  42.9221
 7.14725  42.965
 7.17025  42.9854
 7.19325  43.2086
 7.21625  43.3304
 7.23925  43.4101
 7.26225  43.4818
 7.28525  43.3462
 7.30825  43.3534
 7.33125  43.5311
 7.35425  43.6608
 7.37725  43.7777
 7.40025  43.9136
 7.42325  43.9931
 7.44625  43.9531
 7.46925  43.9283
 7.49225  43.9747
 7.51525  43.9392
 7.53825  43.9804
 7.56125  44.0294
 7.58425  44.0369
 7.60725  44.0719
 7.63025  44.0723
 7.65325  43.9293
 7.67625  43.9802
 7.69925  44.0936
 7.72225  44.0656
 7.74525  43.982
 7.76825  44.0058
 7.79125  44.0484
 7.81425  44.0336
 7.83725  44.036
 7.86025  43.8958
 7.88325  43.7252
 7.90625  43.5984
 7.92925  43.5529
 7.95225  43.4177
 7.97525  43.2938
 7.99825  43.2775
 8.02125  43.1465
 8.04425  43.0118
 8.06725  42.9542
 8.09025  42.891
 8.11325  42.7696
 8.13625  42.5152
 8.15925  42.1958
 8.18225  41.9593
 8.20525  41.9023
 8.22825  41.7116
 8.25125  41.4954
 8.27425  41.0042
 8.29725  40.6213
 8.32025  40.41
 8.34325  40.1932
 8.36625  40.0099
 8.38925  39.5452
 8.41225  39.1782
 8.43525  38.8395
 8.45825  38.5812
 8.48125  38.2356
 8.50425  37.9582
 8.52725  37.6593
 8.55025  37.1477
 8.57325  36.7659
 8.59625  36.5333
 8.61925  36.2698
 8.64225  35.8812
 8.66525  35.512
 8.68825  35.0458
 8.71125  34.7496
 8.73425  34.4343
 8.75725  34.136
 8.78025  33.8422
 8.80325  33.4511
 8.82625  33.0166
 8.84925  32.5361
 8.87225  32.3409
 8.89525  32.1759
 8.91825  31.8858
 8.94125  31.517
 8.96425  31.2888
 8.98725  31.0115
 9.01025  30.6278
 9.03325  30.407
 9.05625  30.1649
 9.07925  29.9168
 9.10225  29.6007
 9.12525  29.3687
 9.14825  29.1566
 9.17125  28.9512
 9.19425  28.6972
 9.21725  28.4379
 9.24025  28.0714
 9.26325  27.9117
 9.28625  27.7698
 9.30925  27.6577
 9.33225  27.3506
 9.35525  27.1737
 9.37825  27.0366
 9.40125  26.869
 9.42425  26.6951
 9.44725  26.566
 9.47025  26.4168
 9.49325  26.3311
 9.51625  26.2016
 9.53925  26.1333
 9.56225  25.9154
 9.58525  25.6783
 9.60825  25.5623
 9.63125  25.5109
 9.65425  25.5297
 9.67725  25.3205
 9.70025  25.1032
 9.72325  25.1138
 9.74625  25.1212
 9.76925  24.9803
 9.79225  24.7742
 9.81525  24.7259
 9.83825  24.6369
 9.86125  24.5297
 9.88425  24.3308
 9.90725  24.3774
 9.93025  24.4849
 9.95325  24.4143
 9.97625  24.3526
 9.99925  24.2588
 10.0222  24.2209
 10.0453  24.2011
 10.0683  24.0776
 10.0913  23.998
 10.1143  23.9961
 10.1373  23.922
 10.1603  23.7475
 10.1832  23.6231
 10.2063  23.4899
 10.2293  23.5379
 10.2523  23.4818
 10.2752  23.4246
 10.2982  23.409
 10.3213  23.2916
 10.3443  23.239
 10.3673  23.1989
 10.3902  23.2329
 10.4133  23.2117
 10.4363  23.0826
 10.4593  22.9349
 10.4823  22.9084
 10.5053  22.9167
 10.5283  22.9225
 10.5512  22.8901
 10.5742  22.9618
 10.5973  22.8597
 10.6203  22.8889
 10.6433  22.8966
 10.6662  22.8971
 10.6893  22.8327
 10.7123  22.8064
 10.7353  22.6612
 10.7583  22.612
 10.7813  22.6392
 10.8043  22.7195
 10.8272  22.7131
 10.8503  22.6591
 10.8733  22.6192
 10.8963  22.5526
 10.9192  22.6023
 10.9422  22.7069
 10.9653  22.7405
 10.9883  22.6259
 11.0113  22.555
 11.0343  22.4844
 11.0573  22.3979
 11.0803  22.4295
 11.1033  22.3653
 11.1263  22.3524
 11.1493  22.367
 11.1723  22.3528
 11.1953  22.3217
 11.2182  22.2885
 11.2413  22.2623
 11.2643  22.348
 11.2873  22.3435
 11.3102  22.3175
 11.3333  22.2959
 11.3563  22.3758
 11.3793  22.4608
 11.4023  22.5592
 11.4253  22.5569
 11.4483  22.5298
 11.4713  22.6241
 11.4942  22.5675
 11.5173  22.8441
 11.5403  23.5515
 11.5633  24.2543
 11.5862  24.5908
 11.6093  24.2572
 11.6323  23.5788
 11.6553  22.9043
 11.6783  22.5561
 11.7013  22.3923
 11.7243  22.2417
 11.7473  22.2998
 11.7703  22.3512
 11.7933  22.3349
 11.8163  22.364
 11.8393  22.3826
 11.8622  22.3218
 11.8853  22.3548
 11.9083  22.3423
 11.9313  22.4839
 11.9543  22.905
 11.9773  23.2063
 12.0003  23.3602
 12.0233  23.1609
 12.0463  23.0499
 12.0693  23.1826
 12.0923  23.4744
 12.1153  23.3441
 12.1382  22.919
 12.1613  22.5461
 12.1843  22.4159
 12.2073  22.4681
 12.2302  22.4495
 12.2533  22.4222
 12.2763  22.3217
 12.2993  22.2517
 12.3223  22.4092
 12.3453  22.4297
 12.3683  22.4073
 12.3913  22.4036
 12.4142  22.3335
 12.4373  22.4392
 12.4603  22.4896
 12.4833  22.552
 12.5062  22.5664
 12.5292  22.6464
 12.5523  22.6174
 12.5753  22.5568
 12.5983  22.4983
 12.6212  22.6154
 12.6443  22.7342
 12.6673  22.7433
 12.6903  22.7517
 12.7133  22.7004
 12.7363  22.6612
 12.7593  22.82
 12.7822  22.9684
 12.8052  23.0984
 12.8283  23.1927
 12.8513  23.3388
 12.8742  23.3758
 12.8972  23.341
 12.9203  23.3374
 12.9433  23.4386
 12.9663  23.4831
 12.9893  23.5959
 13.0123  23.7577
 13.0353  23.9753
 13.0582  24.1729
 13.0813  24.324
 13.1043  24.5828
 13.1273  24.8594
 13.1502  25.0235
 13.1732  25.1942
 13.1963  25.3794
 13.2193  25.6156
 13.2423  25.9151
 13.2652  26.2438
 13.2883  26.5055
 13.3113  26.764
 13.3343  27.0156
 13.3573  27.3416
 13.3803  27.6192
 13.4033  27.8731
 13.4262  28.2282
 13.4492  28.495
 13.4723  28.7618
 13.4953  29.0595
 13.5183  29.2422
 13.5412  29.2486
 13.5643  29.2717
 13.5873  29.3026
 13.6103  29.3902
 13.6333  29.4158
 13.6563  29.4541
 13.6793  29.3939
 13.7022  29.3142
 13.7253  29.2363
 13.7483  29.1949
 13.7713  29.254
 13.7942  29.1397
 13.8172  28.9855
 13.8403  29.0099
 13.8633  29.1658
 13.8863  29.583
 13.9093  30.7464
 13.9323  32.037
 13.9553  32.4222
 13.9783  31.6636
 14.0013  30.076
 14.0243  28.5764
 14.0473  27.6705
 14.0703  27.3865
 14.0932  27.2209
 14.1163  27.0635
 14.1393  26.9323
 14.1623  26.7255
 14.1852  26.7021
 14.2083  26.6875
 14.2313  26.5244
 14.2543  26.401
 14.2773  26.2273
 14.3003  26.0618
 14.3233  26.0055
 14.3463  25.8757
 14.3692  25.807
 14.3923  25.7844
 14.4153  25.7493
 14.4383  25.6538
 14.4612  25.5745
 14.4843  25.4306
 14.5073  25.2749
 14.5303  25.1837
 14.5533  25.2211
 14.5763  25.2628
 14.5993  25.2279
 14.6223  25.1861
 14.6453  25.1182
 14.6683  25.0819
 14.6913  25.0881
 14.7143  25.0737
 14.7372  25.0464
 14.7603  24.9857
 14.7833  24.9653
 14.8063  24.916
 14.8293  24.8459
 14.8523  24.8056
 14.8753  24.698
 14.8983  24.7195
 14.9213  24.8091
 14.9443  24.7205
 14.9673  24.6445
 14.9903  24.6928
 15.0132  24.6978
 15.0363  24.6978
 15.0593  24.6834
 15.0823  24.6439
 15.1052  24.6442
 15.1283  24.8859
 15.1513  25.3651
 15.1743  25.5722
 15.1973  25.4277
 15.2203  25.1727
 15.2433  24.9312
 15.2663  24.7341
 15.2892  24.5958
 15.3123  24.4877
 15.3353  24.4006
 15.3583  24.3266
 15.3812  24.2287
 15.4043  24.2272
 15.4273  24.3197
 15.4503  24.2995
 15.4733  24.3312
 15.4963  24.2999
 15.5193  24.3162
 15.5423  24.291
 15.5653  24.216
 15.5883  24.2707
 15.6113  24.2731
 15.6343  24.2807
 15.6572  24.4216
 15.6803  24.4154
 15.7033  24.3845
 15.7263  24.3677
 15.7492  24.3526
 15.7723  24.4384
 15.7953  24.4386
 15.8183  24.4091
 15.8413  24.3484
 15.8643  24.3774
 15.8873  24.4416
 15.9103  24.4161
 15.9332  24.3628
 15.9563  24.3775
 15.9793  24.4077
 16.0023  24.4211
 16.0253  24.3926
 16.0482  24.5283
 16.0713  24.6002
 16.0943  24.6079
 16.1172  24.6299
 16.1403  24.6039
 16.1633  24.6803
 16.1863  24.8644
 16.2093  25.1345
 16.2323  25.5658
 16.2553  25.9221
 16.2783  25.6866
 16.3012  25.0686
 16.3243  24.7688
 16.3472  24.6307
 16.3703  24.4612
 16.3933  24.4262
 16.4163  24.491
 16.4393  24.438
 16.4623  24.4745
 16.4853  24.4609
 16.5083  24.4566
 16.5312  24.4154
 16.5543  24.3565
 16.5773  24.3379
 16.6002  24.3782
 16.6233  24.384
 16.6463  24.3653
 16.6693  24.4064
 16.6923  24.4039
 16.7153  24.3179
 16.7383  24.3017
 16.7613  24.3348
 16.7843  24.2899
 16.8073  24.2345
 16.8303  24.1657
 16.8533  24.2133
 16.8763  24.222
 16.8992  24.1137
 16.9223  24.1039
 16.9453  24.1344
 16.9683  24.0117
 16.9913  23.9951
 17.0143  24.0671
 17.0373  24.0818
 17.0603  24.0179
 17.0832  24.0748
 17.1063  24.0773
 17.1293  24.0755
 17.1522  23.9961
 17.1753  23.9669
 17.1983  23.9383
 17.2213  23.9035
 17.2443  23.7912
 17.2673  23.7284
 17.2903  23.7798
 17.3133  23.8783
 17.3362  23.9131
 17.3593  23.8669
 17.3823  23.7549
 17.4053  23.6338
 17.4283  23.6456
 17.4513  23.6514
 17.4743  23.7191
 17.4973  23.784
 17.5203  23.7438
 17.5433  23.7547
 17.5663  23.7602
 17.5893  23.6699
 17.6123  23.6304
 17.6352  23.562
 17.6583  23.5303
 17.6813  23.6229
 17.7042  23.662
 17.7273  23.6467
 17.7503  23.591
 17.7733  23.593
 17.7963  23.6745
 17.8193  23.7047
 17.8423  23.6687
 17.8653  23.613
 17.8882  23.5367
 17.9113  23.618
 17.9343  23.6549
 17.9573  23.5516
 17.9803  23.5283
 18.0033  23.646
 18.0263  23.7346
 18.0493  23.8555
 18.0723  24.0445
 18.0953  24.2891
 18.1183  24.3357
 18.1413  24.0976
 18.1643  23.8135
 18.1872  23.5843
 18.2103  23.4685
 18.2333  23.4251
 18.2563  23.4618
 18.2793  23.4448
 18.3023  23.4014
 18.3253  23.3841
 18.3483  23.4383
 18.3712  23.4466
 18.3943  23.4803
 18.4173  23.5248
 18.4402  23.4066
 18.4633  23.3185
 18.4863  23.3336
 18.5093  23.3368
 18.5323  23.3012
 18.5553  23.2616
 18.5783  23.2461
 18.6013  23.2962
 18.6242  23.2224
 18.6473  23.1155
 18.6703  23.078
 18.6933  23.1902
 18.7163  23.2464
 18.7392  23.2318
 18.7623  23.1869
 18.7853  23.2272
 18.8083  23.2609
 18.8313  23.2236
 18.8543  23.1897
 18.8773  23.2017
 18.9003  23.2319
 18.9232  23.2775
 18.9463  23.3164
 18.9693  23.2278
 18.9922  23.1194
 19.0153  23.2044
 19.0383  23.332
 19.0613  23.4228
 19.0843  23.3948
 19.1073  23.3099
 19.1303  23.3049
 19.1533  23.2869
 19.1762  23.2461
 19.1993  23.2331
 19.2223  23.3311
 19.2453  23.2997
 19.2683  23.3374
 19.2913  23.3025
 19.3143  23.3584
 19.3373  23.3787
 19.3603  23.314
 19.3833  23.3101
 19.4062  23.3372
 19.4293  23.3028
 19.4523  23.26
 19.4752  23.3328
 19.4983  23.2993
 19.5213  23.3169
 19.5443  23.4095
 19.5673  23.4348
 19.5903  23.4208
 19.6133  23.5279
 19.6363  23.6624
 19.6593  23.9343
 19.6823  24.3483
 19.7053  24.7942
 19.7283  24.8147
 19.7513  24.5662
 19.7742  24.4113
 19.7973  24.3945
 19.8203  24.7282
 19.8433  25.0286
 19.8663  24.8821
 19.8893  24.4985
 19.9123  24.1876
 19.9353  23.8059
 19.9582  23.6014
 19.9813  23.4849
 20.0043  23.4685
 20.0272  23.4084
 20.0503  23.4041
 20.0733  23.351
 20.0963  23.4225
 20.1193  23.5399
 20.1423  23.5303
 20.1653  23.5366
 20.1883  23.5162
 20.2112  23.4784
 20.2343  23.4407
 20.2573  23.4453
 20.2803  23.4454
 20.3033  23.4804
 20.3263  23.4202
 20.3493  23.4856
 20.3723  23.5313
 20.3953  23.5627
 20.4183  23.6317
 20.4413  23.6915
 20.4643  23.636
 20.4873  23.5469
 20.5102  23.503
 20.5333  23.3948
 20.5563  23.5274
 20.5792  23.5882
 20.6023  23.6299
 20.6253  23.6144
 20.6483  23.6362
 20.6713  23.656
 20.6943  23.864
 20.7173  24.2204
 20.7403  24.4897
 20.7632  24.56
 20.7863  24.4274
 20.8093  24.1001
 20.8323  23.8362
 20.8553  23.7144
 20.8783  23.7281
 20.9013  23.7502
 20.9243  23.7824
 20.9473  23.7718
 20.9703  23.7309
 20.9933  23.7233
 21.0163  23.7477
 21.0393  23.7121
 21.0622  23.6797
 21.0853  23.706
 21.1083  23.6581
 21.1313  23.7506
 21.1543  23.6473
 21.1773  23.6687
 21.2003  23.6311
 21.2233  23.5952
 21.2462  23.6625
 21.2693  23.7095
 21.2923  23.7272
 21.3152  23.7176
 21.3383  23.7085
 21.3613  23.7523
 21.3843  23.6765
 21.4073  23.6156
 21.4303  23.6259
 21.4533  23.6358
 21.4763  23.6258
 21.4992  23.6795
 21.5223  23.7252
 21.5453  23.7968
 21.5683  23.7793
 21.5913  23.8283
 21.6142  23.809
 21.6373  23.8883
 21.6603  23.9246
 21.6833  23.8944
 21.7063  23.8802
 21.7293  23.8924
 21.7523  23.8316
 21.7753  23.909
 21.7982  23.9386
 21.8213  23.9301
 21.8443  23.8712
 21.8672  23.9701
 21.8903  24.5539
 21.9133  24.4537
 21.9363  24.0291
 21.9593  23.9546
 21.9823  23.9058
 22.0053  23.8959
 22.0283  23.9305
 22.0512  23.9475
 22.0743  23.9586
 22.0973  23.9572
 22.1203  24.0132
 22.1433  24.1029
 22.1663  24.126
 22.1893  24.1311
 22.2123  24.1061
 22.2353  24.1262
 22.2583  24.1786
 22.2813  24.1675
 22.3043  24.2381
 22.3273  24.2394
 22.3502  24.2844
 22.3733  24.3837
 22.3963  24.4455
 22.4193  24.4331
 22.4423  24.522
 22.4653  24.5286
 22.4883  24.4776
 22.5113  24.426
 22.5343  24.4418
 22.5573  24.47
 22.5803  24.4624
 22.6033  24.491
 22.6263  24.6286
 22.6493  24.5847
 22.6723  24.6187
 22.6953  24.8161
 22.7183  24.8273
 22.7413  24.9009
 22.7643  24.9882
 22.7873  25.0299
 22.8103  25.0958
 22.8333  25.1356
 22.8563  25.1762
 22.8793  25.3059
 22.9022  25.4624
 22.9253  25.5933
 22.9483  25.6986
 22.9713  25.9533
 22.9943  26.0395