File: test-data-xrd/xrd-map-34-ID-E/Data_0116.chi
F:\20151113_APS_34IDE\\Brian\Particle1\OCV\Data_0116.tif
2-Theta Angle (Degrees)
Intensity
       2000
 0.01725  0.0000000E+00
 0.04025  0.0000000E+00
 0.06325  0.0000000E+00
 0.08625  0.0000000E+00
 0.10925  0.0000000E+00
 0.13225  0.0000000E+00
 0.15525  0.0000000E+00
 0.17825  0.0000000E+00
 0.20125  0.0000000E+00
 0.22425  0.0000000E+00
 0.24725  0.0000000E+00
 0.27025  0.0000000E+00
 0.29325  0.0000000E+00
 0.31625  0.0000000E+00
 0.33925  0.0000000E+00
 0.36225  0.0000000E+00
 0.38525  0.0000000E+00
 0.40825  0.0000000E+00
 0.43125  0.0000000E+00
 0.45425  0.0000000E+00
 0.47725  0.0000000E+00
 0.50025  0.0000000E+00
 0.52325  0.0000000E+00
 0.54625  0.0000000E+00
 0.56925  0.0000000E+00
 0.59225  0.0000000E+00
 0.61525  0.0000000E+00
 0.63825  0.0000000E+00
 0.66125  0.0000000E+00
 0.68425  0.0000000E+00
 0.70725  0.0000000E+00
 0.73025  0.0000000E+00
 0.75325  0.0000000E+00
 0.77625  0.0000000E+00
 0.79925  0.0000000E+00
 0.82225  0.0000000E+00
 0.84525  0.0000000E+00
 0.86825  0.0000000E+00
 0.89125  0.0000000E+00
 0.91425  0.0000000E+00
 0.93725  0.0000000E+00
 0.96025  0.0000000E+00
 0.98325  0.0000000E+00
 1.00625  0.0000000E+00
 1.02925  0.0000000E+00
 1.05225  0.0000000E+00
 1.07525  0.0000000E+00
 1.09825  0.0000000E+00
 1.12125  0.0000000E+00
 1.14425  0.0000000E+00
 1.16725  0.0000000E+00
 1.19025  0.0000000E+00
 1.21325  0.0000000E+00
 1.23625  0.0000000E+00
 1.25925  0.0000000E+00
 1.28225  0.0000000E+00
 1.30525  0.0000000E+00
 1.32825  0.0000000E+00
 1.35125  0.0000000E+00
 1.37425  0.0000000E+00
 1.39725  0.0000000E+00
 1.42025  0.0000000E+00
 1.44325  0.0000000E+00
 1.46625  0.0000000E+00
 1.48925  0.0000000E+00
 1.51225  0.0000000E+00
 1.53525  0.0000000E+00
 1.55825  0.0000000E+00
 1.58125  0.0000000E+00
 1.60425  0.0000000E+00
 1.62725  0.0000000E+00
 1.65025  0.0000000E+00
 1.67325  0.0000000E+00
 1.69625  0.0000000E+00
 1.71925  0.0000000E+00
 1.74225  0.0000000E+00
 1.76525  0.0000000E+00
 1.78825  0.0000000E+00
 1.81125  0.0000000E+00
 1.83425  0.0000000E+00
 1.85725  0.0000000E+00
 1.88025  0.0000000E+00
 1.90325  0.0000000E+00
 1.92625  0.0000000E+00
 1.94925  0.0000000E+00
 1.97225  0.0000000E+00
 1.99525  0.0000000E+00
 2.01825  0.0000000E+00
 2.04125  0.0000000E+00
 2.06425  0.0000000E+00
 2.08725  0.0000000E+00
 2.11025  0.0000000E+00
 2.13325  0.0000000E+00
 2.15625  0.0000000E+00
 2.17925  0.0000000E+00
 2.20225  0.0000000E+00
 2.22525  0.0000000E+00
 2.24825  0.0000000E+00
 2.27125  0.0000000E+00
 2.29425  0.0000000E+00
 2.31725  0.0000000E+00
 2.34025  0.0000000E+00
 2.36325  0.0000000E+00
 2.38625  0.0000000E+00
 2.40925  0.0000000E+00
 2.43225  0.0000000E+00
 2.45525  0.0000000E+00
 2.47825  0.0000000E+00
 2.50125  0.0000000E+00
 2.52425  0.0000000E+00
 2.54725  0.0000000E+00
 2.57025  0.0000000E+00
 2.59325  0.0000000E+00
 2.61625  0.0000000E+00
 2.63925  0.0000000E+00
 2.66225  0.0000000E+00
 2.68525  0.0000000E+00
 2.70825  0.0000000E+00
 2.73125  0.0000000E+00
 2.75425  0.0000000E+00
 2.77725  0.0000000E+00
 2.80025  0.0000000E+00
 2.82325  31.8436
 2.84625  33.3658
 2.86925  34.1335
 2.89225  35.1508
 2.91525  34.6032
 2.93825  33.667
 2.96125  33.6429
 2.98425  34.2476
 3.00725  34.8321
 3.03025  34.6352
 3.05325  34.7247
 3.07625  34.884
 3.09925  35.0508
 3.12225  34.3971
 3.14525  34.2452
 3.16825  34.069
 3.19125  33.5963
 3.21425  33.6981
 3.23725  34.1227
 3.26025  34.2615
 3.28325  33.7929
 3.30625  33.3483
 3.32925  33.3026
 3.35225  33.5444
 3.37525  33.8304
 3.39825  34.1523
 3.42125  34.0525
 3.44425  33.5169
 3.46725  33.355
 3.49025  33.6076
 3.51325  33.3006
 3.53625  33.4551
 3.55925  33.4068
 3.58225  33.1373
 3.60525  32.9271
 3.62825  32.759
 3.65125  32.7493
 3.67425  32.834
 3.69725  32.7021
 3.72025  32.2211
 3.74325  32.2539
 3.76625  32.4191
 3.78925  32.6535
 3.81225  32.2667
 3.83525  32.2516
 3.85825  32.1479
 3.88125  32.5407
 3.90425  32.5189
 3.92725  32.3011
 3.95025  32.2797
 3.97325  32.4067
 3.99625  32.3617
 4.01925  32.1773
 4.04225  31.8568
 4.06525  31.8346
 4.08825  31.6801
 4.11125  31.8149
 4.13425  31.8425
 4.15725  31.8137
 4.18025  31.8897
 4.20325  32.1126
 4.22625  32.0553
 4.24925  31.866
 4.27225  31.7827
 4.29525  31.8987
 4.31825  31.8895
 4.34125  31.602
 4.36425  31.5945
 4.38725  31.5269
 4.41025  31.6232
 4.43325  31.8857
 4.45625  32.2035
 4.47925  32.2363
 4.50225  31.9664
 4.52525  32.0614
 4.54825  32.2225
 4.57125  32.2518
 4.59425  32.1015
 4.61725  32.0125
 4.64025  32.1426
 4.66325  32.3317
 4.68625  32.0601
 4.70925  31.7173
 4.73225  31.9143
 4.75525  31.9705
 4.77825  32.032
 4.80125  31.9527
 4.82425  32.2531
 4.84725  32.4657
 4.87025  32.4444
 4.89325  32.3157
 4.91625  32.5153
 4.93925  32.4761
 4.96225  32.2341
 4.98525  32.213
 5.00825  32.3018
 5.03125  32.5862
 5.05425  32.8107
 5.07725  32.7874
 5.10025  32.7079
 5.12325  32.6994
 5.14625  33.0596
 5.16925  33.2645
 5.19225  33.3712
 5.21525  33.3556
 5.23825  33.4666
 5.26125  33.6201
 5.28425  33.4897
 5.30725  33.6263
 5.33025  33.8908
 5.35325  33.9732
 5.37625  34.002
 5.39925  34.2375
 5.42225  34.2596
 5.44525  34.2284
 5.46825  34.318
 5.49125  34.3148
 5.51425  34.5688
 5.53725  34.7818
 5.56025  34.4959
 5.58325  34.516
 5.60625  34.4788
 5.62925  34.5814
 5.65225  34.842
 5.67525  35.0596
 5.69825  35.1099
 5.72125  35.0495
 5.74425  35.0551
 5.76725  35.2521
 5.79025  35.1781
 5.81325  35.2942
 5.83625  35.2912
 5.85925  35.1829
 5.88225  35.3925
 5.90525  35.9149
 5.92825  37.2933
 5.95125  39.9704
 5.97425  42.0404
 5.99725  42.3292
 6.02025  40.2884
 6.04325  38.1374
 6.06625  36.6665
 6.08925  36.2741
 6.11225  36.0906
 6.13525  35.9729
 6.15825  35.9859
 6.18125  36.3649
 6.20425  36.5952
 6.22725  36.6292
 6.25025  36.7327
 6.27325  36.9666
 6.29625  37.1686
 6.31925  37.204
 6.34225  37.3634
 6.36525  37.4585
 6.38825  37.6463
 6.41125  37.7026
 6.43425  37.8506
 6.45725  38.0259
 6.48025  38.1585
 6.50325  38.2675
 6.52625  38.3714
 6.54925  38.3999
 6.57225  38.5473
 6.59525  38.7911
 6.61825  38.9328
 6.64125  39.135
 6.66425  39.3661
 6.68725  39.4058
 6.71025  39.4572
 6.73325  39.5465
 6.75625  39.8599
 6.77925  40.1587
 6.80225  40.3536
 6.82525  40.6816
 6.84825  40.7471
 6.87125  40.7026
 6.89425  40.8597
 6.91725  41.1816
 6.94025  41.5457
 6.96325  41.7166
 6.98625  41.7975
 7.00925  41.9007
 7.03225  42.0656
 7.05525  42.0786
 7.07825  42.2313
 7.10125  42.2674
 7.12425  42.4575
 7.14725  42.4408
 7.17025  42.4512
 7.19325  42.3859
 7.21625  42.3914
 7.23925  42.4597
 7.26225  42.6077
 7.28525  42.6964
 7.30825  42.8117
 7.33125  43.0812
 7.35425  43.114
 7.37725  43.1741
 7.40025  43.2201
 7.42325  43.226
 7.44625  43.1937
 7.46925  43.2814
 7.49225  43.3754
 7.51525  43.4963
 7.53825  43.5438
 7.56125  43.5857
 7.58425  43.4965
 7.60725  43.4186
 7.63025  43.4015
 7.65325  43.3022
 7.67625  43.1046
 7.69925  43.0616
 7.72225  43.0922
 7.74525  43.2724
 7.76825  43.249
 7.79125  43.2776
 7.81425  43.2942
 7.83725  43.4661
 7.86025  43.4031
 7.88325  43.2237
 7.90625  43.065
 7.92925  43.0371
 7.95225  42.8406
 7.97525  42.7282
 7.99825  42.8619
 8.02125  42.805
 8.04425  42.5947
 8.06725  42.2546
 8.09025  41.8686
 8.11325  41.6948
 8.13625  41.4954
 8.15925  41.2601
 8.18225  41.0962
 8.20525  40.9717
 8.22825  40.8818
 8.25125  40.5873
 8.27425  40.2925
 8.29725  40.0552
 8.32025  39.6706
 8.34325  39.425
 8.36625  39.1195
 8.38925  38.6961
 8.41225  38.436
 8.43525  38.1773
 8.45825  37.7916
 8.48125  37.532
 8.50425  37.1394
 8.52725  36.9247
 8.55025  36.5094
 8.57325  36.1855
 8.59625  35.8401
 8.61925  35.5662
 8.64225  35.182
 8.66525  34.8736
 8.68825  34.9298
 8.71125  34.7788
 8.73425  34.2776
 8.75725  33.5154
 8.78025  33.131
 8.80325  32.7301
 8.82625  32.5426
 8.84925  32.3183
 8.87225  31.9776
 8.89525  31.6135
 8.91825  31.3162
 8.94125  31.0332
 8.96425  30.8305
 8.98725  30.5324
 9.01025  30.1009
 9.03325  29.8242
 9.05625  29.5925
 9.07925  29.3992
 9.10225  29.2337
 9.12525  29.1319
 9.14825  28.8679
 9.17125  28.428
 9.19425  28.0203
 9.21725  27.8017
 9.24025  27.5529
 9.26325  27.416
 9.28625  27.2778
 9.30925  27.1774
 9.33225  27.0554
 9.35525  26.7855
 9.37825  26.7088
 9.40125  26.6179
 9.42425  26.4955
 9.44725  26.3325
 9.47025  26.1661
 9.49325  26.0225
 9.51625  25.7963
 9.53925  25.7188
 9.56225  25.5389
 9.58525  25.3303
 9.60825  25.2203
 9.63125  25.2189
 9.65425  25.145
 9.67725  24.9787
 9.70025  24.773
 9.72325  24.6758
 9.74625  24.6374
 9.76925  24.539
 9.79225  24.4311
 9.81525  24.3105
 9.83825  24.2111
 9.86125  24.1548
 9.88425  24.1368
 9.90725  24.1034
 9.93025  24.1842
 9.95325  24.1342
 9.97625  24.0088
 9.99925  23.8738
 10.0222  23.7356
 10.0453  23.6849
 10.0683  23.6189
 10.0913  23.6361
 10.1143  23.6237
 10.1373  23.6034
 10.1603  23.5947
 10.1832  23.5521
 10.2063  23.4378
 10.2293  23.3918
 10.2523  23.343
 10.2752  23.2839
 10.2982  23.2125
 10.3213  23.163
 10.3443  23.2222
 10.3673  23.1167
 10.3902  23.0707
 10.4133  23.0777
 10.4363  22.9656
 10.4593  22.9486
 10.4823  23.0139
 10.5053  22.9731
 10.5283  22.9077
 10.5512  22.945
 10.5742  22.9427
 10.5973  22.9178
 10.6203  22.8897
 10.6433  22.7943
 10.6662  22.6833
 10.6893  22.5763
 10.7123  22.5292
 10.7353  22.5406
 10.7583  22.5024
 10.7813  22.377
 10.8043  22.3747
 10.8272  22.4927
 10.8503  22.4373
 10.8733  22.4343
 10.8963  22.4136
 10.9192  22.5124
 10.9422  22.5555
 10.9653  22.4878
 10.9883  22.4392
 11.0113  22.4063
 11.0343  22.2983
 11.0573  22.2296
 11.0803  22.2086
 11.1033  22.231
 11.1263  22.3192
 11.1493  22.2731
 11.1723  22.1492
 11.1953  22.1601
 11.2182  22.0636
 11.2413  21.9562
 11.2643  21.9765
 11.2873  22.0601
 11.3102  22.135
 11.3333  22.2022
 11.3563  22.2059
 11.3793  22.3489
 11.4023  22.4809
 11.4253  22.5466
 11.4483  22.4564
 11.4713  22.4844
 11.4942  22.654
 11.5173  23.0206
 11.5403  23.857
 11.5633  25.0218
 11.5862  26.1023
 11.6093  25.8943
 11.6323  24.6321
 11.6553  23.5043
 11.6783  22.8422
 11.7013  22.4887
 11.7243  22.2958
 11.7473  22.232
 11.7703  22.2249
 11.7933  22.238
 11.8163  22.2191
 11.8393  22.2068
 11.8622  22.2836
 11.8853  22.2757
 11.9083  22.456
 11.9313  22.9808
 11.9543  24.1708
 11.9773  25.5077
 12.0003  25.8737
 12.0233  24.7583
 12.0463  23.8517
 12.0693  23.9467
 12.0923  24.3248
 12.1153  24.1383
 12.1382  23.5267
 12.1613  22.8407
 12.1843  22.446
 12.2073  22.2394
 12.2302  22.099
 12.2533  22.0876
 12.2763  22.0819
 12.2993  22.1563
 12.3223  22.167
 12.3453  22.189
 12.3683  22.2084
 12.3913  22.288
 12.4142  22.2254
 12.4373  22.1944
 12.4603  22.199
 12.4833  22.2434
 12.5062  22.2342
 12.5292  22.2505
 12.5523  22.2476
 12.5753  22.2786
 12.5983  22.3394
 12.6212  22.4416
 12.6443  22.366
 12.6673  22.3514
 12.6903  22.4237
 12.7133  22.5447
 12.7363  22.5405
 12.7593  22.6629
 12.7822  22.6844
 12.8052  22.7212
 12.8283  22.8962
 12.8513  23.0155
 12.8742  23.167
 12.8972  23.046
 12.9203  23.1276
 12.9433  23.2809
 12.9663  23.3849
 12.9893  23.5188
 13.0123  23.5821
 13.0353  23.6978
 13.0582  23.921
 13.0813  24.1341
 13.1043  24.3046
 13.1273  24.4753
 13.1502  24.581
 13.1732  24.815
 13.1963  25.0614
 13.2193  25.4096
 13.2423  25.7982
 13.2652  26.0415
 13.2883  26.242
 13.3113  26.4821
 13.3343  26.7168
 13.3573  27.0457
 13.3803  27.3524
 13.4033  27.7312
 13.4262  27.9835
 13.4492  28.1253
 13.4723  28.2988
 13.4953  28.5693
 13.5183  28.7771
 13.5412  29.0539
 13.5643  29.1969
 13.5873  29.2476
 13.6103  29.3035
 13.6333  29.2258
 13.6563  29.1364
 13.6793  29.2326
 13.7022  29.1799
 13.7253  29.0825
 13.7483  29.0523
 13.7713  28.9926
 13.7942  28.8958
 13.8172  28.9425
 13.8403  29.1099
 13.8633  29.4503
 13.8863  30.3565
 13.9093  32.4426
 13.9323  35.0273
 13.9553  36.0539
 13.9783  34.4757
 14.0013  31.4711
 14.0243  29.1399
 14.0473  27.9848
 14.0703  27.5396
 14.0932  27.1762
 14.1163  26.866
 14.1393  26.7016
 14.1623  26.565
 14.1852  26.5265
 14.2083  26.5006
 14.2313  26.4366
 14.2543  26.1961
 14.2773  26.0258
 14.3003  25.8165
 14.3233  25.6692
 14.3463  25.5964
 14.3692  25.6868
 14.3923  25.7627
 14.4153  25.7828
 14.4383  25.6425
 14.4612  25.5072
 14.4843  25.4281
 14.5073  25.3455
 14.5303  25.2472
 14.5533  25.237
 14.5763  25.229
 14.5993  25.0985
 14.6223  25.1004
 14.6453  25.0201
 14.6683  24.8264
 14.6913  24.8019
 14.7143  24.7885
 14.7372  24.7383
 14.7603  24.7439
 14.7833  24.6289
 14.8063  24.5353
 14.8293  24.5638
 14.8523  24.5981
 14.8753  24.5898
 14.8983  24.6523
 14.9213  24.6512
 14.9443  24.4861
 14.9673  24.4345
 14.9903  24.4211
 15.0132  24.4269
 15.0363  24.5222
 15.0593  24.5455
 15.0823  24.557
 15.1052  24.7315
 15.1283  25.2273
 15.1513  26.1208
 15.1743  26.9576
 15.1973  27.4486
 15.2203  27.3184
 15.2433  26.3182
 15.2663  25.2206
 15.2892  24.7166
 15.3123  24.5555
 15.3353  24.4213
 15.3583  24.3923
 15.3812  24.2478
 15.4043  24.242
 15.4273  24.2934
 15.4503  24.3425
 15.4733  24.2729
 15.4963  24.3046
 15.5193  24.329
 15.5423  24.2717
 15.5653  24.175
 15.5883  24.1395
 15.6113  24.0004
 15.6343  23.9189
 15.6572  24.0891
 15.6803  24.0833
 15.7033  24.1991
 15.7263  24.2256
 15.7492  24.1743
 15.7723  24.1177
 15.7953  24.1234
 15.8183  24.2245
 15.8413  24.1872
 15.8643  24.1769
 15.8873  24.3442
 15.9103  24.3401
 15.9332  24.3174
 15.9563  24.3911
 15.9793  24.2942
 16.0023  24.1559
 16.0253  24.1061
 16.0482  24.2082
 16.0713  24.3798
 16.0943  24.4777
 16.1172  24.5318
 16.1403  24.5297
 16.1633  24.5234
 16.1863  24.5132
 16.2093  24.5679
 16.2323  24.9493
 16.2553  25.4269
 16.2783  25.4457
 16.3012  24.9169
 16.3243  24.5122
 16.3472  24.4494
 16.3703  24.4075
 16.3933  24.3438
 16.4163  24.38
 16.4393  24.4304
 16.4623  24.3773
 16.4853  24.2701
 16.5083  24.3542
 16.5312  24.3056
 16.5543  24.262
 16.5773  24.1505
 16.6002  24.2157
 16.6233  24.2727
 16.6463  24.2608
 16.6693  24.2288
 16.6923  24.1459
 16.7153  24.0993
 16.7383  24.0941
 16.7613  24.0361
 16.7843  23.9493
 16.8073  24.0685
 16.8303  24.137
 16.8533  24.0095
 16.8763  23.8868
 16.8992  23.8445
 16.9223  23.9028
 16.9453  23.8729
 16.9683  23.9156
 16.9913  23.9703
 17.0143  23.9898
 17.0373  23.9684
 17.0603  23.9275
 17.0832  23.8733
 17.1063  23.8518
 17.1293  23.8295
 17.1522  23.8311
 17.1753  23.8189
 17.1983  23.8611
 17.2213  23.9261
 17.2443  23.9144
 17.2673  23.8249
 17.2903  23.7624
 17.3133  23.733
 17.3362  23.6949
 17.3593  23.6376
 17.3823  23.6604
 17.4053  23.5942
 17.4283  23.5376
 17.4513  23.5506
 17.4743  23.6883
 17.4973  23.684
 17.5203  23.617
 17.5433  23.6131
 17.5663  23.5435
 17.5893  23.408
 17.6123  23.4916
 17.6352  23.4922
 17.6583  23.3657
 17.6813  23.3934
 17.7042  23.5001
 17.7273  23.416
 17.7503  23.4103
 17.7733  23.5098
 17.7963  23.5311
 17.8193  23.4441
 17.8423  23.4354
 17.8653  23.494
 17.8882  23.4289
 17.9113  23.5009
 17.9343  23.5564
 17.9573  23.4736
 17.9803  23.5278
 18.0033  23.6901
 18.0263  23.8102
 18.0493  23.8977
 18.0723  24.1204
 18.0953  24.5091
 18.1183  24.7912
 18.1413  24.6715
 18.1643  24.1908
 18.1872  23.7149
 18.2103  23.5541
 18.2333  23.4715
 18.2563  23.2821
 18.2793  23.2818
 18.3023  23.3053
 18.3253  23.2494
 18.3483  23.1569
 18.3712  23.2115
 18.3943  23.271
 18.4173  23.4027
 18.4402  23.3005
 18.4633  23.2076
 18.4863  23.1905
 18.5093  23.2004
 18.5323  23.2509
 18.5553  23.2447
 18.5783  23.2284
 18.6013  23.2582
 18.6242  23.3045
 18.6473  23.2961
 18.6703  23.2365
 18.6933  23.2195
 18.7163  23.1622
 18.7392  23.067
 18.7623  23.0721
 18.7853  23.1333
 18.8083  23.1757
 18.8313  23.1318
 18.8543  23.1694
 18.8773  23.1706
 18.9003  23.1203
 18.9232  23.1308
 18.9463  23.2378
 18.9693  23.1718
 18.9922  23.1259
 19.0153  23.1755
 19.0383  23.2725
 19.0613  23.2282
 19.0843  23.1743
 19.1073  23.0448
 19.1303  23.0744
 19.1533  23.1702
 19.1762  23.0964
 19.1993  23.1298
 19.2223  23.1435
 19.2453  23.0979
 19.2683  23.2169
 19.2913  23.2499
 19.3143  23.2394
 19.3373  23.3149
 19.3603  23.2891
 19.3833  23.3067
 19.4062  23.4171
 19.4293  23.4845
 19.4523  23.4923
 19.4752  23.3528
 19.4983  23.313
 19.5213  23.2857
 19.5443  23.3846
 19.5673  23.4373
 19.5903  23.5443
 19.6133  23.6169
 19.6363  23.7477
 19.6593  24.0961
 19.6823  24.7335
 19.7053  25.4655
 19.7283  25.6628
 19.7513  25.2173
 19.7742  24.9051
 19.7973  24.9855
 19.8203  25.5816
 19.8433  26.1678
 19.8663  26.1004
 19.8893  25.4029
 19.9123  24.5991
 19.9353  23.8972
 19.9582  23.6085
 19.9813  23.5242
 20.0043  23.5099
 20.0272  23.5353
 20.0503  23.4956
 20.0733  23.4117
 20.0963  23.3807
 20.1193  23.4281
 20.1423  23.4436
 20.1653  23.4717
 20.1883  23.4773
 20.2112  23.4178
 20.2343  23.3873
 20.2573  23.3242
 20.2803  23.3367
 20.3033  23.3878
 20.3263  23.3679
 20.3493  23.4656
 20.3723  23.455
 20.3953  23.4251
 20.4183  23.4447
 20.4413  23.4071
 20.4643  23.3429
 20.4873  23.325
 20.5102  23.3355
 20.5333  23.4013
 20.5563  23.5826
 20.5792  23.6262
 20.6023  23.5178
 20.6253  23.5203
 20.6483  23.6135
 20.6713  23.7793
 20.6943  24.2191
 20.7173  24.9214
 20.7403  25.3978
 20.7632  25.3877
 20.7863  25.0384
 20.8093  24.4807
 20.8323  24.0186
 20.8553  23.8231
 20.8783  23.7439
 20.9013  23.668
 20.9243  23.8928
 20.9473  23.87
 20.9703  23.7718
 20.9933  23.83
 21.0163  23.5825
 21.0393  23.6057
 21.0622  23.5988
 21.0853  23.6009
 21.1083  23.4331
 21.1313  23.4832
 21.1543  23.458
 21.1773  23.5372
 21.2003  23.5289
 21.2233  23.5242
 21.2462  23.4876
 21.2693  23.5353
 21.2923  23.6846
 21.3152  23.6064
 21.3383  23.5169
 21.3613  23.5267
 21.3843  23.5545
 21.4073  23.5663
 21.4303  23.5643
 21.4533  23.5131
 21.4763  23.564
 21.4992  23.5636
 21.5223  23.5803
 21.5453  23.6972
 21.5683  23.7715
 21.5913  23.8201
 21.6142  23.8068
 21.6373  23.6614
 21.6603  23.6067
 21.6833  23.6566
 21.7063  23.7581
 21.7293  23.7802
 21.7523  23.8805
 21.7753  23.7919
 21.7982  23.7255
 21.8213  23.7349
 21.8443  23.7341
 21.8672  23.7942
 21.8903  23.8914
 21.9133  23.9124
 21.9363  23.8957
 21.9593  23.8346
 21.9823  23.81
 22.0053  23.8148
 22.0283  23.8543
 22.0512  23.8537
 22.0743  23.8355
 22.0973  23.8467
 22.1203  23.9787
 22.1433  24.0229
 22.1663  23.9039
 22.1893  23.8559
 22.2123  23.9162
 22.2353  24.0215
 22.2583  24.0026
 22.2813  23.9363
 22.3043  23.9977
 22.3273  24.1008
 22.3502  24.1283
 22.3733  24.0639
 22.3963  24.0427
 22.4193  24.1111
 22.4423  24.2491
 22.4653  24.2688
 22.4883  24.2474
 22.5113  24.3055
 22.5343  24.3366
 22.5573  24.3718
 22.5803  24.4194
 22.6033  24.5018
 22.6263  24.5896
 22.6493  24.604
 22.6723  24.5617
 22.6953  24.6688
 22.7183  24.7379
 22.7413  24.8842
 22.7643  24.931
 22.7873  24.8399
 22.8103  24.9794
 22.8333  25.1041
 22.8563  25.1687
 22.8793  25.2814
 22.9022  25.3259
 22.9253  25.4247
 22.9483  25.5571
 22.9713  25.7479
 22.9943  25.8785