File: test-data-xrd/xrd-map-34-ID-E/Data_0098.chi
F:\20151113_APS_34IDE\\Brian\Particle1\OCV\Data_0098.tif
2-Theta Angle (Degrees)
Intensity
       2000
 0.01725  0.0000000E+00
 0.04025  0.0000000E+00
 0.06325  0.0000000E+00
 0.08625  0.0000000E+00
 0.10925  0.0000000E+00
 0.13225  0.0000000E+00
 0.15525  0.0000000E+00
 0.17825  0.0000000E+00
 0.20125  0.0000000E+00
 0.22425  0.0000000E+00
 0.24725  0.0000000E+00
 0.27025  0.0000000E+00
 0.29325  0.0000000E+00
 0.31625  0.0000000E+00
 0.33925  0.0000000E+00
 0.36225  0.0000000E+00
 0.38525  0.0000000E+00
 0.40825  0.0000000E+00
 0.43125  0.0000000E+00
 0.45425  0.0000000E+00
 0.47725  0.0000000E+00
 0.50025  0.0000000E+00
 0.52325  0.0000000E+00
 0.54625  0.0000000E+00
 0.56925  0.0000000E+00
 0.59225  0.0000000E+00
 0.61525  0.0000000E+00
 0.63825  0.0000000E+00
 0.66125  0.0000000E+00
 0.68425  0.0000000E+00
 0.70725  0.0000000E+00
 0.73025  0.0000000E+00
 0.75325  0.0000000E+00
 0.77625  0.0000000E+00
 0.79925  0.0000000E+00
 0.82225  0.0000000E+00
 0.84525  0.0000000E+00
 0.86825  0.0000000E+00
 0.89125  0.0000000E+00
 0.91425  0.0000000E+00
 0.93725  0.0000000E+00
 0.96025  0.0000000E+00
 0.98325  0.0000000E+00
 1.00625  0.0000000E+00
 1.02925  0.0000000E+00
 1.05225  0.0000000E+00
 1.07525  0.0000000E+00
 1.09825  0.0000000E+00
 1.12125  0.0000000E+00
 1.14425  0.0000000E+00
 1.16725  0.0000000E+00
 1.19025  0.0000000E+00
 1.21325  0.0000000E+00
 1.23625  0.0000000E+00
 1.25925  0.0000000E+00
 1.28225  0.0000000E+00
 1.30525  0.0000000E+00
 1.32825  0.0000000E+00
 1.35125  0.0000000E+00
 1.37425  0.0000000E+00
 1.39725  0.0000000E+00
 1.42025  0.0000000E+00
 1.44325  0.0000000E+00
 1.46625  0.0000000E+00
 1.48925  0.0000000E+00
 1.51225  0.0000000E+00
 1.53525  0.0000000E+00
 1.55825  0.0000000E+00
 1.58125  0.0000000E+00
 1.60425  0.0000000E+00
 1.62725  0.0000000E+00
 1.65025  0.0000000E+00
 1.67325  0.0000000E+00
 1.69625  0.0000000E+00
 1.71925  0.0000000E+00
 1.74225  0.0000000E+00
 1.76525  0.0000000E+00
 1.78825  0.0000000E+00
 1.81125  0.0000000E+00
 1.83425  0.0000000E+00
 1.85725  0.0000000E+00
 1.88025  0.0000000E+00
 1.90325  0.0000000E+00
 1.92625  0.0000000E+00
 1.94925  0.0000000E+00
 1.97225  0.0000000E+00
 1.99525  0.0000000E+00
 2.01825  0.0000000E+00
 2.04125  0.0000000E+00
 2.06425  0.0000000E+00
 2.08725  0.0000000E+00
 2.11025  0.0000000E+00
 2.13325  0.0000000E+00
 2.15625  0.0000000E+00
 2.17925  0.0000000E+00
 2.20225  0.0000000E+00
 2.22525  0.0000000E+00
 2.24825  0.0000000E+00
 2.27125  0.0000000E+00
 2.29425  0.0000000E+00
 2.31725  0.0000000E+00
 2.34025  0.0000000E+00
 2.36325  0.0000000E+00
 2.38625  0.0000000E+00
 2.40925  0.0000000E+00
 2.43225  0.0000000E+00
 2.45525  0.0000000E+00
 2.47825  0.0000000E+00
 2.50125  0.0000000E+00
 2.52425  0.0000000E+00
 2.54725  0.0000000E+00
 2.57025  0.0000000E+00
 2.59325  0.0000000E+00
 2.61625  0.0000000E+00
 2.63925  0.0000000E+00
 2.66225  0.0000000E+00
 2.68525  0.0000000E+00
 2.70825  0.0000000E+00
 2.73125  0.0000000E+00
 2.75425  0.0000000E+00
 2.77725  0.0000000E+00
 2.80025  0.0000000E+00
 2.82325  32.9588
 2.84625  34.5771
 2.86925  35.1476
 2.89225  35.9233
 2.91525  36.4446
 2.93825  36.674
 2.96125  36.6026
 2.98425  36.2099
 3.00725  36.3963
 3.03025  36.2474
 3.05325  36.1077
 3.07625  35.7183
 3.09925  35.8137
 3.12225  35.4199
 3.14525  35.8358
 3.16825  35.8457
 3.19125  35.8638
 3.21425  36.0194
 3.23725  36.1334
 3.26025  36.5078
 3.28325  36.4677
 3.30625  36.481
 3.32925  36.1926
 3.35225  36.0175
 3.37525  35.9462
 3.39825  35.636
 3.42125  35.2602
 3.44425  34.9571
 3.46725  34.6498
 3.49025  34.5614
 3.51325  33.8952
 3.53625  33.7224
 3.55925  33.9939
 3.58225  33.8707
 3.60525  33.7112
 3.62825  33.8923
 3.65125  34.0903
 3.67425  33.6973
 3.69725  33.2141
 3.72025  33.31
 3.74325  33.3351
 3.76625  33.459
 3.78925  33.4475
 3.81225  33.3337
 3.83525  33.1398
 3.85825  32.9026
 3.88125  32.9616
 3.90425  33.2323
 3.92725  33.3229
 3.95025  33.7616
 3.97325  33.9718
 3.99625  33.6865
 4.01925  33.135
 4.04225  32.8583
 4.06525  32.5191
 4.08825  32.3523
 4.11125  32.4602
 4.13425  32.6918
 4.15725  32.6628
 4.18025  32.4424
 4.20325  32.7638
 4.22625  32.9094
 4.24925  32.5781
 4.27225  32.2082
 4.29525  31.8951
 4.31825  32.028
 4.34125  32.3424
 4.36425  32.473
 4.38725  32.4245
 4.41025  32.7514
 4.43325  32.9007
 4.45625  32.7518
 4.47925  32.8436
 4.50225  33.1187
 4.52525  33.3698
 4.54825  33.3595
 4.57125  33.1945
 4.59425  33.3178
 4.61725  33.5454
 4.64025  33.645
 4.66325  33.5749
 4.68625  33.5705
 4.70925  33.5625
 4.73225  33.2731
 4.75525  32.985
 4.77825  33.0088
 4.80125  32.932
 4.82425  32.9522
 4.84725  32.9641
 4.87025  33.2149
 4.89325  33.3196
 4.91625  33.2808
 4.93925  33.1754
 4.96225  33.1251
 4.98525  33.185
 5.00825  33.4641
 5.03125  33.513
 5.05425  33.6694
 5.07725  33.7322
 5.10025  34.0539
 5.12325  34.0197
 5.14625  34.0582
 5.16925  34.1198
 5.19225  34.4337
 5.21525  34.2295
 5.23825  34.1251
 5.26125  34.2135
 5.28425  34.3588
 5.30725  34.4425
 5.33025  34.7006
 5.35325  34.7339
 5.37625  34.9814
 5.39925  35.1385
 5.42225  34.9838
 5.44525  34.8567
 5.46825  34.9372
 5.49125  34.8592
 5.51425  34.9026
 5.53725  35.0771
 5.56025  35.2556
 5.58325  35.5237
 5.60625  35.671
 5.62925  35.6625
 5.65225  35.5782
 5.67525  35.7946
 5.69825  35.6693
 5.72125  35.5993
 5.74425  35.7373
 5.76725  35.9154
 5.79025  36.1283
 5.81325  36.1447
 5.83625  36.2054
 5.85925  36.2598
 5.88225  36.3121
 5.90525  36.4333
 5.92825  36.9595
 5.95125  38.1457
 5.97425  39.8017
 5.99725  39.7089
 6.02025  38.5679
 6.04325  37.5602
 6.06625  37.2998
 6.08925  37.1521
 6.11225  36.9159
 6.13525  36.9469
 6.15825  37.1604
 6.18125  37.2911
 6.20425  37.3394
 6.22725  37.5946
 6.25025  37.8088
 6.27325  37.9792
 6.29625  38.082
 6.31925  38.0328
 6.34225  37.979
 6.36525  38.3314
 6.38825  38.6326
 6.41125  38.7845
 6.43425  39.0311
 6.45725  39.0691
 6.48025  38.969
 6.50325  39.3379
 6.52625  39.8413
 6.54925  39.9902
 6.57225  40.0495
 6.59525  40.177
 6.61825  40.2691
 6.64125  40.4432
 6.66425  40.6674
 6.68725  40.6465
 6.71025  40.8507
 6.73325  41.0474
 6.75625  41.1788
 6.77925  41.321
 6.80225  41.4221
 6.82525  41.7434
 6.84825  42.1197
 6.87125  42.4392
 6.89425  42.4967
 6.91725  42.4485
 6.94025  42.5634
 6.96325  42.7548
 6.98625  42.9327
 7.00925  42.9944
 7.03225  43.0755
 7.05525  43.1875
 7.07825  43.1963
 7.10125  43.3191
 7.12425  43.6689
 7.14725  43.8433
 7.17025  43.8455
 7.19325  43.9258
 7.21625  44.0777
 7.23925  44.0512
 7.26225  44.187
 7.28525  44.3593
 7.30825  44.4677
 7.33125  44.5877
 7.35425  44.6429
 7.37725  44.8375
 7.40025  44.7708
 7.42325  44.6139
 7.44625  44.4987
 7.46925  44.6227
 7.49225  44.743
 7.51525  44.7536
 7.53825  44.8271
 7.56125  44.8271
 7.58425  44.8004
 7.60725  44.7593
 7.63025  44.672
 7.65325  44.6122
 7.67625  44.6203
 7.69925  44.8109
 7.72225  44.9156
 7.74525  44.9159
 7.76825  44.9302
 7.79125  45.044
 7.81425  44.9577
 7.83725  44.7027
 7.86025  44.5997
 7.88325  44.5553
 7.90625  44.4797
 7.92925  44.3771
 7.95225  44.2357
 7.97525  44.1639
 7.99825  44.2204
 8.02125  44.1715
 8.04425  44.2259
 8.06725  43.9858
 8.09025  43.7121
 8.11325  43.3953
 8.13625  43.1974
 8.15925  42.9671
 8.18225  42.8345
 8.20525  42.6402
 8.22825  42.2703
 8.25125  41.9822
 8.27425  41.7481
 8.29725  41.4797
 8.32025  41.2989
 8.34325  41.075
 8.36625  40.7657
 8.38925  40.4063
 8.41225  40.04
 8.43525  39.6616
 8.45825  39.1244
 8.48125  38.7161
 8.50425  38.3006
 8.52725  37.8917
 8.55025  37.5166
 8.57325  37.3309
 8.59625  37.0516
 8.61925  36.6417
 8.64225  36.3053
 8.66525  35.9693
 8.68825  35.5691
 8.71125  35.2729
 8.73425  34.9873
 8.75725  34.5367
 8.78025  34.1247
 8.80325  33.6665
 8.82625  33.3972
 8.84925  33.2225
 8.87225  33.0266
 8.89525  32.6998
 8.91825  32.3697
 8.94125  31.8768
 8.96425  31.5026
 8.98725  31.4004
 9.01025  31.2169
 9.03325  30.8787
 9.05625  30.6237
 9.07925  30.4445
 9.10225  30.0419
 9.12525  29.6429
 9.14825  29.4163
 9.17125  29.227
 9.19425  28.9921
 9.21725  28.6326
 9.24025  28.2855
 9.26325  28.1068
 9.28625  27.9116
 9.30925  27.6839
 9.33225  27.6221
 9.35525  27.4578
 9.37825  27.2479
 9.40125  27.1389
 9.42425  27.0598
 9.44725  26.9299
 9.47025  26.9234
 9.49325  26.8754
 9.51625  26.6318
 9.53925  26.3577
 9.56225  26.1967
 9.58525  25.9957
 9.60825  25.9164
 9.63125  25.8745
 9.65425  25.8179
 9.67725  25.5366
 9.70025  25.3631
 9.72325  25.3164
 9.74625  25.262
 9.76925  25.2367
 9.79225  25.2616
 9.81525  25.2129
 9.83825  25.0821
 9.86125  24.9868
 9.88425  24.8375
 9.90725  24.6759
 9.93025  24.6262
 9.95325  24.5426
 9.97625  24.5151
 9.99925  24.4928
 10.0222  24.4295
 10.0453  24.3839
 10.0683  24.1485
 10.0913  23.9492
 10.1143  23.9301
 10.1373  23.9972
 10.1603  24.0321
 10.1832  24.0239
 10.2063  23.9023
 10.2293  23.9079
 10.2523  23.8369
 10.2752  23.7238
 10.2982  23.6725
 10.3213  23.5959
 10.3443  23.4374
 10.3673  23.4048
 10.3902  23.4801
 10.4133  23.4819
 10.4363  23.3703
 10.4593  23.2919
 10.4823  23.3355
 10.5053  23.3837
 10.5283  23.2764
 10.5512  23.1382
 10.5742  23.0994
 10.5973  23.0351
 10.6203  22.921
 10.6433  22.8593
 10.6662  22.8858
 10.6893  22.9264
 10.7123  22.9702
 10.7353  22.9465
 10.7583  22.8871
 10.7813  22.906
 10.8043  22.9246
 10.8272  22.844
 10.8503  22.8262
 10.8733  22.8596
 10.8963  22.8275
 10.9192  22.9315
 10.9422  22.8605
 10.9653  22.8507
 10.9883  22.826
 11.0113  22.7299
 11.0343  22.6784
 11.0573  22.5436
 11.0803  22.5188
 11.1033  22.5761
 11.1263  22.6234
 11.1493  22.6027
 11.1723  22.4937
 11.1953  22.3178
 11.2182  22.3672
 11.2413  22.4476
 11.2643  22.4404
 11.2873  22.4241
 11.3102  22.4536
 11.3333  22.4832
 11.3563  22.4868
 11.3793  22.5176
 11.4023  22.6767
 11.4253  22.6265
 11.4483  22.6187
 11.4713  22.6261
 11.4942  22.6426
 11.5173  22.6632
 11.5403  23.1042
 11.5633  23.9903
 11.5862  25.0382
 11.6093  25.0566
 11.6323  24.0171
 11.6553  23.0452
 11.6783  22.6182
 11.7013  22.4449
 11.7243  22.3363
 11.7473  22.2816
 11.7703  22.3745
 11.7933  22.4079
 11.8163  22.4262
 11.8393  22.3883
 11.8622  22.3825
 11.8853  22.3866
 11.9083  22.4388
 11.9313  22.4745
 11.9543  22.5148
 11.9773  22.6682
 12.0003  22.6831
 12.0233  22.5919
 12.0463  22.5779
 12.0693  22.6061
 12.0923  22.7824
 12.1153  22.8665
 12.1382  22.7894
 12.1613  22.6217
 12.1843  22.4253
 12.2073  22.2504
 12.2302  22.2282
 12.2533  22.3028
 12.2763  22.4189
 12.2993  22.4731
 12.3223  22.4905
 12.3453  22.5062
 12.3683  22.5627
 12.3913  22.5507
 12.4142  22.5558
 12.4373  22.5182
 12.4603  22.5575
 12.4833  22.6273
 12.5062  22.6657
 12.5292  22.6382
 12.5523  22.6625
 12.5753  22.651
 12.5983  22.7001
 12.6212  22.8051
 12.6443  22.8697
 12.6673  22.8295
 12.6903  22.781
 12.7133  22.8884
 12.7363  22.9815
 12.7593  23.0312
 12.7822  23.1197
 12.8052  23.2192
 12.8283  23.2345
 12.8513  23.3242
 12.8742  23.4232
 12.8972  23.5442
 12.9203  23.6093
 12.9433  23.7687
 12.9663  23.9105
 12.9893  24.048
 13.0123  24.0378
 13.0353  24.1487
 13.0582  24.3546
 13.0813  24.5254
 13.1043  24.8539
 13.1273  25.3396
 13.1502  27.4429
 13.1732  26.1163
 13.1963  25.8249
 13.2193  26.0281
 13.2423  26.3908
 13.2652  26.621
 13.2883  26.8934
 13.3113  27.1897
 13.3343  27.4211
 13.3573  27.7105
 13.3803  27.9264
 13.4033  28.2935
 13.4262  28.6094
 13.4492  28.875
 13.4723  29.0847
 13.4953  29.2879
 13.5183  29.5444
 13.5412  29.6771
 13.5643  29.8253
 13.5873  29.8329
 13.6103  29.8514
 13.6333  29.8496
 13.6563  29.8212
 13.6793  29.7506
 13.7022  29.6255
 13.7253  29.5627
 13.7483  29.5274
 13.7713  29.5128
 13.7942  29.3518
 13.8172  29.2194
 13.8403  29.1194
 13.8633  29.1052
 13.8863  29.3029
 13.9093  29.8017
 13.9323  30.412
 13.9553  30.7973
 13.9783  30.4765
 14.0013  29.455
 14.0243  28.4333
 14.0473  27.7958
 14.0703  27.5643
 14.0932  27.385
 14.1163  27.3079
 14.1393  27.1534
 14.1623  26.9637
 14.1852  26.7933
 14.2083  26.7534
 14.2313  26.8112
 14.2543  26.6932
 14.2773  26.4459
 14.3003  26.2775
 14.3233  26.191
 14.3463  26.1651
 14.3692  26.1692
 14.3923  26.0866
 14.4153  25.9106
 14.4383  25.834
 14.4612  25.7803
 14.4843  25.7433
 14.5073  25.7205
 14.5303  25.6734
 14.5533  25.5718
 14.5763  25.5598
 14.5993  25.4344
 14.6223  25.4055
 14.6453  25.4366
 14.6683  25.3907
 14.6913  25.2819
 14.7143  25.2334
 14.7372  25.158
 14.7603  25.0512
 14.7833  25.0196
 14.8063  25.0353
 14.8293  25.0895
 14.8523  25.1132
 14.8753  25.0022
 14.8983  24.9465
 14.9213  24.9288
 14.9443  24.7946
 14.9673  24.7428
 14.9903  24.7692
 15.0132  24.8247
 15.0363  24.792
 15.0593  24.7797
 15.0823  24.7053
 15.1052  24.6982
 15.1283  24.7237
 15.1513  24.8874
 15.1743  25.0294
 15.1973  25.1994
 15.2203  25.2222
 15.2433  24.9928
 15.2663  24.7558
 15.2892  24.7167
 15.3123  24.7263
 15.3353  24.7137
 15.3583  24.669
 15.3812  24.6329
 15.4043  24.5543
 15.4273  24.5595
 15.4503  24.5962
 15.4733  24.5873
 15.4963  24.5026
 15.5193  24.5113
 15.5423  24.5462
 15.5653  24.4559
 15.5883  24.4549
 15.6113  24.3702
 15.6343  24.3435
 15.6572  24.4673
 15.6803  24.5444
 15.7033  24.5751
 15.7263  24.5385
 15.7492  24.5394
 15.7723  24.6207
 15.7953  24.5974
 15.8183  24.6462
 15.8413  24.6369
 15.8643  24.606
 15.8873  24.6682
 15.9103  24.7215
 15.9332  24.701
 15.9563  24.6939
 15.9793  24.771
 16.0023  24.7912
 16.0253  24.7358
 16.0482  24.8001
 16.0713  24.8098
 16.0943  24.7547
 16.1172  24.7863
 16.1403  24.8518
 16.1633  24.8991
 16.1863  24.9274
 16.2093  24.981
 16.2323  25.0111
 16.2553  25.1548
 16.2783  25.2549
 16.3012  25.093
 16.3243  24.9495
 16.3472  24.7826
 16.3703  24.6526
 16.3933  24.6082
 16.4163  24.7103
 16.4393  24.745
 16.4623  24.6395
 16.4853  24.5931
 16.5083  24.4906
 16.5312  24.4557
 16.5543  24.5449
 16.5773  24.5742
 16.6002  24.6002
 16.6233  24.584
 16.6463  24.4439
 16.6693  24.4649
 16.6923  24.5499
 16.7153  24.4785
 16.7383  24.3509
 16.7613  24.3907
 16.7843  24.3952
 16.8073  24.4181
 16.8303  24.3369
 16.8533  24.3358
 16.8763  24.3672
 16.8992  24.3285
 16.9223  24.2844
 16.9453  24.2922
 16.9683  24.2176
 16.9913  24.1827
 17.0143  24.1789
 17.0373  24.1565
 17.0603  24.1494
 17.0832  24.0708
 17.1063  24.1026
 17.1293  24.1628
 17.1522  24.1139
 17.1753  24.1699
 17.1983  24.2506
 17.2213  24.2014
 17.2443  24.0949
 17.2673  23.9694
 17.2903  24.0238
 17.3133  24.05
 17.3362  24.0762
 17.3593  24.0801
 17.3823  23.9276
 17.4053  23.7981
 17.4283  23.8228
 17.4513  23.8443
 17.4743  23.8702
 17.4973  23.8639
 17.5203  23.8143
 17.5433  23.8187
 17.5663  23.7934
 17.5893  23.7089
 17.6123  23.7037
 17.6352  23.7254
 17.6583  23.6908
 17.6813  23.6513
 17.7042  23.6535
 17.7273  23.6252
 17.7503  23.6546
 17.7733  23.7375
 17.7963  23.8428
 17.8193  23.7903
 17.8423  23.7333
 17.8653  23.6241
 17.8882  23.6268
 17.9113  23.6731
 17.9343  23.7007
 17.9573  23.6286
 17.9803  23.6306
 18.0033  23.7633
 18.0263  23.7771
 18.0493  23.7706
 18.0723  23.8254
 18.0953  23.879
 18.1183  23.8914
 18.1413  23.7116
 18.1643  23.5819
 18.1872  23.4925
 18.2103  23.5003
 18.2333  23.4483
 18.2563  23.4045
 18.2793  23.4457
 18.3023  23.4772
 18.3253  23.4664
 18.3483  23.4495
 18.3712  23.4089
 18.3943  23.3659
 18.4173  23.337
 18.4402  23.3893
 18.4633  23.4869
 18.4863  23.5217
 18.5093  23.5501
 18.5323  23.4627
 18.5553  23.3892
 18.5783  23.3712
 18.6013  23.4438
 18.6242  23.4196
 18.6473  23.4251
 18.6703  23.4235
 18.6933  23.5001
 18.7163  23.5633
 18.7392  23.4992
 18.7623  23.3522
 18.7853  23.3352
 18.8083  23.3915
 18.8313  23.305
 18.8543  23.3308
 18.8773  23.3845
 18.9003  23.4729
 18.9232  23.551
 18.9463  23.6176
 18.9693  23.4675
 18.9922  23.359
 19.0153  23.3695
 19.0383  23.3909
 19.0613  23.3835
 19.0843  23.4229
 19.1073  23.3968
 19.1303  23.4814
 19.1533  23.491
 19.1762  23.4197
 19.1993  23.4203
 19.2223  23.4098
 19.2453  23.4123
 19.2683  23.4864
 19.2913  23.4827
 19.3143  23.5177
 19.3373  23.5702
 19.3603  23.5192
 19.3833  23.5066
 19.4062  23.5199
 19.4293  23.5095
 19.4523  23.4808
 19.4752  23.445
 19.4983  23.3901
 19.5213  23.4218
 19.5443  23.493
 19.5673  23.4995
 19.5903  23.4465
 19.6133  23.4688
 19.6363  23.5551
 19.6593  23.7199
 19.6823  23.9228
 19.7053  24.0888
 19.7283  24.1736
 19.7513  24.0722
 19.7742  23.9391
 19.7973  23.8587
 19.8203  23.8974
 19.8433  24.0739
 19.8663  24.1095
 19.8893  23.9896
 19.9123  23.804
 19.9353  23.6796
 19.9582  23.6097
 19.9813  23.5778
 20.0043  23.5445
 20.0272  23.4787
 20.0503  23.4719
 20.0733  23.5131
 20.0963  23.6151
 20.1193  23.7343
 20.1423  23.6459
 20.1653  23.6431
 20.1883  23.5871
 20.2112  23.5447
 20.2343  23.5322
 20.2573  23.5325
 20.2803  23.5592
 20.3033  23.5588
 20.3263  23.5981
 20.3493  23.5861
 20.3723  23.4894
 20.3953  23.4874
 20.4183  23.607
 20.4413  23.6928
 20.4643  23.7636
 20.4873  23.7198
 20.5102  23.6061
 20.5333  23.5219
 20.5563  23.5868
 20.5792  23.6204
 20.6023  23.7826
 20.6253  23.8364
 20.6483  23.7375
 20.6713  23.7651
 20.6943  23.785
 20.7173  23.9111
 20.7403  24.0687
 20.7632  24.1684
 20.7863  24.0916
 20.8093  23.8645
 20.8323  23.6804
 20.8553  23.6709
 20.8783  23.7253
 20.9013  23.7901
 20.9243  23.7696
 20.9473  23.7233
 20.9703  23.7205
 20.9933  23.727
 21.0163  23.8151
 21.0393  23.8805
 21.0622  23.7614
 21.0853  23.7634
 21.1083  23.7739
 21.1313  23.7934
 21.1543  23.6794
 21.1773  23.678
 21.2003  23.7064
 21.2233  23.6977
 21.2462  23.7281
 21.2693  23.7692
 21.2923  23.7397
 21.3152  23.7913
 21.3383  23.8226
 21.3613  23.7933
 21.3843  23.8668
 21.4073  23.9992
 21.4303  24.1128
 21.4533  23.8947
 21.4763  23.8178
 21.4992  23.8489
 21.5223  23.8453
 21.5453  23.8501
 21.5683  23.8759
 21.5913  23.946
 21.6142  23.9664
 21.6373  23.9607
 21.6603  23.9972
 21.6833  24.0288
 21.7063  24.0371
 21.7293  24.0511
 21.7523  23.9877
 21.7753  23.9567
 21.7982  23.9304
 21.8213  23.9336
 21.8443  24.0052
 21.8672  24.1039
 21.8903  24.1177
 21.9133  24.1075
 21.9363  24.0982
 21.9593  24.1218
 21.9823  24.0388
 22.0053  24.0558
 22.0283  24.1634
 22.0512  24.2056
 22.0743  24.1314
 22.0973  24.1005
 22.1203  24.1865
 22.1433  24.2991
 22.1663  24.2798
 22.1893  24.2521
 22.2123  24.2035
 22.2353  24.2504
 22.2583  24.307
 22.2813  24.3238
 22.3043  24.383
 22.3273  24.4042
 22.3502  24.3682
 22.3733  24.3
 22.3963  24.322
 22.4193  24.3564
 22.4423  24.3785
 22.4653  24.4447
 22.4883  24.5246
 22.5113  24.6473
 22.5343  24.7056
 22.5573  24.688
 22.5803  24.7146
 22.6033  24.7308
 22.6263  24.7633
 22.6493  24.7678
 22.6723  24.8353
 22.6953  25.0237
 22.7183  25.0136
 22.7413  25.093
 22.7643  25.1268
 22.7873  25.0506
 22.8103  25.1595
 22.8333  25.245
 22.8563  25.2875
 22.8793  25.4421
 22.9022  25.5541
 22.9253  25.6636
 22.9483  25.7999
 22.9713  25.9583
 22.9943  26.1302