File: test-data-xrd/xrd-map-34-ID-E/Data_0138.chi
F:\20151113_APS_34IDE\\Brian\Particle1\OCV\Data_0138.tif
2-Theta Angle (Degrees)
Intensity
       2000
 0.01725  0.0000000E+00
 0.04025  0.0000000E+00
 0.06325  0.0000000E+00
 0.08625  0.0000000E+00
 0.10925  0.0000000E+00
 0.13225  0.0000000E+00
 0.15525  0.0000000E+00
 0.17825  0.0000000E+00
 0.20125  0.0000000E+00
 0.22425  0.0000000E+00
 0.24725  0.0000000E+00
 0.27025  0.0000000E+00
 0.29325  0.0000000E+00
 0.31625  0.0000000E+00
 0.33925  0.0000000E+00
 0.36225  0.0000000E+00
 0.38525  0.0000000E+00
 0.40825  0.0000000E+00
 0.43125  0.0000000E+00
 0.45425  0.0000000E+00
 0.47725  0.0000000E+00
 0.50025  0.0000000E+00
 0.52325  0.0000000E+00
 0.54625  0.0000000E+00
 0.56925  0.0000000E+00
 0.59225  0.0000000E+00
 0.61525  0.0000000E+00
 0.63825  0.0000000E+00
 0.66125  0.0000000E+00
 0.68425  0.0000000E+00
 0.70725  0.0000000E+00
 0.73025  0.0000000E+00
 0.75325  0.0000000E+00
 0.77625  0.0000000E+00
 0.79925  0.0000000E+00
 0.82225  0.0000000E+00
 0.84525  0.0000000E+00
 0.86825  0.0000000E+00
 0.89125  0.0000000E+00
 0.91425  0.0000000E+00
 0.93725  0.0000000E+00
 0.96025  0.0000000E+00
 0.98325  0.0000000E+00
 1.00625  0.0000000E+00
 1.02925  0.0000000E+00
 1.05225  0.0000000E+00
 1.07525  0.0000000E+00
 1.09825  0.0000000E+00
 1.12125  0.0000000E+00
 1.14425  0.0000000E+00
 1.16725  0.0000000E+00
 1.19025  0.0000000E+00
 1.21325  0.0000000E+00
 1.23625  0.0000000E+00
 1.25925  0.0000000E+00
 1.28225  0.0000000E+00
 1.30525  0.0000000E+00
 1.32825  0.0000000E+00
 1.35125  0.0000000E+00
 1.37425  0.0000000E+00
 1.39725  0.0000000E+00
 1.42025  0.0000000E+00
 1.44325  0.0000000E+00
 1.46625  0.0000000E+00
 1.48925  0.0000000E+00
 1.51225  0.0000000E+00
 1.53525  0.0000000E+00
 1.55825  0.0000000E+00
 1.58125  0.0000000E+00
 1.60425  0.0000000E+00
 1.62725  0.0000000E+00
 1.65025  0.0000000E+00
 1.67325  0.0000000E+00
 1.69625  0.0000000E+00
 1.71925  0.0000000E+00
 1.74225  0.0000000E+00
 1.76525  0.0000000E+00
 1.78825  0.0000000E+00
 1.81125  0.0000000E+00
 1.83425  0.0000000E+00
 1.85725  0.0000000E+00
 1.88025  0.0000000E+00
 1.90325  0.0000000E+00
 1.92625  0.0000000E+00
 1.94925  0.0000000E+00
 1.97225  0.0000000E+00
 1.99525  0.0000000E+00
 2.01825  0.0000000E+00
 2.04125  0.0000000E+00
 2.06425  0.0000000E+00
 2.08725  0.0000000E+00
 2.11025  0.0000000E+00
 2.13325  0.0000000E+00
 2.15625  0.0000000E+00
 2.17925  0.0000000E+00
 2.20225  0.0000000E+00
 2.22525  0.0000000E+00
 2.24825  0.0000000E+00
 2.27125  0.0000000E+00
 2.29425  0.0000000E+00
 2.31725  0.0000000E+00
 2.34025  0.0000000E+00
 2.36325  0.0000000E+00
 2.38625  0.0000000E+00
 2.40925  0.0000000E+00
 2.43225  0.0000000E+00
 2.45525  0.0000000E+00
 2.47825  0.0000000E+00
 2.50125  0.0000000E+00
 2.52425  0.0000000E+00
 2.54725  0.0000000E+00
 2.57025  0.0000000E+00
 2.59325  0.0000000E+00
 2.61625  0.0000000E+00
 2.63925  0.0000000E+00
 2.66225  0.0000000E+00
 2.68525  0.0000000E+00
 2.70825  0.0000000E+00
 2.73125  0.0000000E+00
 2.75425  0.0000000E+00
 2.77725  0.0000000E+00
 2.80025  0.0000000E+00
 2.82325  33.467
 2.84625  32.9939
 2.86925  32.415
 2.89225  33.8026
 2.91525  35.469
 2.93825  36.2508
 2.96125  36.3847
 2.98425  36.3766
 3.00725  36.701
 3.03025  36.5575
 3.05325  36.4031
 3.07625  36.1368
 3.09925  36.1055
 3.12225  35.6969
 3.14525  35.2901
 3.16825  35.3224
 3.19125  35.7186
 3.21425  35.877
 3.23725  35.7686
 3.26025  35.3135
 3.28325  35.2317
 3.30625  35.3516
 3.32925  35.3976
 3.35225  35.2865
 3.37525  35.0425
 3.39825  34.8944
 3.42125  34.9967
 3.44425  34.8814
 3.46725  34.1276
 3.49025  33.913
 3.51325  34.1451
 3.53625  34.6787
 3.55925  34.5857
 3.58225  34.1907
 3.60525  33.4766
 3.62825  33.201
 3.65125  33.1666
 3.67425  33.3145
 3.69725  33.1472
 3.72025  33.4396
 3.74325  33.884
 3.76625  33.9087
 3.78925  33.449
 3.81225  33.0212
 3.83525  32.7904
 3.85825  32.8846
 3.88125  33.0308
 3.90425  32.6323
 3.92725  32.6884
 3.95025  32.9795
 3.97325  33.0195
 3.99625  33.0202
 4.01925  32.8026
 4.04225  32.6838
 4.06525  32.5514
 4.08825  32.2722
 4.11125  32.1716
 4.13425  32.3517
 4.15725  32.4768
 4.18025  32.3569
 4.20325  32.2155
 4.22625  32.3078
 4.24925  32.1386
 4.27225  32.1308
 4.29525  32.2855
 4.31825  32.2738
 4.34125  32.2141
 4.36425  32.2156
 4.38725  32.2766
 4.41025  32.5838
 4.43325  32.7092
 4.45625  32.5451
 4.47925  32.4563
 4.50225  32.3206
 4.52525  32.3324
 4.54825  32.6815
 4.57125  32.7729
 4.59425  32.8191
 4.61725  32.8828
 4.64025  32.9176
 4.66325  32.8243
 4.68625  32.6117
 4.70925  32.6585
 4.73225  32.5754
 4.75525  32.4329
 4.77825  32.414
 4.80125  32.516
 4.82425  32.5609
 4.84725  32.724
 4.87025  33.174
 4.89325  33.3822
 4.91625  33.329
 4.93925  33.2173
 4.96225  33.142
 4.98525  32.9943
 5.00825  32.9835
 5.03125  33.1717
 5.05425  33.5239
 5.07725  33.3611
 5.10025  33.3912
 5.12325  33.5599
 5.14625  33.7675
 5.16925  33.7494
 5.19225  33.9382
 5.21525  33.9911
 5.23825  33.8483
 5.26125  33.833
 5.28425  33.9986
 5.30725  34.3047
 5.33025  34.3395
 5.35325  34.1458
 5.37625  34.1278
 5.39925  34.2645
 5.42225  34.2334
 5.44525  34.1614
 5.46825  34.2481
 5.49125  34.4395
 5.51425  34.5501
 5.53725  34.7635
 5.56025  35.1483
 5.58325  35.3949
 5.60625  35.2474
 5.62925  35.1835
 5.65225  35.1555
 5.67525  35.276
 5.69825  35.2744
 5.72125  35.4392
 5.74425  35.4215
 5.76725  35.3337
 5.79025  35.5012
 5.81325  35.5843
 5.83625  35.6303
 5.85925  35.5628
 5.88225  35.9044
 5.90525  36.2607
 5.92825  36.4286
 5.95125  37.3669
 5.97425  38.3553
 5.99725  38.8603
 6.02025  38.1709
 6.04325  37.4296
 6.06625  36.9562
 6.08925  36.8676
 6.11225  36.8824
 6.13525  36.7274
 6.15825  36.6017
 6.18125  36.7804
 6.20425  36.7852
 6.22725  36.889
 6.25025  37.0837
 6.27325  37.3202
 6.29625  37.6162
 6.31925  37.7539
 6.34225  38.0964
 6.36525  38.1629
 6.38825  38.2596
 6.41125  38.5728
 6.43425  38.7338
 6.45725  38.8379
 6.48025  39.1121
 6.50325  39.2657
 6.52625  39.2142
 6.54925  39.1985
 6.57225  39.1735
 6.59525  39.3909
 6.61825  39.6596
 6.64125  39.8206
 6.66425  39.9944
 6.68725  40.0448
 6.71025  40.1753
 6.73325  40.327
 6.75625  40.5049
 6.77925  40.7513
 6.80225  41.0838
 6.82525  41.3992
 6.84825  41.4895
 6.87125  41.5642
 6.89425  41.7047
 6.91725  41.9936
 6.94025  42.1912
 6.96325  42.272
 6.98625  42.3943
 7.00925  42.4722
 7.03225  42.6263
 7.05525  42.8622
 7.07825  42.8338
 7.10125  42.6832
 7.12425  42.7615
 7.14725  42.8777
 7.17025  42.8734
 7.19325  43.1589
 7.21625  43.5401
 7.23925  43.4361
 7.26225  43.4146
 7.28525  43.4103
 7.30825  43.457
 7.33125  43.5101
 7.35425  43.6671
 7.37725  43.7492
 7.40025  43.8415
 7.42325  43.9255
 7.44625  44.1258
 7.46925  44.2823
 7.49225  44.2944
 7.51525  44.3533
 7.53825  44.3543
 7.56125  44.3014
 7.58425  44.2411
 7.60725  44.1945
 7.63025  44.139
 7.65325  44.2873
 7.67625  44.2893
 7.69925  44.253
 7.72225  44.3659
 7.74525  44.399
 7.76825  44.3434
 7.79125  44.26
 7.81425  44.3305
 7.83725  44.4379
 7.86025  44.2791
 7.88325  43.9565
 7.90625  43.8262
 7.92925  43.7916
 7.95225  43.6957
 7.97525  43.5662
 7.99825  43.4846
 8.02125  43.5664
 8.04425  43.4199
 8.06725  43.1599
 8.09025  42.8197
 8.11325  42.6401
 8.13625  42.4895
 8.15925  42.2843
 8.18225  42.0461
 8.20525  41.9597
 8.22825  41.6115
 8.25125  41.3081
 8.27425  41.1246
 8.29725  40.8327
 8.32025  40.6415
 8.34325  40.4713
 8.36625  40.1838
 8.38925  39.6987
 8.41225  39.2713
 8.43525  39.0296
 8.45825  38.659
 8.48125  38.2844
 8.50425  37.8901
 8.52725  37.6791
 8.55025  37.3701
 8.57325  36.9478
 8.59625  36.5598
 8.61925  36.2004
 8.64225  35.9707
 8.66525  35.5328
 8.68825  35.0648
 8.71125  34.7228
 8.73425  34.4114
 8.75725  34.0632
 8.78025  33.8809
 8.80325  33.6285
 8.82625  33.3617
 8.84925  32.8907
 8.87225  32.4783
 8.89525  32.0286
 8.91825  31.699
 8.94125  31.4309
 8.96425  31.1039
 8.98725  30.704
 9.01025  30.3599
 9.03325  30.2592
 9.05625  30.0613
 9.07925  29.8138
 9.10225  29.6177
 9.12525  29.3925
 9.14825  29.1947
 9.17125  28.9697
 9.19425  28.6052
 9.21725  28.2339
 9.24025  27.9885
 9.26325  27.8167
 9.28625  27.6468
 9.30925  27.5625
 9.33225  27.334
 9.35525  27.1678
 9.37825  27.0096
 9.40125  26.8525
 9.42425  26.6469
 9.44725  26.4116
 9.47025  26.249
 9.49325  26.1781
 9.51625  26.1358
 9.53925  26.0948
 9.56225  25.9788
 9.58525  25.8848
 9.60825  25.7042
 9.63125  25.5904
 9.65425  25.3892
 9.67725  25.1823
 9.70025  25.0114
 9.72325  25.0471
 9.74625  24.9862
 9.76925  24.8516
 9.79225  24.7934
 9.81525  24.7296
 9.83825  24.5657
 9.86125  24.4915
 9.88425  24.425
 9.90725  24.3187
 9.93025  24.2464
 9.95325  24.1942
 9.97625  24.2539
 9.99925  24.2518
 10.0222  24.2729
 10.0453  24.2178
 10.0683  24.2119
 10.0913  24.0937
 10.1143  24.0118
 10.1373  23.9085
 10.1603  23.9251
 10.1832  23.9444
 10.2063  23.9052
 10.2293  23.8306
 10.2523  23.6376
 10.2752  23.5199
 10.2982  23.4426
 10.3213  23.4188
 10.3443  23.2932
 10.3673  23.1649
 10.3902  23.2849
 10.4133  23.3536
 10.4363  23.3297
 10.4593  23.1846
 10.4823  23.086
 10.5053  23.0837
 10.5283  23.1251
 10.5512  23.1681
 10.5742  23.0179
 10.5973  22.8591
 10.6203  22.8699
 10.6433  22.9205
 10.6662  22.9145
 10.6893  22.7713
 10.7123  22.6745
 10.7353  22.6475
 10.7583  22.6706
 10.7813  22.765
 10.8043  22.756
 10.8272  22.7471
 10.8503  22.6395
 10.8733  22.5084
 10.8963  22.3972
 10.9192  22.4587
 10.9422  22.4895
 10.9653  22.486
 10.9883  22.5047
 11.0113  22.4228
 11.0343  22.3672
 11.0573  22.3259
 11.0803  22.288
 11.1033  22.3269
 11.1263  22.3882
 11.1493  22.3463
 11.1723  22.277
 11.1953  22.1825
 11.2182  22.2265
 11.2413  22.2145
 11.2643  22.2187
 11.2873  22.1649
 11.3102  22.2134
 11.3333  22.2641
 11.3563  22.3381
 11.3793  22.3887
 11.4023  22.4229
 11.4253  22.5357
 11.4483  22.4868
 11.4713  22.4223
 11.4942  22.4238
 11.5173  22.4948
 11.5403  22.7434
 11.5633  23.0687
 11.5862  23.2631
 11.6093  23.1107
 11.6323  22.8009
 11.6553  22.5714
 11.6783  22.362
 11.7013  22.2395
 11.7243  22.1734
 11.7473  22.1112
 11.7703  22.1311
 11.7933  22.1919
 11.8163  22.285
 11.8393  22.2573
 11.8622  22.3149
 11.8853  22.268
 11.9083  22.3248
 11.9313  22.4788
 11.9543  22.704
 11.9773  22.7455
 12.0003  22.8083
 12.0233  22.721
 12.0463  22.6299
 12.0693  22.6183
 12.0923  22.708
 12.1153  22.6303
 12.1382  22.5048
 12.1613  22.4386
 12.1843  22.451
 12.2073  22.439
 12.2302  22.2861
 12.2533  22.1857
 12.2763  22.2129
 12.2993  22.2798
 12.3223  22.3505
 12.3453  22.3269
 12.3683  22.3702
 12.3913  22.3901
 12.4142  22.3725
 12.4373  22.3855
 12.4603  22.372
 12.4833  22.4522
 12.5062  22.4532
 12.5292  22.4202
 12.5523  22.533
 12.5753  22.6264
 12.5983  22.6413
 12.6212  22.691
 12.6443  22.6219
 12.6673  22.6298
 12.6903  22.7419
 12.7133  22.8631
 12.7363  22.8218
 12.7593  22.7652
 12.7822  22.7848
 12.8052  22.8113
 12.8283  22.7816
 12.8513  22.8871
 12.8742  23.024
 12.8972  23.17
 12.9203  23.2002
 12.9433  23.3436
 12.9663  23.5569
 12.9893  23.7079
 13.0123  23.8389
 13.0353  24.0524
 13.0582  24.1792
 13.0813  24.3166
 13.1043  24.516
 13.1273  24.7373
 13.1502  24.9203
 13.1732  25.1574
 13.1963  25.4042
 13.2193  25.7266
 13.2423  26.0597
 13.2652  26.3262
 13.2883  26.5109
 13.3113  26.6831
 13.3343  26.9954
 13.3573  27.4413
 13.3803  27.8197
 13.4033  28.0882
 13.4262  28.2849
 13.4492  28.4974
 13.4723  28.7563
 13.4953  29.0382
 13.5183  29.2282
 13.5412  29.2351
 13.5643  29.3837
 13.5873  29.5538
 13.6103  29.5676
 13.6333  29.5925
 13.6563  29.6602
 13.6793  29.5179
 13.7022  29.3669
 13.7253  29.1668
 13.7483  29.057
 13.7713  29.0419
 13.7942  29.001
 13.8172  28.8741
 13.8403  28.7269
 13.8633  28.8231
 13.8863  29.0652
 13.9093  29.941
 13.9323  30.7693
 13.9553  30.7535
 13.9783  30.189
 14.0013  29.0767
 14.0243  28.1159
 14.0473  27.6711
 14.0703  27.6099
 14.0932  27.4487
 14.1163  27.1932
 14.1393  26.876
 14.1623  26.6114
 14.1852  26.524
 14.2083  26.4309
 14.2313  26.3484
 14.2543  26.2167
 14.2773  26.1987
 14.3003  26.154
 14.3233  26.0937
 14.3463  26.0022
 14.3692  25.9484
 14.3923  25.8577
 14.4153  25.8879
 14.4383  25.8304
 14.4612  25.6891
 14.4843  25.5487
 14.5073  25.4611
 14.5303  25.4353
 14.5533  25.3722
 14.5763  25.2734
 14.5993  25.0995
 14.6223  25.1413
 14.6453  25.1242
 14.6683  24.9557
 14.6913  24.9655
 14.7143  24.9354
 14.7372  24.8514
 14.7603  24.7728
 14.7833  24.8038
 14.8063  24.824
 14.8293  24.7505
 14.8523  24.8184
 14.8753  24.8052
 14.8983  24.7214
 14.9213  24.6975
 14.9443  24.6493
 14.9673  24.5886
 14.9903  24.5208
 15.0132  24.5183
 15.0363  24.5888
 15.0593  24.6177
 15.0823  24.535
 15.1052  24.5593
 15.1283  24.6925
 15.1513  24.8057
 15.1743  24.8409
 15.1973  24.851
 15.2203  24.8525
 15.2433  24.6901
 15.2663  24.5126
 15.2892  24.4714
 15.3123  24.4617
 15.3353  24.4634
 15.3583  24.4613
 15.3812  24.3187
 15.4043  24.2945
 15.4273  24.3255
 15.4503  24.292
 15.4733  24.2894
 15.4963  24.2731
 15.5193  24.2198
 15.5423  24.1724
 15.5653  24.2436
 15.5883  24.2937
 15.6113  24.2428
 15.6343  24.184
 15.6572  24.2855
 15.6803  24.3691
 15.7033  24.444
 15.7263  24.5121
 15.7492  24.4889
 15.7723  24.4572
 15.7953  24.392
 15.8183  24.3362
 15.8413  24.2581
 15.8643  24.3573
 15.8873  24.4041
 15.9103  24.4337
 15.9332  24.3804
 15.9563  24.2877
 15.9793  24.3357
 16.0023  24.5654
 16.0253  24.5802
 16.0482  24.4675
 16.0713  24.432
 16.0943  24.5311
 16.1172  24.5105
 16.1403  24.5618
 16.1633  24.6834
 16.1863  24.8484
 16.2093  25.2708
 16.2323  25.8471
 16.2553  26.2937
 16.2783  26.0709
 16.3012  25.306
 16.3243  24.7683
 16.3472  24.507
 16.3703  24.4208
 16.3933  24.4056
 16.4163  24.387
 16.4393  24.3801
 16.4623  24.381
 16.4853  24.371
 16.5083  24.3383
 16.5312  24.3247
 16.5543  24.4743
 16.5773  24.42
 16.6002  24.461
 16.6233  24.3902
 16.6463  24.3545
 16.6693  24.2908
 16.6923  24.311
 16.7153  24.319
 16.7383  24.262
 16.7613  24.2223
 16.7843  24.1129
 16.8073  24.1507
 16.8303  24.1233
 16.8533  24.0884
 16.8763  24.2389
 16.8992  24.178
 16.9223  24.0994
 16.9453  24.0896
 16.9683  24.0971
 16.9913  24.032
 17.0143  23.928
 17.0373  23.8787
 17.0603  23.8679
 17.0832  23.9644
 17.1063  23.9205
 17.1293  23.9156
 17.1522  23.901
 17.1753  23.902
 17.1983  23.9178
 17.2213  23.8176
 17.2443  23.7366
 17.2673  23.6966
 17.2903  23.773
 17.3133  23.7662
 17.3362  23.817
 17.3593  23.8101
 17.3823  23.7891
 17.4053  23.6926
 17.4283  23.713
 17.4513  23.7722
 17.4743  23.7184
 17.4973  23.6055
 17.5203  23.6606
 17.5433  23.7287
 17.5663  23.6669
 17.5893  23.6025
 17.6123  23.6537
 17.6352  23.637
 17.6583  23.5381
 17.6813  23.4562
 17.7042  23.4756
 17.7273  23.3703
 17.7503  23.3382
 17.7733  23.4303
 17.7963  23.4357
 17.8193  23.4315
 17.8423  23.4514
 17.8653  23.4486
 17.8882  23.289
 17.9113  23.3393
 17.9343  23.3747
 17.9573  23.332
 17.9803  23.4031
 18.0033  23.5356
 18.0263  23.6001
 18.0493  23.6224
 18.0723  23.7208
 18.0953  23.8
 18.1183  23.8051
 18.1413  23.7638
 18.1643  23.5353
 18.1872  23.2944
 18.2103  23.276
 18.2333  23.2622
 18.2563  23.2103
 18.2793  23.2499
 18.3023  23.2564
 18.3253  23.2074
 18.3483  23.2451
 18.3712  23.2599
 18.3943  23.2835
 18.4173  23.3257
 18.4402  23.3559
 18.4633  23.3602
 18.4863  23.3188
 18.5093  23.2509
 18.5323  23.3329
 18.5553  23.3454
 18.5783  23.3521
 18.6013  23.3532
 18.6242  23.2901
 18.6473  23.2315
 18.6703  23.237
 18.6933  23.2479
 18.7163  23.2082
 18.7392  23.1569
 18.7623  23.1731
 18.7853  23.183
 18.8083  23.1925
 18.8313  23.1976
 18.8543  23.1775
 18.8773  23.2432
 18.9003  23.1855
 18.9232  23.2634
 18.9463  23.4098
 18.9693  23.4965
 18.9922  23.1589
 19.0153  23.1716
 19.0383  23.2316
 19.0613  23.2363
 19.0843  23.2626
 19.1073  23.4322
 19.1303  23.5544
 19.1533  23.6221
 19.1762  23.4414
 19.1993  23.3055
 19.2223  23.3118
 19.2453  23.1707
 19.2683  23.267
 19.2913  23.256
 19.3143  23.3389
 19.3373  23.3321
 19.3603  23.3344
 19.3833  23.3182
 19.4062  23.3372
 19.4293  23.3262
 19.4523  23.305
 19.4752  23.3239
 19.4983  23.317
 19.5213  23.2546
 19.5443  23.2673
 19.5673  23.205
 19.5903  23.2453
 19.6133  23.3021
 19.6363  23.4434
 19.6593  23.5015
 19.6823  23.6136
 19.7053  23.7769
 19.7283  23.8139
 19.7513  23.7636
 19.7742  23.6545
 19.7973  23.6308
 19.8203  23.6597
 19.8433  23.9418
 19.8663  23.9418
 19.8893  23.8211
 19.9123  23.7034
 19.9353  23.4492
 19.9582  23.3334
 19.9813  23.3491
 20.0043  23.4098
 20.0272  23.3517
 20.0503  23.3674
 20.0733  23.3218
 20.0963  23.3372
 20.1193  23.3282
 20.1423  23.2169
 20.1653  23.314
 20.1883  23.3282
 20.2112  23.3384
 20.2343  23.3554
 20.2573  23.3257
 20.2803  23.3236
 20.3033  23.3595
 20.3263  23.3513
 20.3493  23.3349
 20.3723  23.3103
 20.3953  23.3428
 20.4183  23.4032
 20.4413  23.3609
 20.4643  23.375
 20.4873  23.3206
 20.5102  23.379
 20.5333  23.3822
 20.5563  23.4152
 20.5792  23.4544
 20.6023  23.5244
 20.6253  23.5323
 20.6483  23.5133
 20.6713  23.5406
 20.6943  23.6352
 20.7173  23.7728
 20.7403  23.8873
 20.7632  24.0086
 20.7863  23.9796
 20.8093  23.8602
 20.8323  23.6506
 20.8553  23.5664
 20.8783  23.5405
 20.9013  23.5303
 20.9243  23.6563
 20.9473  23.7049
 20.9703  23.6482
 20.9933  23.6525
 21.0163  23.5392
 21.0393  23.4535
 21.0622  23.4903
 21.0853  23.5686
 21.1083  23.5524
 21.1313  23.6465
 21.1543  23.5806
 21.1773  23.6044
 21.2003  23.6501
 21.2233  23.5714
 21.2462  23.6098
 21.2693  23.6623
 21.2923  23.5837
 21.3152  23.5437
 21.3383  23.5148
 21.3613  23.5903
 21.3843  23.6418
 21.4073  23.6144
 21.4303  23.606
 21.4533  23.6377
 21.4763  23.7111
 21.4992  23.7497
 21.5223  23.6757
 21.5453  23.7582
 21.5683  23.7749
 21.5913  23.7774
 21.6142  23.8096
 21.6373  23.757
 21.6603  23.7608
 21.6833  23.8488
 21.7063  23.8884
 21.7293  23.8266
 21.7523  23.7334
 21.7753  23.7913
 21.7982  23.8605
 21.8213  23.961
 21.8443  23.9215
 21.8672  23.9187
 21.8903  23.9355
 21.9133  23.8732
 21.9363  23.8391
 21.9593  23.8813
 21.9823  23.9471
 22.0053  23.9369
 22.0283  23.9833
 22.0512  24.0214
 22.0743  24.0283
 22.0973  23.971
 22.1203  24.0339
 22.1433  24.0571
 22.1663  24.0125
 22.1893  23.9871
 22.2123  23.9518
 22.2353  24.0022
 22.2583  24.0183
 22.2813  24.022
 22.3043  24.1516
 22.3273  24.2233
 22.3502  24.2125
 22.3733  24.1354
 22.3963  24.4223
 22.4193  24.6331
 22.4423  24.6044
 22.4653  24.3754
 22.4883  24.3866
 22.5113  24.4521
 22.5343  24.403
 22.5573  24.5007
 22.5803  24.5142
 22.6033  24.4842
 22.6263  24.593
 22.6493  24.6693
 22.6723  24.6672
 22.6953  24.7444
 22.7183  24.7477
 22.7413  24.7889
 22.7643  24.8345
 22.7873  24.9227
 22.8103  25.0222
 22.8333  25.2256
 22.8563  25.2789
 22.8793  25.3456
 22.9022  25.4064
 22.9253  25.5299
 22.9483  25.5835
 22.9713  25.6687
 22.9943  25.8458