File: test-data-xrd/xrd-map-34-ID-E/Data_0008.chi
F:\20151113_APS_34IDE\\Brian\Particle1\OCV\Data_0008.tif
2-Theta Angle (Degrees)
Intensity
       2000
 0.01725  0.0000000E+00
 0.04025  0.0000000E+00
 0.06325  0.0000000E+00
 0.08625  0.0000000E+00
 0.10925  0.0000000E+00
 0.13225  0.0000000E+00
 0.15525  0.0000000E+00
 0.17825  0.0000000E+00
 0.20125  0.0000000E+00
 0.22425  0.0000000E+00
 0.24725  0.0000000E+00
 0.27025  0.0000000E+00
 0.29325  0.0000000E+00
 0.31625  0.0000000E+00
 0.33925  0.0000000E+00
 0.36225  0.0000000E+00
 0.38525  0.0000000E+00
 0.40825  0.0000000E+00
 0.43125  0.0000000E+00
 0.45425  0.0000000E+00
 0.47725  0.0000000E+00
 0.50025  0.0000000E+00
 0.52325  0.0000000E+00
 0.54625  0.0000000E+00
 0.56925  0.0000000E+00
 0.59225  0.0000000E+00
 0.61525  0.0000000E+00
 0.63825  0.0000000E+00
 0.66125  0.0000000E+00
 0.68425  0.0000000E+00
 0.70725  0.0000000E+00
 0.73025  0.0000000E+00
 0.75325  0.0000000E+00
 0.77625  0.0000000E+00
 0.79925  0.0000000E+00
 0.82225  0.0000000E+00
 0.84525  0.0000000E+00
 0.86825  0.0000000E+00
 0.89125  0.0000000E+00
 0.91425  0.0000000E+00
 0.93725  0.0000000E+00
 0.96025  0.0000000E+00
 0.98325  0.0000000E+00
 1.00625  0.0000000E+00
 1.02925  0.0000000E+00
 1.05225  0.0000000E+00
 1.07525  0.0000000E+00
 1.09825  0.0000000E+00
 1.12125  0.0000000E+00
 1.14425  0.0000000E+00
 1.16725  0.0000000E+00
 1.19025  0.0000000E+00
 1.21325  0.0000000E+00
 1.23625  0.0000000E+00
 1.25925  0.0000000E+00
 1.28225  0.0000000E+00
 1.30525  0.0000000E+00
 1.32825  0.0000000E+00
 1.35125  0.0000000E+00
 1.37425  0.0000000E+00
 1.39725  0.0000000E+00
 1.42025  0.0000000E+00
 1.44325  0.0000000E+00
 1.46625  0.0000000E+00
 1.48925  0.0000000E+00
 1.51225  0.0000000E+00
 1.53525  0.0000000E+00
 1.55825  0.0000000E+00
 1.58125  0.0000000E+00
 1.60425  0.0000000E+00
 1.62725  0.0000000E+00
 1.65025  0.0000000E+00
 1.67325  0.0000000E+00
 1.69625  0.0000000E+00
 1.71925  0.0000000E+00
 1.74225  0.0000000E+00
 1.76525  0.0000000E+00
 1.78825  0.0000000E+00
 1.81125  0.0000000E+00
 1.83425  0.0000000E+00
 1.85725  0.0000000E+00
 1.88025  0.0000000E+00
 1.90325  0.0000000E+00
 1.92625  0.0000000E+00
 1.94925  0.0000000E+00
 1.97225  0.0000000E+00
 1.99525  0.0000000E+00
 2.01825  0.0000000E+00
 2.04125  0.0000000E+00
 2.06425  0.0000000E+00
 2.08725  0.0000000E+00
 2.11025  0.0000000E+00
 2.13325  0.0000000E+00
 2.15625  0.0000000E+00
 2.17925  0.0000000E+00
 2.20225  0.0000000E+00
 2.22525  0.0000000E+00
 2.24825  0.0000000E+00
 2.27125  0.0000000E+00
 2.29425  0.0000000E+00
 2.31725  0.0000000E+00
 2.34025  0.0000000E+00
 2.36325  0.0000000E+00
 2.38625  0.0000000E+00
 2.40925  0.0000000E+00
 2.43225  0.0000000E+00
 2.45525  0.0000000E+00
 2.47825  0.0000000E+00
 2.50125  0.0000000E+00
 2.52425  0.0000000E+00
 2.54725  0.0000000E+00
 2.57025  0.0000000E+00
 2.59325  0.0000000E+00
 2.61625  0.0000000E+00
 2.63925  0.0000000E+00
 2.66225  0.0000000E+00
 2.68525  0.0000000E+00
 2.70825  0.0000000E+00
 2.73125  0.0000000E+00
 2.75425  0.0000000E+00
 2.77725  0.0000000E+00
 2.80025  0.0000000E+00
 2.82325  33.4256
 2.84625  34.4166
 2.86925  34.3699
 2.89225  35.0249
 2.91525  34.9875
 2.93825  35.1112
 2.96125  35.4328
 2.98425  34.962
 3.00725  35.7304
 3.03025  36.9032
 3.05325  36.6152
 3.07625  36.0099
 3.09925  35.8462
 3.12225  35.6076
 3.14525  35.6865
 3.16825  35.3735
 3.19125  35.5324
 3.21425  36.3215
 3.23725  35.9863
 3.26025  35.5993
 3.28325  35.0433
 3.30625  34.7728
 3.32925  34.4031
 3.35225  34.1634
 3.37525  34.0431
 3.39825  33.9972
 3.42125  34.1966
 3.44425  34.2184
 3.46725  34.074
 3.49025  34.312
 3.51325  34.3744
 3.53625  34.1738
 3.55925  34.0767
 3.58225  33.9388
 3.60525  33.63
 3.62825  33.4124
 3.65125  33.3584
 3.67425  33.0935
 3.69725  33.1414
 3.72025  33.1859
 3.74325  33.3733
 3.76625  33.1814
 3.78925  32.9927
 3.81225  32.8166
 3.83525  32.9718
 3.85825  32.9698
 3.88125  33.2658
 3.90425  33.2625
 3.92725  32.7567
 3.95025  32.6272
 3.97325  32.7733
 3.99625  33.0153
 4.01925  32.9184
 4.04225  32.5565
 4.06525  32.6619
 4.08825  32.2526
 4.11125  31.9599
 4.13425  32.2659
 4.15725  32.3954
 4.18025  32.3417
 4.20325  32.4734
 4.22625  32.3988
 4.24925  32.2476
 4.27225  32.2982
 4.29525  32.3376
 4.31825  32.4587
 4.34125  32.5437
 4.36425  32.5045
 4.38725  32.264
 4.41025  32.2415
 4.43325  32.4408
 4.45625  32.4665
 4.47925  32.2998
 4.50225  31.9877
 4.52525  32.0935
 4.54825  32.6488
 4.57125  32.7531
 4.59425  32.7554
 4.61725  32.741
 4.64025  32.5983
 4.66325  32.8244
 4.68625  33.0475
 4.70925  33.1122
 4.73225  32.904
 4.75525  32.7578
 4.77825  32.7093
 4.80125  32.8121
 4.82425  32.9147
 4.84725  33.0527
 4.87025  32.953
 4.89325  32.9084
 4.91625  33.0823
 4.93925  33.2614
 4.96225  33.2968
 4.98525  33.2492
 5.00825  33.3558
 5.03125  33.652
 5.05425  33.9667
 5.07725  33.7442
 5.10025  33.556
 5.12325  33.5051
 5.14625  33.9212
 5.16925  34.0398
 5.19225  33.9988
 5.21525  33.9176
 5.23825  33.8803
 5.26125  34.0759
 5.28425  34.3051
 5.30725  34.4462
 5.33025  34.399
 5.35325  34.3331
 5.37625  34.4009
 5.39925  34.5246
 5.42225  34.6221
 5.44525  34.7885
 5.46825  34.8329
 5.49125  34.6374
 5.51425  34.7444
 5.53725  34.9811
 5.56025  35.1184
 5.58325  35.2095
 5.60625  35.0768
 5.62925  34.9009
 5.65225  34.9348
 5.67525  35.1093
 5.69825  35.1417
 5.72125  35.4104
 5.74425  35.48
 5.76725  35.5792
 5.79025  35.7949
 5.81325  35.9735
 5.83625  35.9467
 5.85925  35.9596
 5.88225  36.0498
 5.90525  36.4191
 5.92825  36.7602
 5.95125  37.7716
 5.97425  38.9776
 5.99725  38.6636
 6.02025  37.7419
 6.04325  36.8604
 6.06625  36.692
 6.08925  36.8445
 6.11225  36.8095
 6.13525  36.719
 6.15825  36.7621
 6.18125  36.8562
 6.20425  36.9515
 6.22725  37.1466
 6.25025  37.3104
 6.27325  37.5013
 6.29625  37.6902
 6.31925  37.9033
 6.34225  38.1172
 6.36525  38.2297
 6.38825  38.3244
 6.41125  38.4998
 6.43425  38.6424
 6.45725  38.6139
 6.48025  38.7941
 6.50325  39.2379
 6.52625  39.5498
 6.54925  39.5433
 6.57225  39.5377
 6.59525  39.8035
 6.61825  40.0875
 6.64125  40.2817
 6.66425  40.2677
 6.68725  40.3266
 6.71025  40.4091
 6.73325  40.4526
 6.75625  40.591
 6.77925  40.7457
 6.80225  40.8084
 6.82525  41.1222
 6.84825  41.3501
 6.87125  41.5793
 6.89425  41.7447
 6.91725  41.9483
 6.94025  41.9994
 6.96325  42.1334
 6.98625  42.4146
 7.00925  42.4108
 7.03225  42.5786
 7.05525  42.7877
 7.07825  42.9206
 7.10125  42.975
 7.12425  43.1191
 7.14725  43.3567
 7.17025  43.5062
 7.19325  43.5252
 7.21625  43.3999
 7.23925  43.5005
 7.26225  43.7829
 7.28525  43.9869
 7.30825  44.1116
 7.33125  44.1035
 7.35425  44.134
 7.37725  44.0172
 7.40025  44.0711
 7.42325  44.1713
 7.44625  44.2669
 7.46925  44.2184
 7.49225  44.1384
 7.51525  44.205
 7.53825  44.3531
 7.56125  44.4568
 7.58425  44.6288
 7.60725  44.7416
 7.63025  44.6506
 7.65325  44.5855
 7.67625  44.5884
 7.69925  44.4678
 7.72225  44.4792
 7.74525  44.5025
 7.76825  44.3828
 7.79125  44.3323
 7.81425  44.4667
 7.83725  44.6144
 7.86025  44.4862
 7.88325  44.1668
 7.90625  43.8411
 7.92925  43.714
 7.95225  43.6608
 7.97525  43.6418
 7.99825  43.5899
 8.02125  43.4735
 8.04425  43.298
 8.06725  43.2301
 8.09025  43.1282
 8.11325  42.9085
 8.13625  42.603
 8.15925  42.3224
 8.18225  42.0527
 8.20525  41.953
 8.22825  41.8317
 8.25125  41.7585
 8.27425  41.5182
 8.29725  41.0958
 8.32025  40.8063
 8.34325  40.5636
 8.36625  40.2763
 8.38925  39.9188
 8.41225  39.5218
 8.43525  39.1571
 8.45825  38.5957
 8.48125  38.2422
 8.50425  37.9983
 8.52725  37.7729
 8.55025  37.3021
 8.57325  36.9256
 8.59625  36.6169
 8.61925  36.2072
 8.64225  35.9763
 8.66525  35.6585
 8.68825  35.3701
 8.71125  35.0436
 8.73425  34.5878
 8.75725  34.0807
 8.78025  33.5594
 8.80325  33.365
 8.82625  33.2119
 8.84925  32.9864
 8.87225  32.7597
 8.89525  32.5074
 8.91825  32.2993
 8.94125  31.8463
 8.96425  31.4734
 8.98725  31.188
 9.01025  30.9317
 9.03325  30.6447
 9.05625  30.3914
 9.07925  30.0502
 9.10225  29.7469
 9.12525  29.5549
 9.14825  29.417
 9.17125  29.0488
 9.19425  28.7423
 9.21725  28.564
 9.24025  28.2948
 9.26325  28.1972
 9.28625  28.0775
 9.30925  27.8221
 9.33225  27.5628
 9.35525  27.307
 9.37825  27.1774
 9.40125  27.1497
 9.42425  27.083
 9.44725  26.7494
 9.47025  26.6072
 9.49325  26.5907
 9.51625  26.5036
 9.53925  26.3261
 9.56225  26.1018
 9.58525  25.9257
 9.60825  25.8357
 9.63125  25.8388
 9.65425  25.6845
 9.67725  25.4335
 9.70025  25.2732
 9.72325  25.2652
 9.74625  25.1508
 9.76925  25.1612
 9.79225  25.0596
 9.81525  24.9132
 9.83825  24.8079
 9.86125  24.7435
 9.88425  24.6866
 9.90725  24.7177
 9.93025  24.7488
 9.95325  24.6147
 9.97625  24.4952
 9.99925  24.3538
 10.0222  24.1479
 10.0453  24.0915
 10.0683  24.0975
 10.0913  24.1028
 10.1143  24.07
 10.1373  24.1173
 10.1603  24.1478
 10.1832  24.0617
 10.2063  23.7992
 10.2293  23.656
 10.2523  23.4992
 10.2752  23.483
 10.2982  23.5427
 10.3213  23.5306
 10.3443  23.4696
 10.3673  23.3743
 10.3902  23.4924
 10.4133  23.4746
 10.4363  23.3137
 10.4593  23.2351
 10.4823  23.2215
 10.5053  23.2262
 10.5283  23.1857
 10.5512  23.1758
 10.5742  23.0307
 10.5973  22.9855
 10.6203  23.1209
 10.6433  23.1755
 10.6662  23.137
 10.6893  23.1032
 10.7123  23.0909
 10.7353  23.1189
 10.7583  22.9927
 10.7813  22.9339
 10.8043  22.8589
 10.8272  22.8046
 10.8503  22.7529
 10.8733  22.7291
 10.8963  22.7289
 10.9192  22.7253
 10.9422  22.7282
 10.9653  22.6639
 10.9883  22.6639
 11.0113  22.7197
 11.0343  22.6456
 11.0573  22.4903
 11.0803  22.5247
 11.1033  22.5558
 11.1263  22.5466
 11.1493  22.6002
 11.1723  22.6145
 11.1953  22.5341
 11.2182  22.5431
 11.2413  22.4754
 11.2643  22.3724
 11.2873  22.236
 11.3102  22.2511
 11.3333  22.4109
 11.3563  22.4595
 11.3793  22.5467
 11.4023  22.826
 11.4253  22.8596
 11.4483  22.7536
 11.4713  22.6131
 11.4942  22.4901
 11.5173  22.4949
 11.5403  22.822
 11.5633  23.2213
 11.5862  23.5053
 11.6093  23.3133
 11.6323  22.7973
 11.6553  22.5333
 11.6783  22.4248
 11.7013  22.3214
 11.7243  22.302
 11.7473  22.4274
 11.7703  22.4254
 11.7933  22.4707
 11.8163  22.4164
 11.8393  22.3359
 11.8622  22.2601
 11.8853  22.1746
 11.9083  22.2543
 11.9313  22.5126
 11.9543  22.6715
 11.9773  22.7529
 12.0003  22.83
 12.0233  22.878
 12.0463  23.112
 12.0693  23.9876
 12.0923  24.9397
 12.1153  24.8493
 12.1382  23.6443
 12.1613  23.0203
 12.1843  22.7176
 12.2073  22.5314
 12.2302  22.5248
 12.2533  22.4741
 12.2763  22.4867
 12.2993  22.5955
 12.3223  22.6284
 12.3453  22.59
 12.3683  22.575
 12.3913  22.6031
 12.4142  22.5382
 12.4373  22.4892
 12.4603  22.5756
 12.4833  22.7482
 12.5062  22.7018
 12.5292  22.5816
 12.5523  22.5219
 12.5753  22.5315
 12.5983  22.5764
 12.6212  22.6599
 12.6443  22.6955
 12.6673  22.8014
 12.6903  22.8147
 12.7133  22.8395
 12.7363  22.9004
 12.7593  23.0215
 12.7822  23.1855
 12.8052  23.2432
 12.8283  23.2405
 12.8513  23.3154
 12.8742  23.4174
 12.8972  23.5005
 12.9203  23.625
 12.9433  23.6387
 12.9663  23.658
 12.9893  23.79
 13.0123  24.0002
 13.0353  24.1643
 13.0582  24.2623
 13.0813  24.4184
 13.1043  24.6773
 13.1273  24.9277
 13.1502  25.141
 13.1732  25.4582
 13.1963  25.7557
 13.2193  26.003
 13.2423  26.3411
 13.2652  26.5478
 13.2883  26.7498
 13.3113  26.8827
 13.3343  27.2064
 13.3573  27.5629
 13.3803  27.8634
 13.4033  28.1737
 13.4262  28.4192
 13.4492  28.5933
 13.4723  28.7423
 13.4953  28.9488
 13.5183  29.1969
 13.5412  29.4423
 13.5643  29.4667
 13.5873  29.579
 13.6103  29.7827
 13.6333  29.915
 13.6563  29.8424
 13.6793  29.7671
 13.7022  29.5323
 13.7253  29.4942
 13.7483  29.4367
 13.7713  29.195
 13.7942  28.9852
 13.8172  28.7503
 13.8403  28.8083
 13.8633  29.0144
 13.8863  29.307
 13.9093  29.6844
 13.9323  30.2689
 13.9553  30.4091
 13.9783  29.7704
 14.0013  28.922
 14.0243  28.2483
 14.0473  27.8627
 14.0703  27.6024
 14.0932  27.4265
 14.1163  27.2624
 14.1393  26.9627
 14.1623  26.8806
 14.1852  26.7836
 14.2083  26.7064
 14.2313  26.59
 14.2543  26.4613
 14.2773  26.2969
 14.3003  26.2324
 14.3233  26.159
 14.3463  26.0844
 14.3692  26.1106
 14.3923  26.072
 14.4153  25.8981
 14.4383  25.7883
 14.4612  25.6167
 14.4843  25.5805
 14.5073  25.7281
 14.5303  25.664
 14.5533  25.5088
 14.5763  25.4289
 14.5993  25.2628
 14.6223  25.2084
 14.6453  25.1651
 14.6683  25.0672
 14.6913  25.0182
 14.7143  24.9701
 14.7372  24.9389
 14.7603  24.9675
 14.7833  24.9954
 14.8063  24.9826
 14.8293  24.8823
 14.8523  24.8267
 14.8753  24.7847
 14.8983  24.8048
 14.9213  24.7245
 14.9443  24.6542
 14.9673  24.6707
 14.9903  24.6946
 15.0132  24.7295
 15.0363  24.7783
 15.0593  24.7279
 15.0823  24.7629
 15.1052  24.8038
 15.1283  24.706
 15.1513  24.7493
 15.1743  25.0361
 15.1973  25.2542
 15.2203  25.1772
 15.2433  24.8325
 15.2663  24.527
 15.2892  24.5212
 15.3123  24.5575
 15.3353  24.4974
 15.3583  24.4269
 15.3812  24.3251
 15.4043  24.3778
 15.4273  24.4713
 15.4503  24.5172
 15.4733  24.3947
 15.4963  24.427
 15.5193  24.4261
 15.5423  24.4321
 15.5653  24.4497
 15.5883  24.5331
 15.6113  24.4758
 15.6343  24.3309
 15.6572  24.3513
 15.6803  24.5432
 15.7033  24.6214
 15.7263  24.6093
 15.7492  24.5082
 15.7723  24.477
 15.7953  24.4726
 15.8183  24.5246
 15.8413  24.5458
 15.8643  24.4985
 15.8873  24.5719
 15.9103  24.646
 15.9332  24.5944
 15.9563  24.4756
 15.9793  24.5234
 16.0023  24.5131
 16.0253  24.577
 16.0482  24.6758
 16.0713  24.6809
 16.0943  24.65
 16.1172  24.6565
 16.1403  24.6889
 16.1633  24.8226
 16.1863  24.9434
 16.2093  25.1361
 16.2323  25.3723
 16.2553  25.5756
 16.2783  25.4773
 16.3012  25.1603
 16.3243  24.883
 16.3472  24.6998
 16.3703  24.566
 16.3933  24.6534
 16.4163  24.7186
 16.4393  24.7196
 16.4623  24.6818
 16.4853  24.5606
 16.5083  24.5495
 16.5312  24.485
 16.5543  24.4233
 16.5773  24.4995
 16.6002  24.6128
 16.6233  24.5621
 16.6463  24.4939
 16.6693  24.5213
 16.6923  24.4711
 16.7153  24.4104
 16.7383  24.3312
 16.7613  24.4136
 16.7843  24.3281
 16.8073  24.2384
 16.8303  24.2115
 16.8533  24.2149
 16.8763  24.3343
 16.8992  24.3488
 16.9223  24.259
 16.9453  24.2564
 16.9683  24.2186
 16.9913  24.1278
 17.0143  24.1468
 17.0373  24.1547
 17.0603  24.1172
 17.0832  24.1643
 17.1063  24.1417
 17.1293  24.1323
 17.1522  24.089
 17.1753  24.0077
 17.1983  24.0536
 17.2213  24.1118
 17.2443  24.1282
 17.2673  24.0351
 17.2903  24.1235
 17.3133  24.1556
 17.3362  24.0407
 17.3593  23.9305
 17.3823  23.9347
 17.4053  23.9215
 17.4283  23.9043
 17.4513  23.9012
 17.4743  23.8544
 17.4973  23.8436
 17.5203  23.8146
 17.5433  23.8363
 17.5663  23.884
 17.5893  23.8045
 17.6123  23.7157
 17.6352  23.6368
 17.6583  23.6477
 17.6813  23.6975
 17.7042  23.7797
 17.7273  23.759
 17.7503  23.692
 17.7733  23.7281
 17.7963  23.8036
 17.8193  23.7975
 17.8423  23.7699
 17.8653  23.7373
 17.8882  23.6817
 17.9113  23.616
 17.9343  23.6435
 17.9573  23.7327
 17.9803  23.809
 18.0033  23.921
 18.0263  23.9692
 18.0493  24.0497
 18.0723  24.1342
 18.0953  24.1888
 18.1183  24.113
 18.1413  23.9846
 18.1643  23.7593
 18.1872  23.637
 18.2103  23.6399
 18.2333  23.522
 18.2563  23.4684
 18.2793  23.4478
 18.3023  23.4703
 18.3253  23.4244
 18.3483  23.5833
 18.3712  23.6289
 18.3943  23.6324
 18.4173  23.635
 18.4402  23.5328
 18.4633  23.4819
 18.4863  23.5077
 18.5093  23.4603
 18.5323  23.4579
 18.5553  23.5342
 18.5783  23.551
 18.6013  23.5716
 18.6242  23.5661
 18.6473  23.5726
 18.6703  23.5349
 18.6933  23.5387
 18.7163  23.481
 18.7392  23.4189
 18.7623  23.3364
 18.7853  23.3258
 18.8083  23.395
 18.8313  23.4727
 18.8543  23.4637
 18.8773  23.3754
 18.9003  23.4803
 18.9232  23.5089
 18.9463  23.5913
 18.9693  23.5388
 18.9922  23.5528
 19.0153  23.6136
 19.0383  23.5721
 19.0613  23.4885
 19.0843  23.5347
 19.1073  23.4783
 19.1303  23.5011
 19.1533  23.4767
 19.1762  23.4251
 19.1993  23.3893
 19.2223  23.3552
 19.2453  23.3815
 19.2683  23.4404
 19.2913  23.5147
 19.3143  23.494
 19.3373  23.4339
 19.3603  23.513
 19.3833  23.4584
 19.4062  23.5702
 19.4293  23.6421
 19.4523  23.6853
 19.4752  23.6831
 19.4983  23.5737
 19.5213  23.623
 19.5443  23.7165
 19.5673  23.6594
 19.5903  23.6398
 19.6133  23.6643
 19.6363  23.7432
 19.6593  23.9411
 19.6823  24.1529
 19.7053  24.4566
 19.7283  24.4638
 19.7513  24.2601
 19.7742  24.0733
 19.7973  24.0569
 19.8203  24.3255
 19.8433  25.0403
 19.8663  25.7034
 19.8893  25.4555
 19.9123  24.4829
 19.9353  23.889
 19.9582  23.7168
 19.9813  23.7212
 20.0043  23.6996
 20.0272  23.6278
 20.0503  23.677
 20.0733  23.6246
 20.0963  23.5742
 20.1193  23.6025
 20.1423  23.6504
 20.1653  23.6976
 20.1883  23.7388
 20.2112  23.6465
 20.2343  23.7219
 20.2573  23.7446
 20.2803  23.668
 20.3033  23.6234
 20.3263  23.6498
 20.3493  23.7179
 20.3723  23.6834
 20.3953  23.7034
 20.4183  23.7235
 20.4413  23.6643
 20.4643  23.6475
 20.4873  23.7388
 20.5102  23.7683
 20.5333  23.542
 20.5563  23.5962
 20.5792  23.6973
 20.6023  23.7524
 20.6253  23.7595
 20.6483  23.7795
 20.6713  23.7792
 20.6943  23.9384
 20.7173  24.2129
 20.7403  24.3958
 20.7632  24.509
 20.7863  24.4158
 20.8093  24.207
 20.8323  24.0052
 20.8553  23.9597
 20.8783  23.8956
 20.9013  23.7971
 20.9243  23.8499
 20.9473  23.9154
 20.9703  23.8658
 20.9933  23.8438
 21.0163  23.7953
 21.0393  23.7181
 21.0622  23.6893
 21.0853  23.7151
 21.1083  23.7236
 21.1313  23.7738
 21.1543  23.7381
 21.1773  23.8063
 21.2003  23.8184
 21.2233  23.8053
 21.2462  23.8962
 21.2693  23.9861
 21.2923  23.9025
 21.3152  23.8878
 21.3383  23.8234
 21.3613  23.8093
 21.3843  23.8887
 21.4073  23.9071
 21.4303  23.9282
 21.4533  23.906
 21.4763  23.8638
 21.4992  23.9069
 21.5223  23.9167
 21.5453  24.0172
 21.5683  24.0387
 21.5913  24.0487
 21.6142  24.0455
 21.6373  24.0313
 21.6603  24.0605
 21.6833  24.0463
 21.7063  23.998
 21.7293  24.0599
 21.7523  24.0879
 21.7753  24.1662
 21.7982  24.1792
 21.8213  24.1836
 21.8443  24.2036
 21.8672  24.2118
 21.8903  24.0498
 21.9133  24.1081
 21.9363  24.1187
 21.9593  24.123
 21.9823  24.1258
 22.0053  24.0911
 22.0283  24.1684
 22.0512  24.1525
 22.0743  24.1652
 22.0973  24.1364
 22.1203  24.2965
 22.1433  24.4129
 22.1663  24.3746
 22.1893  24.285
 22.2123  24.3021
 22.2353  24.3561
 22.2583  24.4904
 22.2813  24.4705
 22.3043  24.4709
 22.3273  24.4607
 22.3502  24.4847
 22.3733  24.4923
 22.3963  24.426
 22.4193  24.4152
 22.4423  24.5843
 22.4653  24.634
 22.4883  24.5933
 22.5113  24.6249
 22.5343  24.6583
 22.5573  24.6702
 22.5803  24.7392
 22.6033  24.8007
 22.6263  24.9063
 22.6493  24.976
 22.6723  24.9903
 22.6953  25.0308
 22.7183  24.9728
 22.7413  25.0556
 22.7643  25.149
 22.7873  25.1802
 22.8103  25.327
 22.8333  25.4171
 22.8563  25.4962
 22.8793  25.5882
 22.9022  25.6564
 22.9253  25.8303
 22.9483  25.8346
 22.9713  25.8538
 22.9943  26.0459