File: test-data-xrd/xrd-map-34-ID-E/Data_0047.chi
F:\20151113_APS_34IDE\\Brian\Particle1\OCV\Data_0047.tif
2-Theta Angle (Degrees)
Intensity
       2000
 0.01725  0.0000000E+00
 0.04025  0.0000000E+00
 0.06325  0.0000000E+00
 0.08625  0.0000000E+00
 0.10925  0.0000000E+00
 0.13225  0.0000000E+00
 0.15525  0.0000000E+00
 0.17825  0.0000000E+00
 0.20125  0.0000000E+00
 0.22425  0.0000000E+00
 0.24725  0.0000000E+00
 0.27025  0.0000000E+00
 0.29325  0.0000000E+00
 0.31625  0.0000000E+00
 0.33925  0.0000000E+00
 0.36225  0.0000000E+00
 0.38525  0.0000000E+00
 0.40825  0.0000000E+00
 0.43125  0.0000000E+00
 0.45425  0.0000000E+00
 0.47725  0.0000000E+00
 0.50025  0.0000000E+00
 0.52325  0.0000000E+00
 0.54625  0.0000000E+00
 0.56925  0.0000000E+00
 0.59225  0.0000000E+00
 0.61525  0.0000000E+00
 0.63825  0.0000000E+00
 0.66125  0.0000000E+00
 0.68425  0.0000000E+00
 0.70725  0.0000000E+00
 0.73025  0.0000000E+00
 0.75325  0.0000000E+00
 0.77625  0.0000000E+00
 0.79925  0.0000000E+00
 0.82225  0.0000000E+00
 0.84525  0.0000000E+00
 0.86825  0.0000000E+00
 0.89125  0.0000000E+00
 0.91425  0.0000000E+00
 0.93725  0.0000000E+00
 0.96025  0.0000000E+00
 0.98325  0.0000000E+00
 1.00625  0.0000000E+00
 1.02925  0.0000000E+00
 1.05225  0.0000000E+00
 1.07525  0.0000000E+00
 1.09825  0.0000000E+00
 1.12125  0.0000000E+00
 1.14425  0.0000000E+00
 1.16725  0.0000000E+00
 1.19025  0.0000000E+00
 1.21325  0.0000000E+00
 1.23625  0.0000000E+00
 1.25925  0.0000000E+00
 1.28225  0.0000000E+00
 1.30525  0.0000000E+00
 1.32825  0.0000000E+00
 1.35125  0.0000000E+00
 1.37425  0.0000000E+00
 1.39725  0.0000000E+00
 1.42025  0.0000000E+00
 1.44325  0.0000000E+00
 1.46625  0.0000000E+00
 1.48925  0.0000000E+00
 1.51225  0.0000000E+00
 1.53525  0.0000000E+00
 1.55825  0.0000000E+00
 1.58125  0.0000000E+00
 1.60425  0.0000000E+00
 1.62725  0.0000000E+00
 1.65025  0.0000000E+00
 1.67325  0.0000000E+00
 1.69625  0.0000000E+00
 1.71925  0.0000000E+00
 1.74225  0.0000000E+00
 1.76525  0.0000000E+00
 1.78825  0.0000000E+00
 1.81125  0.0000000E+00
 1.83425  0.0000000E+00
 1.85725  0.0000000E+00
 1.88025  0.0000000E+00
 1.90325  0.0000000E+00
 1.92625  0.0000000E+00
 1.94925  0.0000000E+00
 1.97225  0.0000000E+00
 1.99525  0.0000000E+00
 2.01825  0.0000000E+00
 2.04125  0.0000000E+00
 2.06425  0.0000000E+00
 2.08725  0.0000000E+00
 2.11025  0.0000000E+00
 2.13325  0.0000000E+00
 2.15625  0.0000000E+00
 2.17925  0.0000000E+00
 2.20225  0.0000000E+00
 2.22525  0.0000000E+00
 2.24825  0.0000000E+00
 2.27125  0.0000000E+00
 2.29425  0.0000000E+00
 2.31725  0.0000000E+00
 2.34025  0.0000000E+00
 2.36325  0.0000000E+00
 2.38625  0.0000000E+00
 2.40925  0.0000000E+00
 2.43225  0.0000000E+00
 2.45525  0.0000000E+00
 2.47825  0.0000000E+00
 2.50125  0.0000000E+00
 2.52425  0.0000000E+00
 2.54725  0.0000000E+00
 2.57025  0.0000000E+00
 2.59325  0.0000000E+00
 2.61625  0.0000000E+00
 2.63925  0.0000000E+00
 2.66225  0.0000000E+00
 2.68525  0.0000000E+00
 2.70825  0.0000000E+00
 2.73125  0.0000000E+00
 2.75425  0.0000000E+00
 2.77725  0.0000000E+00
 2.80025  0.0000000E+00
 2.82325  32.2728
 2.84625  33.6138
 2.86925  34.5704
 2.89225  34.812
 2.91525  35.2908
 2.93825  35.7311
 2.96125  35.8934
 2.98425  35.6321
 3.00725  35.988
 3.03025  35.7337
 3.05325  35.3735
 3.07625  34.7873
 3.09925  35.317
 3.12225  35.2616
 3.14525  35.6185
 3.16825  35.4987
 3.19125  34.6195
 3.21425  33.9576
 3.23725  34.2558
 3.26025  34.5914
 3.28325  34.7638
 3.30625  34.5844
 3.32925  34.7945
 3.35225  35.4181
 3.37525  35.6163
 3.39825  35.2944
 3.42125  34.7118
 3.44425  34.2723
 3.46725  33.9059
 3.49025  33.6582
 3.51325  33.5594
 3.53625  33.1423
 3.55925  33.0626
 3.58225  33.2037
 3.60525  33.0355
 3.62825  32.871
 3.65125  33.1377
 3.67425  33.0661
 3.69725  33.0859
 3.72025  33.0816
 3.74325  33.1366
 3.76625  32.9891
 3.78925  32.8437
 3.81225  32.5586
 3.83525  32.5602
 3.85825  32.7118
 3.88125  33.0691
 3.90425  32.6759
 3.92725  32.3469
 3.95025  32.112
 3.97325  32.1852
 3.99625  32.2934
 4.01925  32.2184
 4.04225  32.3205
 4.06525  32.1059
 4.08825  32.21
 4.11125  32.3445
 4.13425  32.2348
 4.15725  32.244
 4.18025  32.0804
 4.20325  32.0293
 4.22625  32.2159
 4.24925  32.1034
 4.27225  32.2394
 4.29525  32.5374
 4.31825  32.3794
 4.34125  32.1811
 4.36425  32.1012
 4.38725  32.2932
 4.41025  32.5572
 4.43325  32.7076
 4.45625  32.592
 4.47925  32.3673
 4.50225  32.3884
 4.52525  32.3986
 4.54825  32.5311
 4.57125  32.4521
 4.59425  32.524
 4.61725  32.6577
 4.64025  32.7405
 4.66325  32.7302
 4.68625  32.8112
 4.70925  33.1502
 4.73225  33.0802
 4.75525  33.0043
 4.77825  32.792
 4.80125  32.5693
 4.82425  32.4836
 4.84725  32.4311
 4.87025  32.5179
 4.89325  32.5718
 4.91625  32.6456
 4.93925  32.6997
 4.96225  32.7024
 4.98525  33.0046
 5.00825  33.0832
 5.03125  33.0307
 5.05425  33.2717
 5.07725  33.5007
 5.10025  33.557
 5.12325  33.5905
 5.14625  33.782
 5.16925  33.9846
 5.19225  33.8893
 5.21525  33.6274
 5.23825  33.6219
 5.26125  33.9267
 5.28425  34.1713
 5.30725  34.1508
 5.33025  34.2893
 5.35325  34.2283
 5.37625  34.5079
 5.39925  34.4962
 5.42225  34.1522
 5.44525  34.2219
 5.46825  34.6676
 5.49125  34.8397
 5.51425  34.7255
 5.53725  34.819
 5.56025  35.1419
 5.58325  35.3888
 5.60625  35.3895
 5.62925  35.424
 5.65225  35.4837
 5.67525  35.7224
 5.69825  35.7462
 5.72125  35.9229
 5.74425  35.9877
 5.76725  35.7764
 5.79025  35.7726
 5.81325  36.0568
 5.83625  36.5988
 5.85925  37.055
 5.88225  37.8433
 5.90525  40.3721
 5.92825  47.4221
 5.95125  62.2123
 5.97425  79.4636
 5.99725  82.9693
 6.02025  67.5235
 6.04325  50.3518
 6.06625  41.8665
 6.08925  38.8756
 6.11225  37.9748
 6.13525  37.4876
 6.15825  37.3178
 6.18125  37.4831
 6.20425  37.4643
 6.22725  37.4499
 6.25025  37.3775
 6.27325  37.5827
 6.29625  37.6494
 6.31925  37.7306
 6.34225  37.7643
 6.36525  37.9093
 6.38825  38.041
 6.41125  38.1709
 6.43425  38.4471
 6.45725  38.533
 6.48025  38.683
 6.50325  39.0686
 6.52625  39.3061
 6.54925  39.3238
 6.57225  39.5742
 6.59525  39.7363
 6.61825  39.7096
 6.64125  39.78
 6.66425  39.9031
 6.68725  39.9574
 6.71025  40.0419
 6.73325  40.3551
 6.75625  40.6611
 6.77925  40.7893
 6.80225  40.9766
 6.82525  41.2195
 6.84825  41.3174
 6.87125  41.469
 6.89425  41.6502
 6.91725  41.8402
 6.94025  41.9018
 6.96325  42.0845
 6.98625  42.1014
 7.00925  42.1891
 7.03225  42.337
 7.05525  42.5828
 7.07825  42.6476
 7.10125  42.5873
 7.12425  42.7356
 7.14725  43.0141
 7.17025  43.0531
 7.19325  43.0177
 7.21625  43.1714
 7.23925  43.374
 7.26225  43.5554
 7.28525  43.5101
 7.30825  43.5467
 7.33125  43.7859
 7.35425  43.746
 7.37725  43.6775
 7.40025  43.6471
 7.42325  43.8495
 7.44625  43.9739
 7.46925  44.0754
 7.49225  44.0681
 7.51525  44.1867
 7.53825  44.2396
 7.56125  44.3
 7.58425  44.3793
 7.60725  44.3964
 7.63025  44.2232
 7.65325  43.9716
 7.67625  43.9437
 7.69925  44.0154
 7.72225  44.1356
 7.74525  44.2658
 7.76825  44.3099
 7.79125  44.269
 7.81425  44.1388
 7.83725  43.9436
 7.86025  43.8892
 7.88325  43.6999
 7.90625  43.5842
 7.92925  43.5264
 7.95225  43.3207
 7.97525  43.2989
 7.99825  43.1933
 8.02125  43.0106
 8.04425  42.9535
 8.06725  42.9436
 8.09025  42.972
 8.11325  42.8725
 8.13625  42.5557
 8.15925  42.2585
 8.18225  42.0133
 8.20525  41.7661
 8.22825  41.481
 8.25125  41.1473
 8.27425  40.7182
 8.29725  40.4814
 8.32025  40.4258
 8.34325  40.264
 8.36625  39.7855
 8.38925  39.2643
 8.41225  39.0808
 8.43525  38.7022
 8.45825  38.4275
 8.48125  38.0986
 8.50425  37.643
 8.52725  37.2351
 8.55025  36.9618
 8.57325  36.7661
 8.59625  36.4906
 8.61925  36.0712
 8.64225  35.7806
 8.66525  35.4855
 8.68825  35.2465
 8.71125  34.9282
 8.73425  34.5532
 8.75725  34.0772
 8.78025  33.5362
 8.80325  33.1621
 8.82625  32.8904
 8.84925  32.6638
 8.87225  32.3602
 8.89525  31.9557
 8.91825  31.6161
 8.94125  31.2881
 8.96425  31.1805
 8.98725  31.075
 9.01025  30.7323
 9.03325  30.383
 9.05625  30.1899
 9.07925  29.9698
 9.10225  29.8303
 9.12525  29.6195
 9.14825  29.2402
 9.17125  28.8894
 9.19425  28.6319
 9.21725  28.4279
 9.24025  28.3041
 9.26325  28.1659
 9.28625  27.7928
 9.30925  27.763
 9.33225  27.7269
 9.35525  27.5463
 9.37825  27.3396
 9.40125  27.0394
 9.42425  26.8358
 9.44725  26.693
 9.47025  26.65
 9.49325  26.603
 9.51625  26.4629
 9.53925  26.1207
 9.56225  25.8823
 9.58525  25.7106
 9.60825  25.6989
 9.63125  25.6394
 9.65425  25.4978
 9.67725  25.3214
 9.70025  25.2827
 9.72325  25.2549
 9.74625  25.0954
 9.76925  24.9888
 9.79225  25.0002
 9.81525  24.9315
 9.83825  24.7717
 9.86125  24.5769
 9.88425  24.4602
 9.90725  24.4458
 9.93025  24.512
 9.95325  24.4137
 9.97625  24.2198
 9.99925  24.0834
 10.0222  24.0766
 10.0453  24.1329
 10.0683  24.0381
 10.0913  23.8306
 10.1143  23.8096
 10.1373  23.9132
 10.1603  24.0125
 10.1832  23.9912
 10.2063  23.9599
 10.2293  23.8158
 10.2523  23.6277
 10.2752  23.5788
 10.2982  23.7287
 10.3213  23.7735
 10.3443  23.6772
 10.3673  23.5649
 10.3902  23.6305
 10.4133  23.5921
 10.4363  23.422
 10.4593  23.3377
 10.4823  23.2818
 10.5053  23.309
 10.5283  23.2867
 10.5512  23.1908
 10.5742  23.0912
 10.5973  23.059
 10.6203  23.1594
 10.6433  23.2763
 10.6662  23.165
 10.6893  23.077
 10.7123  23.1079
 10.7353  23.0227
 10.7583  22.9394
 10.7813  22.8613
 10.8043  22.8304
 10.8272  22.8311
 10.8503  22.7974
 10.8733  22.741
 10.8963  22.7203
 10.9192  22.6943
 10.9422  22.7312
 10.9653  22.699
 10.9883  22.5366
 11.0113  22.5682
 11.0343  22.6332
 11.0573  22.6249
 11.0803  22.6191
 11.1033  22.5807
 11.1263  22.628
 11.1493  22.642
 11.1723  22.7008
 11.1953  22.6784
 11.2182  22.6865
 11.2413  22.5932
 11.2643  22.44
 11.2873  22.4102
 11.3102  22.5126
 11.3333  22.6307
 11.3563  22.6132
 11.3793  22.7221
 11.4023  22.958
 11.4253  23.0305
 11.4483  23.0846
 11.4713  23.1234
 11.4942  23.2188
 11.5173  23.6204
 11.5403  24.8708
 11.5633  26.9377
 11.5862  28.9723
 11.6093  29.0139
 11.6323  26.8933
 11.6553  24.5725
 11.6783  23.3672
 11.7013  22.825
 11.7243  22.6572
 11.7473  22.6888
 11.7703  22.7163
 11.7933  22.7107
 11.8163  22.6567
 11.8393  22.6109
 11.8622  22.5563
 11.8853  22.5122
 11.9083  22.5548
 11.9313  22.7498
 11.9543  23.111
 11.9773  23.5628
 12.0003  23.8529
 12.0233  23.7298
 12.0463  23.7749
 12.0693  24.2536
 12.0923  24.9721
 12.1153  25.0591
 12.1382  24.3861
 12.1613  23.6147
 12.1843  23.1461
 12.2073  22.7703
 12.2302  22.6323
 12.2533  22.6155
 12.2763  22.5523
 12.2993  22.5534
 12.3223  22.5708
 12.3453  22.6485
 12.3683  22.7388
 12.3913  22.8204
 12.4142  22.7805
 12.4373  22.7202
 12.4603  22.7102
 12.4833  22.8131
 12.5062  22.7449
 12.5292  22.7053
 12.5523  22.8034
 12.5753  22.8175
 12.5983  22.7083
 12.6212  22.7721
 12.6443  22.8141
 12.6673  22.8832
 12.6903  22.9429
 12.7133  23.06
 12.7363  23.1452
 12.7593  23.1666
 12.7822  23.2404
 12.8052  23.2516
 12.8283  23.3075
 12.8513  23.3179
 12.8742  23.3024
 12.8972  23.3732
 12.9203  23.6548
 12.9433  23.8797
 12.9663  23.9055
 12.9893  23.9249
 13.0123  24.0792
 13.0353  24.2536
 13.0582  24.3857
 13.0813  24.495
 13.1043  24.723
 13.1273  25.016
 13.1502  25.2466
 13.1732  25.4871
 13.1963  25.7458
 13.2193  26.1398
 13.2423  26.471
 13.2652  26.7093
 13.2883  26.8912
 13.3113  27.0574
 13.3343  27.3538
 13.3573  27.7338
 13.3803  27.9712
 13.4033  28.2597
 13.4262  28.3915
 13.4492  28.6602
 13.4723  28.9616
 13.4953  29.2966
 13.5183  29.5902
 13.5412  29.6619
 13.5643  29.6848
 13.5873  29.8146
 13.6103  29.8858
 13.6333  29.8441
 13.6563  29.8975
 13.6793  29.8764
 13.7022  29.6858
 13.7253  29.5815
 13.7483  29.5953
 13.7713  29.6343
 13.7942  29.5512
 13.8172  29.6161
 13.8403  29.8226
 13.8633  30.3215
 13.8863  31.3603
 13.9093  34.4436
 13.9323  40.5983
 13.9553  45.1875
 13.9783  42.534
 14.0013  36.7608
 14.0243  31.7882
 14.0473  29.47
 14.0703  28.5248
 14.0932  28.0778
 14.1163  27.8696
 14.1393  27.6832
 14.1623  27.4799
 14.1852  27.1891
 14.2083  27.0412
 14.2313  26.8464
 14.2543  26.6878
 14.2773  26.4659
 14.3003  26.4011
 14.3233  26.3042
 14.3463  26.224
 14.3692  26.1694
 14.3923  26.0956
 14.4153  26.0323
 14.4383  25.9713
 14.4612  25.8923
 14.4843  25.7737
 14.5073  25.7732
 14.5303  25.7716
 14.5533  25.7208
 14.5763  25.6319
 14.5993  25.5368
 14.6223  25.4923
 14.6453  25.423
 14.6683  25.3429
 14.6913  25.3425
 14.7143  25.3746
 14.7372  25.305
 14.7603  25.2476
 14.7833  25.2208
 14.8063  25.2518
 14.8293  25.2254
 14.8523  25.2209
 14.8753  25.0682
 14.8983  25.0667
 14.9213  25.0037
 14.9443  25.03
 14.9673  25.0674
 14.9903  25.0937
 15.0132  25.0834
 15.0363  25.1784
 15.0593  25.1413
 15.0823  25.186
 15.1052  25.4235
 15.1283  26.1211
 15.1513  28.1784
 15.1743  30.6822
 15.1973  31.26
 15.2203  29.7588
 15.2433  27.4008
 15.2663  25.8226
 15.2892  25.2476
 15.3123  25.1459
 15.3353  25.0588
 15.3583  24.8735
 15.3812  24.6609
 15.4043  24.6352
 15.4273  24.6554
 15.4503  24.7119
 15.4733  24.6102
 15.4963  24.6075
 15.5193  24.6255
 15.5423  24.6379
 15.5653  24.6467
 15.5883  24.6605
 15.6113  24.7361
 15.6343  24.6494
 15.6572  24.6825
 15.6803  24.662
 15.7033  24.6316
 15.7263  24.6247
 15.7492  24.5663
 15.7723  24.7114
 15.7953  24.8398
 15.8183  24.8445
 15.8413  24.7489
 15.8643  24.7664
 15.8873  24.8713
 15.9103  24.8586
 15.9332  24.7955
 15.9563  24.7703
 15.9793  24.7634
 16.0023  24.8563
 16.0253  24.7851
 16.0482  24.7945
 16.0713  24.8009
 16.0943  24.8866
 16.1172  24.9456
 16.1403  24.9761
 16.1633  25.0617
 16.1863  25.3353
 16.2093  25.8225
 16.2323  26.4124
 16.2553  26.9706
 16.2783  26.6652
 16.3012  25.7176
 16.3243  25.2025
 16.3472  24.916
 16.3703  24.8418
 16.3933  24.8324
 16.4163  24.974
 16.4393  24.9888
 16.4623  24.8968
 16.4853  24.8293
 16.5083  24.8141
 16.5312  24.7413
 16.5543  24.7682
 16.5773  24.7692
 16.6002  24.7916
 16.6233  24.756
 16.6463  24.7097
 16.6693  24.7235
 16.6923  24.7531
 16.7153  24.718
 16.7383  24.6745
 16.7613  24.718
 16.7843  24.7035
 16.8073  24.6737
 16.8303  24.6522
 16.8533  24.6043
 16.8763  24.4975
 16.8992  24.5161
 16.9223  24.5421
 16.9453  24.4626
 16.9683  24.3688
 16.9913  24.3656
 17.0143  24.4022
 17.0373  24.3852
 17.0603  24.342
 17.0832  24.3773
 17.1063  24.4175
 17.1293  24.4803
 17.1522  24.5191
 17.1753  24.4466
 17.1983  24.3861
 17.2213  24.4135
 17.2443  24.4667
 17.2673  24.438
 17.2903  24.3879
 17.3133  24.3702
 17.3362  24.3049
 17.3593  24.2866
 17.3823  24.3068
 17.4053  24.2604
 17.4283  24.1241
 17.4513  24.1274
 17.4743  24.2027
 17.4973  24.2027
 17.5203  24.1009
 17.5433  24.1257
 17.5663  24.0574
 17.5893  23.9824
 17.6123  23.96
 17.6352  23.9809
 17.6583  23.9149
 17.6813  23.9459
 17.7042  23.9639
 17.7273  23.9773
 17.7503  23.956
 17.7733  23.942
 17.7963  24.028
 17.8193  24.0162
 17.8423  23.9842
 17.8653  24.0074
 17.8882  23.9722
 17.9113  23.943
 17.9343  23.9459
 17.9573  24.0819
 17.9803  24.3215
 18.0033  24.7694
 18.0263  25.2986
 18.0493  25.8379
 18.0723  26.5464
 18.0953  27.2175
 18.1183  27.5011
 18.1413  26.7715
 18.1643  25.6306
 18.1872  24.6848
 18.2103  24.2293
 18.2333  24.05
 18.2563  24.0497
 18.2793  23.9621
 18.3023  23.8473
 18.3253  23.7448
 18.3483  23.7606
 18.3712  23.7554
 18.3943  23.7712
 18.4173  23.8538
 18.4402  23.765
 18.4633  23.7454
 18.4863  23.7735
 18.5093  23.7513
 18.5323  23.7573
 18.5553  23.7086
 18.5783  23.7245
 18.6013  23.7348
 18.6242  23.6563
 18.6473  23.6038
 18.6703  23.5737
 18.6933  23.6925
 18.7163  23.7576
 18.7392  23.6676
 18.7623  23.6125
 18.7853  23.6179
 18.8083  23.6944
 18.8313  23.7434
 18.8543  23.7006
 18.8773  23.6411
 18.9003  23.6065
 18.9232  23.6709
 18.9463  23.7499
 18.9693  23.7015
 18.9922  23.685
 19.0153  23.6338
 19.0383  23.7044
 19.0613  23.8257
 19.0843  23.834
 19.1073  23.681
 19.1303  23.6163
 19.1533  23.6494
 19.1762  23.6631
 19.1993  23.642
 19.2223  23.6797
 19.2453  23.691
 19.2683  23.7568
 19.2913  23.7117
 19.3143  23.7413
 19.3373  23.7828
 19.3603  23.876
 19.3833  23.9963
 19.4062  23.9539
 19.4293  23.8847
 19.4523  23.8915
 19.4752  23.9098
 19.4983  23.9213
 19.5213  23.8954
 19.5443  23.9516
 19.5673  24.0523
 19.5903  24.1075
 19.6133  24.24
 19.6363  24.61
 19.6593  25.3744
 19.6823  26.5997
 19.7053  27.9572
 19.7283  28.5899
 19.7513  28.0131
 19.7742  27.1009
 19.7973  27.5212
 19.8203  29.9573
 19.8433  34.002
 19.8663  36.0401
 19.8893  33.2806
 19.9123  29.3966
 19.9353  26.4679
 19.9582  25.0498
 19.9813  24.5247
 20.0043  24.4025
 20.0272  24.3699
 20.0503  24.3607
 20.0733  24.219
 20.0963  24.1244
 20.1193  24.0643
 20.1423  23.9555
 20.1653  23.9918
 20.1883  24.0113
 20.2112  23.9851
 20.2343  24.0062
 20.2573  23.9879
 20.2803  23.9035
 20.3033  23.8488
 20.3263  23.8414
 20.3493  23.9376
 20.3723  24.0214
 20.3953  24.0137
 20.4183  24.0276
 20.4413  23.9159
 20.4643  23.8738
 20.4873  23.8828
 20.5102  23.9005
 20.5333  23.8754
 20.5563  23.9894
 20.5792  24.0852
 20.6023  24.1715
 20.6253  24.1626
 20.6483  24.2108
 20.6713  24.3848
 20.6943  24.7866
 20.7173  25.4347
 20.7403  26.5953
 20.7632  27.8081
 20.7863  27.6924
 20.8093  26.4902
 20.8323  25.1903
 20.8553  24.6262
 20.8783  24.3015
 20.9013  24.2185
 20.9243  24.2768
 20.9473  24.2393
 20.9703  24.2477
 20.9933  24.2048
 21.0163  23.9281
 21.0393  23.9296
 21.0622  24.0039
 21.0853  24.0777
 21.1083  24.0158
 21.1313  24.0678
 21.1543  23.9529
 21.1773  23.9986
 21.2003  23.9826
 21.2233  23.9442
 21.2462  24.0106
 21.2693  24.076
 21.2923  24.1064
 21.3152  24.069
 21.3383  24.082
 21.3613  24.0703
 21.3843  24.0751
 21.4073  24.0265
 21.4303  24.1365
 21.4533  24.1819
 21.4763  24.1086
 21.4992  24.0837
 21.5223  24.0866
 21.5453  24.1767
 21.5683  24.2226
 21.5913  24.2605
 21.6142  24.2512
 21.6373  24.2559
 21.6603  24.2239
 21.6833  24.1734
 21.7063  24.178
 21.7293  24.3196
 21.7523  24.418
 21.7753  24.344
 21.7982  24.2722
 21.8213  24.1912
 21.8443  24.2234
 21.8672  24.2667
 21.8903  24.3416
 21.9133  24.4195
 21.9363  24.4789
 21.9593  24.5134
 21.9823  24.4321
 22.0053  24.4341
 22.0283  24.5285
 22.0512  24.5282
 22.0743  24.5008
 22.0973  24.4631
 22.1203  24.474
 22.1433  24.5783
 22.1663  24.5534
 22.1893  24.4204
 22.2123  24.4292
 22.2353  24.4474
 22.2583  24.5761
 22.2813  24.608
 22.3043  24.5955
 22.3273  24.5624
 22.3502  24.6074
 22.3733  24.718
 22.3963  24.6779
 22.4193  24.6868
 22.4423  24.8614
 22.4653  24.7285
 22.4883  24.7351
 22.5113  24.9187
 22.5343  25.0377
 22.5573  25.0652
 22.5803  25.1306
 22.6033  25.097
 22.6263  25.1915
 22.6493  25.2899
 22.6723  25.351
 22.6953  25.3606
 22.7183  25.3736
 22.7413  25.425
 22.7643  25.4702
 22.7873  25.4903
 22.8103  25.6586
 22.8333  25.7872
 22.8563  25.825
 22.8793  25.8808
 22.9022  25.9556
 22.9253  26.1899
 22.9483  26.3207
 22.9713  26.51
 22.9943  26.7664