File: test-data-xrd/xrd-map-34-ID-E/Data_0119.chi
F:\20151113_APS_34IDE\\Brian\Particle1\OCV\Data_0119.tif
2-Theta Angle (Degrees)
Intensity
       2000
 0.01725  0.0000000E+00
 0.04025  0.0000000E+00
 0.06325  0.0000000E+00
 0.08625  0.0000000E+00
 0.10925  0.0000000E+00
 0.13225  0.0000000E+00
 0.15525  0.0000000E+00
 0.17825  0.0000000E+00
 0.20125  0.0000000E+00
 0.22425  0.0000000E+00
 0.24725  0.0000000E+00
 0.27025  0.0000000E+00
 0.29325  0.0000000E+00
 0.31625  0.0000000E+00
 0.33925  0.0000000E+00
 0.36225  0.0000000E+00
 0.38525  0.0000000E+00
 0.40825  0.0000000E+00
 0.43125  0.0000000E+00
 0.45425  0.0000000E+00
 0.47725  0.0000000E+00
 0.50025  0.0000000E+00
 0.52325  0.0000000E+00
 0.54625  0.0000000E+00
 0.56925  0.0000000E+00
 0.59225  0.0000000E+00
 0.61525  0.0000000E+00
 0.63825  0.0000000E+00
 0.66125  0.0000000E+00
 0.68425  0.0000000E+00
 0.70725  0.0000000E+00
 0.73025  0.0000000E+00
 0.75325  0.0000000E+00
 0.77625  0.0000000E+00
 0.79925  0.0000000E+00
 0.82225  0.0000000E+00
 0.84525  0.0000000E+00
 0.86825  0.0000000E+00
 0.89125  0.0000000E+00
 0.91425  0.0000000E+00
 0.93725  0.0000000E+00
 0.96025  0.0000000E+00
 0.98325  0.0000000E+00
 1.00625  0.0000000E+00
 1.02925  0.0000000E+00
 1.05225  0.0000000E+00
 1.07525  0.0000000E+00
 1.09825  0.0000000E+00
 1.12125  0.0000000E+00
 1.14425  0.0000000E+00
 1.16725  0.0000000E+00
 1.19025  0.0000000E+00
 1.21325  0.0000000E+00
 1.23625  0.0000000E+00
 1.25925  0.0000000E+00
 1.28225  0.0000000E+00
 1.30525  0.0000000E+00
 1.32825  0.0000000E+00
 1.35125  0.0000000E+00
 1.37425  0.0000000E+00
 1.39725  0.0000000E+00
 1.42025  0.0000000E+00
 1.44325  0.0000000E+00
 1.46625  0.0000000E+00
 1.48925  0.0000000E+00
 1.51225  0.0000000E+00
 1.53525  0.0000000E+00
 1.55825  0.0000000E+00
 1.58125  0.0000000E+00
 1.60425  0.0000000E+00
 1.62725  0.0000000E+00
 1.65025  0.0000000E+00
 1.67325  0.0000000E+00
 1.69625  0.0000000E+00
 1.71925  0.0000000E+00
 1.74225  0.0000000E+00
 1.76525  0.0000000E+00
 1.78825  0.0000000E+00
 1.81125  0.0000000E+00
 1.83425  0.0000000E+00
 1.85725  0.0000000E+00
 1.88025  0.0000000E+00
 1.90325  0.0000000E+00
 1.92625  0.0000000E+00
 1.94925  0.0000000E+00
 1.97225  0.0000000E+00
 1.99525  0.0000000E+00
 2.01825  0.0000000E+00
 2.04125  0.0000000E+00
 2.06425  0.0000000E+00
 2.08725  0.0000000E+00
 2.11025  0.0000000E+00
 2.13325  0.0000000E+00
 2.15625  0.0000000E+00
 2.17925  0.0000000E+00
 2.20225  0.0000000E+00
 2.22525  0.0000000E+00
 2.24825  0.0000000E+00
 2.27125  0.0000000E+00
 2.29425  0.0000000E+00
 2.31725  0.0000000E+00
 2.34025  0.0000000E+00
 2.36325  0.0000000E+00
 2.38625  0.0000000E+00
 2.40925  0.0000000E+00
 2.43225  0.0000000E+00
 2.45525  0.0000000E+00
 2.47825  0.0000000E+00
 2.50125  0.0000000E+00
 2.52425  0.0000000E+00
 2.54725  0.0000000E+00
 2.57025  0.0000000E+00
 2.59325  0.0000000E+00
 2.61625  0.0000000E+00
 2.63925  0.0000000E+00
 2.66225  0.0000000E+00
 2.68525  0.0000000E+00
 2.70825  0.0000000E+00
 2.73125  0.0000000E+00
 2.75425  0.0000000E+00
 2.77725  0.0000000E+00
 2.80025  0.0000000E+00
 2.82325  34.0632
 2.84625  33.9763
 2.86925  33.1458
 2.89225  33.2002
 2.91525  34.6857
 2.93825  35.6504
 2.96125  36.0753
 2.98425  36.0856
 3.00725  36.1947
 3.03025  36.2257
 3.05325  35.5461
 3.07625  35.0132
 3.09925  35.0073
 3.12225  34.5859
 3.14525  34.3528
 3.16825  34.4884
 3.19125  34.3441
 3.21425  34.4955
 3.23725  34.409
 3.26025  34.0461
 3.28325  34.089
 3.30625  34.2192
 3.32925  33.9471
 3.35225  33.9633
 3.37525  34.5537
 3.39825  34.6958
 3.42125  34.2776
 3.44425  33.731
 3.46725  33.7488
 3.49025  33.6168
 3.51325  33.3233
 3.53625  33.0367
 3.55925  33.0347
 3.58225  33.1372
 3.60525  33.0282
 3.62825  33.0131
 3.65125  33.0014
 3.67425  33.0994
 3.69725  33.1521
 3.72025  32.9242
 3.74325  32.8629
 3.76625  32.6503
 3.78925  32.253
 3.81225  32.3806
 3.83525  32.4532
 3.85825  32.3221
 3.88125  32.5522
 3.90425  32.4311
 3.92725  32.3126
 3.95025  32.4279
 3.97325  32.4902
 3.99625  32.6178
 4.01925  32.3612
 4.04225  32.1342
 4.06525  32.0953
 4.08825  32.4242
 4.11125  32.5088
 4.13425  32.3588
 4.15725  32.5135
 4.18025  32.2678
 4.20325  32.1876
 4.22625  32.1652
 4.24925  32.1674
 4.27225  32.1254
 4.29525  32.3656
 4.31825  32.7187
 4.34125  32.7758
 4.36425  32.7344
 4.38725  32.6257
 4.41025  32.4961
 4.43325  32.2086
 4.45625  32.0808
 4.47925  32.4842
 4.50225  32.4694
 4.52525  32.2882
 4.54825  32.228
 4.57125  32.4507
 4.59425  32.5384
 4.61725  32.3687
 4.64025  32.4165
 4.66325  32.5594
 4.68625  32.6962
 4.70925  32.8222
 4.73225  32.5144
 4.75525  32.265
 4.77825  32.1418
 4.80125  31.9931
 4.82425  32.0751
 4.84725  32.3559
 4.87025  32.5708
 4.89325  32.5108
 4.91625  32.6482
 4.93925  32.5979
 4.96225  32.6461
 4.98525  32.7861
 5.00825  32.9723
 5.03125  33.0832
 5.05425  33.2481
 5.07725  33.3414
 5.10025  33.2746
 5.12325  33.1889
 5.14625  33.4195
 5.16925  33.826
 5.19225  33.9647
 5.21525  33.8527
 5.23825  33.854
 5.26125  33.916
 5.28425  34.0103
 5.30725  34.0833
 5.33025  34.0472
 5.35325  33.976
 5.37625  34.1511
 5.39925  34.5012
 5.42225  34.5004
 5.44525  34.5446
 5.46825  34.7364
 5.49125  34.6872
 5.51425  34.6218
 5.53725  34.5124
 5.56025  34.56
 5.58325  34.774
 5.60625  35.0975
 5.62925  35.119
 5.65225  34.8256
 5.67525  34.9816
 5.69825  35.1604
 5.72125  35.4035
 5.74425  35.3054
 5.76725  35.0413
 5.79025  35.0279
 5.81325  35.0311
 5.83625  35.1165
 5.85925  35.1947
 5.88225  35.3306
 5.90525  35.6588
 5.92825  35.9106
 5.95125  36.8844
 5.97425  37.8121
 5.99725  37.9667
 6.02025  37.2175
 6.04325  36.5527
 6.06625  36.3632
 6.08925  36.522
 6.11225  36.5186
 6.13525  36.4027
 6.15825  36.4322
 6.18125  36.5482
 6.20425  36.3653
 6.22725  36.3822
 6.25025  36.6029
 6.27325  37.0564
 6.29625  37.3192
 6.31925  37.402
 6.34225  37.7741
 6.36525  37.8132
 6.38825  37.7527
 6.41125  37.8529
 6.43425  38.0355
 6.45725  38.2465
 6.48025  38.4217
 6.50325  38.6781
 6.52625  38.9314
 6.54925  38.9477
 6.57225  38.91
 6.59525  39.2106
 6.61825  39.5038
 6.64125  39.6198
 6.66425  39.7806
 6.68725  39.9336
 6.71025  39.9951
 6.73325  40.1198
 6.75625  40.3956
 6.77925  40.6777
 6.80225  40.9115
 6.82525  41.1986
 6.84825  41.3752
 6.87125  41.4045
 6.89425  41.3298
 6.91725  41.4502
 6.94025  41.6601
 6.96325  41.7307
 6.98625  41.7577
 7.00925  41.8644
 7.03225  42.1096
 7.05525  42.1852
 7.07825  42.3382
 7.10125  42.4082
 7.12425  42.6266
 7.14725  42.6814
 7.17025  42.7966
 7.19325  42.7522
 7.21625  42.8149
 7.23925  43.0693
 7.26225  43.2213
 7.28525  43.2993
 7.30825  43.1361
 7.33125  43.177
 7.35425  43.2823
 7.37725  43.4035
 7.40025  43.4401
 7.42325  43.4636
 7.44625  43.4118
 7.46925  43.4369
 7.49225  43.6345
 7.51525  43.8615
 7.53825  43.8452
 7.56125  43.9115
 7.58425  44.0186
 7.60725  43.961
 7.63025  43.9882
 7.65325  44.0773
 7.67625  43.9128
 7.69925  43.9194
 7.72225  43.8775
 7.74525  44.0241
 7.76825  43.9761
 7.79125  43.7321
 7.81425  43.6075
 7.83725  43.5795
 7.86025  43.534
 7.88325  43.4089
 7.90625  43.3818
 7.92925  43.434
 7.95225  43.3719
 7.97525  43.0904
 7.99825  42.9185
 8.02125  42.5716
 8.04425  42.5055
 8.06725  42.6121
 8.09025  42.5085
 8.11325  42.3686
 8.13625  42.1127
 8.15925  41.8796
 8.18225  41.6484
 8.20525  41.4428
 8.22825  41.0145
 8.25125  40.6683
 8.27425  40.3806
 8.29725  40.0871
 8.32025  39.9891
 8.34325  39.7276
 8.36625  39.4372
 8.38925  39.0832
 8.41225  38.784
 8.43525  38.2878
 8.45825  37.9519
 8.48125  37.7691
 8.50425  37.6706
 8.52725  37.3472
 8.55025  36.7398
 8.57325  36.2393
 8.59625  35.7898
 8.61925  35.5955
 8.64225  35.4374
 8.66525  34.987
 8.68825  34.7804
 8.71125  34.371
 8.73425  33.9522
 8.75725  33.5317
 8.78025  33.2963
 8.80325  33.1669
 8.82625  32.8726
 8.84925  32.5525
 8.87225  32.3683
 8.89525  31.7841
 8.91825  31.2866
 8.94125  30.9712
 8.96425  30.7161
 8.98725  30.3547
 9.01025  29.9651
 9.03325  29.8615
 9.05625  29.6688
 9.07925  29.3917
 9.10225  29.1193
 9.12525  28.9205
 9.14825  28.8521
 9.17125  28.5891
 9.19425  28.1637
 9.21725  27.8318
 9.24025  27.5968
 9.26325  27.4484
 9.28625  27.3323
 9.30925  27.2086
 9.33225  27.0642
 9.35525  26.782
 9.37825  26.563
 9.40125  26.4576
 9.42425  26.4405
 9.44725  26.2607
 9.47025  26.0597
 9.49325  25.9685
 9.51625  25.8398
 9.53925  25.8027
 9.56225  25.5721
 9.58525  25.4301
 9.60825  25.4133
 9.63125  25.4402
 9.65425  25.2974
 9.67725  25.0301
 9.70025  24.8635
 9.72325  24.7796
 9.74625  24.6387
 9.76925  24.5177
 9.79225  24.5049
 9.81525  24.4544
 9.83825  24.3293
 9.86125  24.3404
 9.88425  24.2346
 9.90725  24.2398
 9.93025  24.0904
 9.95325  23.867
 9.97625  23.7994
 9.99925  23.7181
 10.0222  23.5699
 10.0453  23.495
 10.0683  23.4572
 10.0913  23.4007
 10.1143  23.3361
 10.1373  23.289
 10.1603  23.2958
 10.1832  23.3413
 10.2063  23.3754
 10.2293  23.3957
 10.2523  23.1726
 10.2752  23.0487
 10.2982  22.9548
 10.3213  22.8618
 10.3443  22.844
 10.3673  22.8225
 10.3902  22.8114
 10.4133  22.9391
 10.4363  22.9341
 10.4593  22.8771
 10.4823  22.9699
 10.5053  22.9183
 10.5283  22.8526
 10.5512  22.8424
 10.5742  22.707
 10.5973  22.5447
 10.6203  22.5652
 10.6433  22.6391
 10.6662  22.6528
 10.6893  22.5686
 10.7123  22.4682
 10.7353  22.3491
 10.7583  22.3388
 10.7813  22.4486
 10.8043  22.4352
 10.8272  22.4275
 10.8503  22.3991
 10.8733  22.4595
 10.8963  22.3668
 10.9192  22.3078
 10.9422  22.2146
 10.9653  22.1578
 10.9883  22.1969
 11.0113  22.1036
 11.0343  22.1167
 11.0573  22.1006
 11.0803  22.1304
 11.1033  22.1467
 11.1263  22.0773
 11.1493  22.013
 11.1723  21.9109
 11.1953  21.8281
 11.2182  21.9393
 11.2413  21.9471
 11.2643  22.0178
 11.2873  21.9593
 11.3102  21.9963
 11.3333  22.055
 11.3563  22.0779
 11.3793  22.1939
 11.4023  22.2746
 11.4253  22.2306
 11.4483  22.1119
 11.4713  22.0468
 11.4942  22.005
 11.5173  22.037
 11.5403  22.3455
 11.5633  22.7237
 11.5862  22.9707
 11.6093  22.8735
 11.6323  22.5685
 11.6553  22.2959
 11.6783  21.9953
 11.7013  21.846
 11.7243  21.8231
 11.7473  21.8756
 11.7703  21.9266
 11.7933  21.8876
 11.8163  21.8357
 11.8393  21.7906
 11.8622  21.8265
 11.8853  21.8803
 11.9083  22.0061
 11.9313  22.1529
 11.9543  22.1614
 11.9773  22.0785
 12.0003  22.0041
 12.0233  22.0447
 12.0463  22.1807
 12.0693  22.2193
 12.0923  22.3409
 12.1153  22.3181
 12.1382  22.1637
 12.1613  22.0689
 12.1843  21.9961
 12.2073  22.0284
 12.2302  21.9977
 12.2533  21.9723
 12.2763  21.9754
 12.2993  22.0615
 12.3223  22.13
 12.3453  22.0471
 12.3683  22.0672
 12.3913  22.1038
 12.4142  22.0571
 12.4373  22.046
 12.4603  22.0503
 12.4833  22.0519
 12.5062  22.087
 12.5292  22.1705
 12.5523  22.329
 12.5753  22.3121
 12.5983  22.2132
 12.6212  22.2898
 12.6443  22.2254
 12.6673  22.2561
 12.6903  22.4981
 12.7133  22.616
 12.7363  22.5144
 12.7593  22.3463
 12.7822  22.3884
 12.8052  22.5309
 12.8283  22.7393
 12.8513  22.9139
 12.8742  22.909
 12.8972  22.9433
 12.9203  23.01
 12.9433  23.162
 12.9663  23.22
 12.9893  23.3854
 13.0123  23.5474
 13.0353  23.7403
 13.0582  23.9263
 13.0813  24.0676
 13.1043  24.2724
 13.1273  24.6045
 13.1502  24.8037
 13.1732  24.9536
 13.1963  25.1848
 13.2193  25.5546
 13.2423  25.775
 13.2652  25.9321
 13.2883  26.2456
 13.3113  26.5609
 13.3343  26.8673
 13.3573  27.1149
 13.3803  27.3408
 13.4033  27.6389
 13.4262  27.949
 13.4492  28.1501
 13.4723  28.3216
 13.4953  28.6207
 13.5183  28.9731
 13.5412  29.2232
 13.5643  29.4279
 13.5873  29.555
 13.6103  29.4932
 13.6333  29.3372
 13.6563  29.2565
 13.6793  29.2144
 13.7022  29.0545
 13.7253  28.9698
 13.7483  28.9449
 13.7713  28.8832
 13.7942  28.8009
 13.8172  28.681
 13.8403  28.549
 13.8633  28.4486
 13.8863  28.6193
 13.9093  29.117
 13.9323  29.6892
 13.9553  30.0475
 13.9783  29.7347
 14.0013  28.8159
 14.0243  27.9428
 14.0473  27.372
 14.0703  27.0519
 14.0932  26.9225
 14.1163  26.7807
 14.1393  26.7191
 14.1623  26.5729
 14.1852  26.3257
 14.2083  26.1708
 14.2313  26.0106
 14.2543  25.8321
 14.2773  25.725
 14.3003  25.7068
 14.3233  25.6309
 14.3463  25.5577
 14.3692  25.5503
 14.3923  25.5132
 14.4153  25.5003
 14.4383  25.399
 14.4612  25.2688
 14.4843  25.1484
 14.5073  25.1824
 14.5303  25.1326
 14.5533  25.1296
 14.5763  25.0948
 14.5993  24.9559
 14.6223  24.8383
 14.6453  24.7572
 14.6683  24.667
 14.6913  24.6073
 14.7143  24.62
 14.7372  24.6375
 14.7603  24.5326
 14.7833  24.4182
 14.8063  24.4233
 14.8293  24.5945
 14.8523  24.6864
 14.8753  24.5205
 14.8983  24.3414
 14.9213  24.2959
 14.9443  24.3009
 14.9673  24.3407
 14.9903  24.4806
 15.0132  24.5367
 15.0363  24.4735
 15.0593  24.3636
 15.0823  24.3498
 15.1052  24.3387
 15.1283  24.3458
 15.1513  24.4476
 15.1743  24.639
 15.1973  24.6573
 15.2203  24.6453
 15.2433  24.44
 15.2663  24.177
 15.2892  24.0997
 15.3123  24.1801
 15.3353  24.1883
 15.3583  24.1838
 15.3812  24.1
 15.4043  24.0886
 15.4273  24.0404
 15.4503  23.9867
 15.4733  23.8788
 15.4963  23.8869
 15.5193  23.9845
 15.5423  24.0392
 15.5653  24.076
 15.5883  24.1453
 15.6113  24.1451
 15.6343  24.2028
 15.6572  24.2067
 15.6803  24.0929
 15.7033  24.1462
 15.7263  24.1354
 15.7492  24.0815
 15.7723  24.1867
 15.7953  24.1537
 15.8183  24.2045
 15.8413  24.2127
 15.8643  24.2293
 15.8873  24.2784
 15.9103  24.3065
 15.9332  24.1767
 15.9563  24.0656
 15.9793  24.1008
 16.0023  24.1112
 16.0253  24.1518
 16.0482  24.2315
 16.0713  24.2633
 16.0943  24.3227
 16.1172  24.2781
 16.1403  24.2648
 16.1633  24.363
 16.1863  24.4793
 16.2093  24.6179
 16.2323  24.7287
 16.2553  24.8737
 16.2783  24.8955
 16.3012  24.5791
 16.3243  24.3351
 16.3472  24.1864
 16.3703  24.1372
 16.3933  24.1913
 16.4163  24.3417
 16.4393  24.3161
 16.4623  24.2473
 16.4853  24.1414
 16.5083  24.2186
 16.5312  24.1347
 16.5543  24.1255
 16.5773  24.0994
 16.6002  24.1596
 16.6233  24.1254
 16.6463  24.0847
 16.6693  24.0831
 16.6923  24.0389
 16.7153  23.9676
 16.7383  24.1461
 16.7613  24.2254
 16.7843  24.0853
 16.8073  24.0555
 16.8303  23.9187
 16.8533  23.9199
 16.8763  23.9633
 16.8992  23.9552
 16.9223  23.9004
 16.9453  23.7724
 16.9683  23.7913
 16.9913  23.7762
 17.0143  23.7527
 17.0373  23.7574
 17.0603  23.6704
 17.0832  23.6424
 17.1063  23.6958
 17.1293  23.7646
 17.1522  23.8387
 17.1753  23.8572
 17.1983  23.817
 17.2213  23.7368
 17.2443  23.6407
 17.2673  23.5167
 17.2903  23.5572
 17.3133  23.6146
 17.3362  23.7141
 17.3593  23.679
 17.3823  23.543
 17.4053  23.5023
 17.4283  23.5382
 17.4513  23.4956
 17.4743  23.4541
 17.4973  23.3952
 17.5203  23.3032
 17.5433  23.3601
 17.5663  23.3115
 17.5893  23.2405
 17.6123  23.3339
 17.6352  23.424
 17.6583  23.3105
 17.6813  23.3237
 17.7042  23.313
 17.7273  23.2876
 17.7503  23.2734
 17.7733  23.2061
 17.7963  23.2537
 17.8193  23.2787
 17.8423  23.273
 17.8653  23.2756
 17.8882  23.2934
 17.9113  23.3952
 17.9343  23.4288
 17.9573  23.2686
 17.9803  23.2549
 18.0033  23.2778
 18.0263  23.1989
 18.0493  23.1702
 18.0723  23.2526
 18.0953  23.3092
 18.1183  23.2733
 18.1413  23.327
 18.1643  23.1855
 18.1872  23.0332
 18.2103  23.0646
 18.2333  23.1361
 18.2563  23.123
 18.2793  23.1379
 18.3023  23.1849
 18.3253  23.159
 18.3483  23.1129
 18.3712  23.0634
 18.3943  23.1011
 18.4173  23.1049
 18.4402  23.0632
 18.4633  23.0777
 18.4863  23.0357
 18.5093  22.9064
 18.5323  22.8276
 18.5553  22.8191
 18.5783  22.8985
 18.6013  22.999
 18.6242  23.0278
 18.6473  23.0242
 18.6703  22.9785
 18.6933  23.1371
 18.7163  23.001
 18.7392  22.9253
 18.7623  22.9852
 18.7853  23.0356
 18.8083  23.0805
 18.8313  23.0614
 18.8543  22.9904
 18.8773  22.9146
 18.9003  23.0034
 18.9232  23.0829
 18.9463  23.0567
 18.9693  23.0113
 18.9922  23.0302
 19.0153  22.9393
 19.0383  23.0217
 19.0613  23.0248
 19.0843  23.0591
 19.1073  23.0169
 19.1303  22.9794
 19.1533  23.0209
 19.1762  22.9654
 19.1993  22.9523
 19.2223  22.9555
 19.2453  22.948
 19.2683  22.9336
 19.2913  22.9609
 19.3143  23.0104
 19.3373  23.087
 19.3603  23.119
 19.3833  23.2027
 19.4062  23.1964
 19.4293  23.1021
 19.4523  23.0181
 19.4752  22.9993
 19.4983  22.9971
 19.5213  22.9421
 19.5443  23.004
 19.5673  23.042
 19.5903  23.083
 19.6133  23.0682
 19.6363  23.224
 19.6593  23.3342
 19.6823  23.4874
 19.7053  23.5779
 19.7283  23.6813
 19.7513  23.6207
 19.7742  23.557
 19.7973  23.4902
 19.8203  23.4154
 19.8433  23.5859
 19.8663  23.6764
 19.8893  23.5987
 19.9123  23.5184
 19.9353  23.217
 19.9582  23.1352
 19.9813  23.2196
 20.0043  23.241
 20.0272  23.1259
 20.0503  23.0768
 20.0733  23.1117
 20.0963  23.186
 20.1193  23.2152
 20.1423  23.1573
 20.1653  23.1485
 20.1883  23.0962
 20.2112  23.1257
 20.2343  23.222
 20.2573  23.1483
 20.2803  23.1003
 20.3033  23.1475
 20.3263  23.1124
 20.3493  23.0842
 20.3723  23.1029
 20.3953  23.0974
 20.4183  23.171
 20.4413  23.1676
 20.4643  23.1899
 20.4873  23.0794
 20.5102  23.0451
 20.5333  23.0055
 20.5563  23.1767
 20.5792  23.147
 20.6023  23.1411
 20.6253  23.1729
 20.6483  23.1134
 20.6713  23.1295
 20.6943  23.3215
 20.7173  23.5447
 20.7403  23.5701
 20.7632  23.9737
 20.7863  23.9591
 20.8093  23.6294
 20.8323  23.3496
 20.8553  23.3331
 20.8783  23.3956
 20.9013  23.3361
 20.9243  23.3978
 20.9473  23.3883
 20.9703  23.4206
 20.9933  23.4022
 21.0163  23.4241
 21.0393  23.4834
 21.0622  23.4357
 21.0853  23.4088
 21.1083  23.2672
 21.1313  23.306
 21.1543  23.2754
 21.1773  23.2206
 21.2003  23.2657
 21.2233  23.3626
 21.2462  23.334
 21.2693  23.3454
 21.2923  23.358
 21.3152  23.2759
 21.3383  23.3787
 21.3613  23.5201
 21.3843  23.3886
 21.4073  23.3011
 21.4303  23.4028
 21.4533  23.4083
 21.4763  23.3551
 21.4992  23.5828
 21.5223  23.549
 21.5453  23.5272
 21.5683  23.5535
 21.5913  23.5406
 21.6142  23.5903
 21.6373  23.5981
 21.6603  23.5564
 21.6833  23.5437
 21.7063  23.5192
 21.7293  23.5512
 21.7523  23.5737
 21.7753  23.5892
 21.7982  23.5961
 21.8213  23.6152
 21.8443  23.5829
 21.8672  23.5728
 21.8903  23.6083
 21.9133  23.648
 21.9363  23.6907
 21.9593  23.751
 21.9823  23.6944
 22.0053  23.6722
 22.0283  23.7276
 22.0512  23.7177
 22.0743  23.734
 22.0973  23.721
 22.1203  23.8461
 22.1433  23.913
 22.1663  23.8746
 22.1893  23.8454
 22.2123  23.9178
 22.2353  23.898
 22.2583  23.7668
 22.2813  23.7653
 22.3043  23.8916
 22.3273  23.9422
 22.3502  23.983
 22.3733  24.0126
 22.3963  23.9407
 22.4193  23.9745
 22.4423  24.0002
 22.4653  24.037
 22.4883  24.0704
 22.5113  24.2537
 22.5343  24.3188
 22.5573  24.3121
 22.5803  24.3124
 22.6033  24.371
 22.6263  24.4247
 22.6493  24.387
 22.6723  24.4501
 22.6953  24.6019
 22.7183  24.6659
 22.7413  24.7111
 22.7643  24.738
 22.7873  24.7792
 22.8103  24.8755
 22.8333  24.9547
 22.8563  24.9494
 22.8793  25.0809
 22.9022  25.1784
 22.9253  25.2953
 22.9483  25.3905
 22.9713  25.4561
 22.9943  25.6315