File: test-data-xrd/xrd-map-34-ID-E/Data_0110.chi
F:\20151113_APS_34IDE\\Brian\Particle1\OCV\Data_0110.tif
2-Theta Angle (Degrees)
Intensity
       2000
 0.01725  0.0000000E+00
 0.04025  0.0000000E+00
 0.06325  0.0000000E+00
 0.08625  0.0000000E+00
 0.10925  0.0000000E+00
 0.13225  0.0000000E+00
 0.15525  0.0000000E+00
 0.17825  0.0000000E+00
 0.20125  0.0000000E+00
 0.22425  0.0000000E+00
 0.24725  0.0000000E+00
 0.27025  0.0000000E+00
 0.29325  0.0000000E+00
 0.31625  0.0000000E+00
 0.33925  0.0000000E+00
 0.36225  0.0000000E+00
 0.38525  0.0000000E+00
 0.40825  0.0000000E+00
 0.43125  0.0000000E+00
 0.45425  0.0000000E+00
 0.47725  0.0000000E+00
 0.50025  0.0000000E+00
 0.52325  0.0000000E+00
 0.54625  0.0000000E+00
 0.56925  0.0000000E+00
 0.59225  0.0000000E+00
 0.61525  0.0000000E+00
 0.63825  0.0000000E+00
 0.66125  0.0000000E+00
 0.68425  0.0000000E+00
 0.70725  0.0000000E+00
 0.73025  0.0000000E+00
 0.75325  0.0000000E+00
 0.77625  0.0000000E+00
 0.79925  0.0000000E+00
 0.82225  0.0000000E+00
 0.84525  0.0000000E+00
 0.86825  0.0000000E+00
 0.89125  0.0000000E+00
 0.91425  0.0000000E+00
 0.93725  0.0000000E+00
 0.96025  0.0000000E+00
 0.98325  0.0000000E+00
 1.00625  0.0000000E+00
 1.02925  0.0000000E+00
 1.05225  0.0000000E+00
 1.07525  0.0000000E+00
 1.09825  0.0000000E+00
 1.12125  0.0000000E+00
 1.14425  0.0000000E+00
 1.16725  0.0000000E+00
 1.19025  0.0000000E+00
 1.21325  0.0000000E+00
 1.23625  0.0000000E+00
 1.25925  0.0000000E+00
 1.28225  0.0000000E+00
 1.30525  0.0000000E+00
 1.32825  0.0000000E+00
 1.35125  0.0000000E+00
 1.37425  0.0000000E+00
 1.39725  0.0000000E+00
 1.42025  0.0000000E+00
 1.44325  0.0000000E+00
 1.46625  0.0000000E+00
 1.48925  0.0000000E+00
 1.51225  0.0000000E+00
 1.53525  0.0000000E+00
 1.55825  0.0000000E+00
 1.58125  0.0000000E+00
 1.60425  0.0000000E+00
 1.62725  0.0000000E+00
 1.65025  0.0000000E+00
 1.67325  0.0000000E+00
 1.69625  0.0000000E+00
 1.71925  0.0000000E+00
 1.74225  0.0000000E+00
 1.76525  0.0000000E+00
 1.78825  0.0000000E+00
 1.81125  0.0000000E+00
 1.83425  0.0000000E+00
 1.85725  0.0000000E+00
 1.88025  0.0000000E+00
 1.90325  0.0000000E+00
 1.92625  0.0000000E+00
 1.94925  0.0000000E+00
 1.97225  0.0000000E+00
 1.99525  0.0000000E+00
 2.01825  0.0000000E+00
 2.04125  0.0000000E+00
 2.06425  0.0000000E+00
 2.08725  0.0000000E+00
 2.11025  0.0000000E+00
 2.13325  0.0000000E+00
 2.15625  0.0000000E+00
 2.17925  0.0000000E+00
 2.20225  0.0000000E+00
 2.22525  0.0000000E+00
 2.24825  0.0000000E+00
 2.27125  0.0000000E+00
 2.29425  0.0000000E+00
 2.31725  0.0000000E+00
 2.34025  0.0000000E+00
 2.36325  0.0000000E+00
 2.38625  0.0000000E+00
 2.40925  0.0000000E+00
 2.43225  0.0000000E+00
 2.45525  0.0000000E+00
 2.47825  0.0000000E+00
 2.50125  0.0000000E+00
 2.52425  0.0000000E+00
 2.54725  0.0000000E+00
 2.57025  0.0000000E+00
 2.59325  0.0000000E+00
 2.61625  0.0000000E+00
 2.63925  0.0000000E+00
 2.66225  0.0000000E+00
 2.68525  0.0000000E+00
 2.70825  0.0000000E+00
 2.73125  0.0000000E+00
 2.75425  0.0000000E+00
 2.77725  0.0000000E+00
 2.80025  0.0000000E+00
 2.82325  32.3517
 2.84625  33.3604
 2.86925  33.9719
 2.89225  35.3945
 2.91525  36.0463
 2.93825  35.921
 2.96125  35.0699
 2.98425  34.5668
 3.00725  35.0789
 3.03025  36.1944
 3.05325  35.675
 3.07625  34.643
 3.09925  35.0126
 3.12225  35.8475
 3.14525  36.4441
 3.16825  36.2949
 3.19125  35.9484
 3.21425  35.492
 3.23725  35.3176
 3.26025  35.1501
 3.28325  35.0061
 3.30625  34.5429
 3.32925  34.0408
 3.35225  34.1113
 3.37525  34.1208
 3.39825  34.1334
 3.42125  34.4038
 3.44425  33.9454
 3.46725  33.788
 3.49025  34.0714
 3.51325  34.243
 3.53625  34.1413
 3.55925  33.9323
 3.58225  33.8658
 3.60525  33.9558
 3.62825  33.9887
 3.65125  33.8706
 3.67425  33.7466
 3.69725  33.7675
 3.72025  33.5382
 3.74325  33.2861
 3.76625  33.1019
 3.78925  32.6138
 3.81225  32.323
 3.83525  32.6213
 3.85825  32.8494
 3.88125  33.1334
 3.90425  32.6823
 3.92725  32.3761
 3.95025  32.7103
 3.97325  32.9031
 3.99625  33.0033
 4.01925  32.8868
 4.04225  32.5399
 4.06525  32.116
 4.08825  32.1766
 4.11125  32.3759
 4.13425  32.5404
 4.15725  32.5885
 4.18025  32.1524
 4.20325  32.0383
 4.22625  32.0575
 4.24925  32.3263
 4.27225  32.7103
 4.29525  32.7644
 4.31825  32.5081
 4.34125  32.1537
 4.36425  32.057
 4.38725  32.143
 4.41025  32.433
 4.43325  32.325
 4.45625  32.303
 4.47925  32.3811
 4.50225  32.2919
 4.52525  32.452
 4.54825  32.5449
 4.57125  32.8236
 4.59425  33.1309
 4.61725  32.8667
 4.64025  32.7227
 4.66325  33.1104
 4.68625  33.2234
 4.70925  33.1514
 4.73225  32.9121
 4.75525  32.6092
 4.77825  32.3726
 4.80125  32.3277
 4.82425  32.5031
 4.84725  32.5486
 4.87025  32.6104
 4.89325  32.8084
 4.91625  32.8299
 4.93925  32.6574
 4.96225  32.4004
 4.98525  32.6774
 5.00825  32.8702
 5.03125  33.0746
 5.05425  33.3071
 5.07725  33.3769
 5.10025  33.4145
 5.12325  33.5074
 5.14625  33.6243
 5.16925  33.813
 5.19225  33.9236
 5.21525  33.8097
 5.23825  33.7675
 5.26125  33.867
 5.28425  34.1403
 5.30725  34.1923
 5.33025  33.972
 5.35325  33.9577
 5.37625  34.1743
 5.39925  34.4526
 5.42225  34.323
 5.44525  34.239
 5.46825  34.3746
 5.49125  34.4498
 5.51425  34.5783
 5.53725  34.7658
 5.56025  34.715
 5.58325  34.7683
 5.60625  34.8884
 5.62925  35.0114
 5.65225  35.2011
 5.67525  35.3215
 5.69825  35.0714
 5.72125  35.0599
 5.74425  35.2166
 5.76725  35.3431
 5.79025  35.4353
 5.81325  35.5702
 5.83625  35.7268
 5.85925  35.8724
 5.88225  36.1599
 5.90525  36.4652
 5.92825  36.9823
 5.95125  38.0622
 5.97425  39.0935
 5.99725  38.485
 6.02025  37.3935
 6.04325  36.5401
 6.06625  36.4275
 6.08925  36.5372
 6.11225  36.4941
 6.13525  36.5233
 6.15825  36.5804
 6.18125  36.7258
 6.20425  36.6692
 6.22725  36.8136
 6.25025  36.9522
 6.27325  37.1905
 6.29625  37.4491
 6.31925  37.5155
 6.34225  37.6877
 6.36525  37.9865
 6.38825  38.1639
 6.41125  38.2182
 6.43425  38.2616
 6.45725  38.3775
 6.48025  38.6
 6.50325  38.88
 6.52625  39.1082
 6.54925  39.2003
 6.57225  39.2221
 6.59525  39.4051
 6.61825  39.68
 6.64125  39.8853
 6.66425  39.9846
 6.68725  39.8814
 6.71025  40.0582
 6.73325  40.3191
 6.75625  40.6882
 6.77925  40.8721
 6.80225  40.9966
 6.82525  41.1973
 6.84825  41.4392
 6.87125  41.5556
 6.89425  41.8356
 6.91725  42.0316
 6.94025  42.0826
 6.96325  42.1808
 6.98625  42.3776
 7.00925  42.404
 7.03225  42.4874
 7.05525  42.5486
 7.07825  42.431
 7.10125  42.6466
 7.12425  42.7948
 7.14725  42.8923
 7.17025  43.0283
 7.19325  43.0856
 7.21625  43.2609
 7.23925  43.2603
 7.26225  43.3765
 7.28525  43.4762
 7.30825  43.401
 7.33125  43.4309
 7.35425  43.5779
 7.37725  43.7573
 7.40025  44.1495
 7.42325  44.4433
 7.44625  44.4697
 7.46925  44.346
 7.49225  44.2995
 7.51525  44.2883
 7.53825  44.4048
 7.56125  44.4871
 7.58425  44.2999
 7.60725  44.1276
 7.63025  44.0896
 7.65325  44.0644
 7.67625  43.9612
 7.69925  44.1087
 7.72225  44.3139
 7.74525  44.1213
 7.76825  43.9658
 7.79125  43.988
 7.81425  43.9837
 7.83725  43.9161
 7.86025  43.9576
 7.88325  43.7927
 7.90625  43.7331
 7.92925  43.7445
 7.95225  43.6726
 7.97525  43.619
 7.99825  43.5171
 8.02125  43.3928
 8.04425  43.2221
 8.06725  42.8627
 8.09025  42.6464
 8.11325  42.7153
 8.13625  42.4529
 8.15925  42.1465
 8.18225  41.9147
 8.20525  41.7397
 8.22825  41.4134
 8.25125  41.3897
 8.27425  41.1148
 8.29725  40.615
 8.32025  40.3621
 8.34325  40.0843
 8.36625  39.8649
 8.38925  39.4734
 8.41225  38.9657
 8.43525  38.5845
 8.45825  38.3431
 8.48125  38.1353
 8.50425  37.702
 8.52725  37.3724
 8.55025  37.0342
 8.57325  36.6358
 8.59625  36.3261
 8.61925  36.0501
 8.64225  35.7686
 8.66525  35.4065
 8.68825  35.0831
 8.71125  34.6249
 8.73425  34.1663
 8.75725  33.8502
 8.78025  33.6549
 8.80325  33.2775
 8.82625  32.9361
 8.84925  32.6563
 8.87225  32.4459
 8.89525  32.2202
 8.91825  31.8623
 8.94125  31.4595
 8.96425  31.0849
 8.98725  30.8735
 9.01025  30.5527
 9.03325  30.2795
 9.05625  30.0574
 9.07925  29.8465
 9.10225  29.5899
 9.12525  29.3312
 9.14825  29.0817
 9.17125  28.8781
 9.19425  28.6634
 9.21725  28.3872
 9.24025  28.0859
 9.26325  27.9138
 9.28625  27.7647
 9.30925  27.6192
 9.33225  27.3794
 9.35525  27.1257
 9.37825  27.0235
 9.40125  26.8414
 9.42425  26.7635
 9.44725  26.6737
 9.47025  26.5813
 9.49325  26.4577
 9.51625  26.2582
 9.53925  26.0272
 9.56225  25.7509
 9.58525  25.5659
 9.60825  25.5257
 9.63125  25.5256
 9.65425  25.4354
 9.67725  25.2768
 9.70025  25.1525
 9.72325  25.1065
 9.74625  24.9251
 9.76925  24.7836
 9.79225  24.8348
 9.81525  24.8363
 9.83825  24.7689
 9.86125  24.6718
 9.88425  24.5353
 9.90725  24.4684
 9.93025  24.2943
 9.95325  24.1911
 9.97625  24.1472
 9.99925  24.0789
 10.0222  23.9258
 10.0453  23.93
 10.0683  23.8407
 10.0913  23.6939
 10.1143  23.5673
 10.1373  23.6104
 10.1603  23.7439
 10.1832  23.7465
 10.2063  23.695
 10.2293  23.5891
 10.2523  23.4297
 10.2752  23.313
 10.2982  23.3182
 10.3213  23.3476
 10.3443  23.2915
 10.3673  23.0943
 10.3902  23.1172
 10.4133  23.263
 10.4363  23.1449
 10.4593  23.0424
 10.4823  22.9962
 10.5053  23.0478
 10.5283  23.028
 10.5512  23.0093
 10.5742  22.9791
 10.5973  22.7724
 10.6203  22.8056
 10.6433  22.7659
 10.6662  22.8123
 10.6893  22.7995
 10.7123  22.8015
 10.7353  22.709
 10.7583  22.5557
 10.7813  22.5146
 10.8043  22.5241
 10.8272  22.5696
 10.8503  22.54
 10.8733  22.5083
 10.8963  22.48
 10.9192  22.5145
 10.9422  22.4591
 10.9653  22.3721
 10.9883  22.2803
 11.0113  22.2851
 11.0343  22.3375
 11.0573  22.2054
 11.0803  22.1905
 11.1033  22.1976
 11.1263  22.2867
 11.1493  22.337
 11.1723  22.3806
 11.1953  22.2738
 11.2182  22.1411
 11.2413  22.1528
 11.2643  22.1765
 11.2873  22.1326
 11.3102  22.1867
 11.3333  22.2351
 11.3563  22.2671
 11.3793  22.3668
 11.4023  22.5374
 11.4253  22.5866
 11.4483  22.5872
 11.4713  22.5544
 11.4942  22.4458
 11.5173  22.5347
 11.5403  23.2707
 11.5633  24.8005
 11.5862  26.1572
 11.6093  25.6764
 11.6323  24.0412
 11.6553  22.8289
 11.6783  22.3385
 11.7013  22.2499
 11.7243  22.2375
 11.7473  22.2194
 11.7703  22.1854
 11.7933  22.1764
 11.8163  22.2422
 11.8393  22.2443
 11.8622  22.1837
 11.8853  22.0991
 11.9083  22.0824
 11.9313  22.1608
 11.9543  22.2714
 11.9773  22.4031
 12.0003  22.3281
 12.0233  22.2805
 12.0463  22.4065
 12.0693  22.5233
 12.0923  22.5883
 12.1153  22.5211
 12.1382  22.4933
 12.1613  22.3361
 12.1843  22.2482
 12.2073  22.2067
 12.2302  22.1904
 12.2533  22.183
 12.2763  22.1832
 12.2993  22.1886
 12.3223  22.2914
 12.3453  22.269
 12.3683  22.1831
 12.3913  22.1677
 12.4142  22.1692
 12.4373  22.208
 12.4603  22.2582
 12.4833  22.4135
 12.5062  22.4062
 12.5292  22.3498
 12.5523  22.3862
 12.5753  22.4081
 12.5983  22.3943
 12.6212  22.396
 12.6443  22.4857
 12.6673  22.6143
 12.6903  22.72
 12.7133  22.7114
 12.7363  22.7852
 12.7593  22.8676
 12.7822  22.9171
 12.8052  22.9026
 12.8283  23.0046
 12.8513  23.0231
 12.8742  23.1025
 12.8972  23.1497
 12.9203  23.277
 12.9433  23.5564
 12.9663  23.7839
 12.9893  23.9443
 13.0123  24.063
 13.0353  23.999
 13.0582  24.0656
 13.0813  24.1596
 13.1043  24.5324
 13.1273  24.8041
 13.1502  24.9726
 13.1732  25.0987
 13.1963  25.3298
 13.2193  25.7273
 13.2423  26.1878
 13.2652  26.3644
 13.2883  26.503
 13.3113  26.7509
 13.3343  27.13
 13.3573  27.4941
 13.3803  27.6856
 13.4033  27.9878
 13.4262  28.3321
 13.4492  28.4531
 13.4723  28.4993
 13.4953  28.8
 13.5183  28.9973
 13.5412  29.0486
 13.5643  29.1318
 13.5873  29.2753
 13.6103  29.3151
 13.6333  29.3642
 13.6563  29.3399
 13.6793  29.3686
 13.7022  29.2457
 13.7253  29.1071
 13.7483  28.895
 13.7713  28.773
 13.7942  28.7446
 13.8172  28.6726
 13.8403  28.6029
 13.8633  28.5784
 13.8863  28.6618
 13.9093  29.021
 13.9323  29.4262
 13.9553  29.4545
 13.9783  28.8498
 14.0013  28.1307
 14.0243  27.6417
 14.0473  27.3288
 14.0703  27.2466
 14.0932  27.1248
 14.1163  27.0491
 14.1393  26.9094
 14.1623  26.735
 14.1852  26.5113
 14.2083  26.3751
 14.2313  26.2415
 14.2543  26.0889
 14.2773  25.9813
 14.3003  25.8416
 14.3233  25.7486
 14.3463  25.735
 14.3692  25.7928
 14.3923  25.7524
 14.4153  25.5644
 14.4383  25.4449
 14.4612  25.3434
 14.4843  25.3142
 14.5073  25.4189
 14.5303  25.4797
 14.5533  25.3525
 14.5763  25.2441
 14.5993  25.1452
 14.6223  25.1167
 14.6453  24.9866
 14.6683  24.9313
 14.6913  24.9789
 14.7143  24.9042
 14.7372  24.8698
 14.7603  24.8214
 14.7833  24.7936
 14.8063  24.6993
 14.8293  24.5916
 14.8523  24.5464
 14.8753  24.4971
 14.8983  24.6388
 14.9213  24.7495
 14.9443  24.6478
 14.9673  24.6041
 14.9903  24.6131
 15.0132  24.7515
 15.0363  24.7616
 15.0593  24.6742
 15.0823  24.6843
 15.1052  24.872
 15.1283  25.5191
 15.1513  27.179
 15.1743  28.8621
 15.1973  28.601
 15.2203  26.7136
 15.2433  25.2799
 15.2663  24.6506
 15.2892  24.4648
 15.3123  24.4699
 15.3353  24.5332
 15.3583  24.502
 15.3812  24.3881
 15.4043  24.3711
 15.4273  24.4158
 15.4503  24.2911
 15.4733  24.2377
 15.4963  24.1912
 15.5193  24.2038
 15.5423  24.1753
 15.5653  24.163
 15.5883  24.2391
 15.6113  24.1995
 15.6343  24.1965
 15.6572  24.2294
 15.6803  24.2576
 15.7033  24.3404
 15.7263  24.3446
 15.7492  24.3264
 15.7723  24.372
 15.7953  24.2354
 15.8183  24.2597
 15.8413  24.3041
 15.8643  24.2812
 15.8873  24.4625
 15.9103  24.5297
 15.9332  24.3471
 15.9563  24.2332
 15.9793  24.254
 16.0023  24.3559
 16.0253  24.4272
 16.0482  24.5038
 16.0713  24.4508
 16.0943  24.3801
 16.1172  24.497
 16.1403  24.5925
 16.1633  24.6646
 16.1863  24.7227
 16.2093  24.8375
 16.2323  24.8809
 16.2553  24.9094
 16.2783  24.8998
 16.3012  24.6849
 16.3243  24.4303
 16.3472  24.3344
 16.3703  24.2977
 16.3933  24.3482
 16.4163  24.3671
 16.4393  24.3628
 16.4623  24.2818
 16.4853  24.2811
 16.5083  24.3247
 16.5312  24.2872
 16.5543  24.2953
 16.5773  24.2972
 16.6002  24.301
 16.6233  24.3189
 16.6463  24.268
 16.6693  24.2386
 16.6923  24.2588
 16.7153  24.2157
 16.7383  24.2172
 16.7613  24.2202
 16.7843  24.0487
 16.8073  24.0902
 16.8303  24.1552
 16.8533  24.0987
 16.8763  24.0804
 16.8992  24.1259
 16.9223  24.0899
 16.9453  24.0692
 16.9683  24.0321
 16.9913  24.0599
 17.0143  24.0664
 17.0373  24.0144
 17.0603  23.9097
 17.0832  23.9555
 17.1063  23.9634
 17.1293  23.9679
 17.1522  23.9543
 17.1753  23.857
 17.1983  23.8741
 17.2213  23.8783
 17.2443  23.819
 17.2673  23.738
 17.2903  23.8073
 17.3133  23.7935
 17.3362  23.8108
 17.3593  23.7375
 17.3823  23.6933
 17.4053  23.7454
 17.4283  23.7274
 17.4513  23.6597
 17.4743  23.6401
 17.4973  23.6169
 17.5203  23.5104
 17.5433  23.569
 17.5663  23.5287
 17.5893  23.462
 17.6123  23.5709
 17.6352  23.6087
 17.6583  23.5107
 17.6813  23.4892
 17.7042  23.4754
 17.7273  23.467
 17.7503  23.4652
 17.7733  23.5342
 17.7963  23.6077
 17.8193  23.4861
 17.8423  23.4308
 17.8653  23.5129
 17.8882  23.4635
 17.9113  23.5207
 17.9343  23.5489
 17.9573  23.5558
 17.9803  23.6173
 18.0033  23.8007
 18.0263  24.0696
 18.0493  24.8552
 18.0723  26.364
 18.0953  26.9964
 18.1183  25.8158
 18.1413  24.3553
 18.1643  23.6823
 18.1872  23.5004
 18.2103  23.4821
 18.2333  23.4948
 18.2563  23.4047
 18.2793  23.3802
 18.3023  23.373
 18.3253  23.2904
 18.3483  23.223
 18.3712  23.286
 18.3943  23.2354
 18.4173  23.0722
 18.4402  23.0397
 18.4633  23.1643
 18.4863  23.1955
 18.5093  23.2432
 18.5323  23.3419
 18.5553  23.3223
 18.5783  23.2288
 18.6013  23.2846
 18.6242  23.258
 18.6473  23.2044
 18.6703  23.1482
 18.6933  23.2105
 18.7163  23.0997
 18.7392  23.0398
 18.7623  23.1129
 18.7853  23.1996
 18.8083  23.2006
 18.8313  23.1657
 18.8543  23.1833
 18.8773  23.1925
 18.9003  23.079
 18.9232  23.164
 18.9463  23.267
 18.9693  23.1826
 18.9922  23.1097
 19.0153  23.1924
 19.0383  23.2945
 19.0613  23.2222
 19.0843  23.1674
 19.1073  23.0995
 19.1303  23.1322
 19.1533  23.2424
 19.1762  23.2442
 19.1993  23.3278
 19.2223  23.3155
 19.2453  23.1818
 19.2683  23.1934
 19.2913  23.1847
 19.3143  23.2243
 19.3373  23.1367
 19.3603  23.1621
 19.3833  23.198
 19.4062  23.161
 19.4293  23.1791
 19.4523  23.2442
 19.4752  23.2113
 19.4983  23.2004
 19.5213  23.2077
 19.5443  23.2467
 19.5673  23.193
 19.5903  23.2481
 19.6133  23.2962
 19.6363  23.2802
 19.6593  23.3134
 19.6823  23.5122
 19.7053  23.7729
 19.7283  23.9407
 19.7513  23.9027
 19.7742  23.6431
 19.7973  23.5726
 19.8203  23.6024
 19.8433  23.6331
 19.8663  23.7148
 19.8893  23.6756
 19.9123  23.6603
 19.9353  23.4576
 19.9582  23.3145
 19.9813  23.2947
 20.0043  23.3278
 20.0272  23.3663
 20.0503  23.3528
 20.0733  23.2313
 20.0963  23.2376
 20.1193  23.3161
 20.1423  23.3405
 20.1653  23.3337
 20.1883  23.4491
 20.2112  23.5046
 20.2343  23.5348
 20.2573  23.466
 20.2803  23.4257
 20.3033  23.3956
 20.3263  23.3585
 20.3493  23.4186
 20.3723  23.4736
 20.3953  23.4639
 20.4183  23.4366
 20.4413  23.4578
 20.4643  23.4613
 20.4873  23.4584
 20.5102  23.3932
 20.5333  23.3759
 20.5563  23.4576
 20.5792  23.474
 20.6023  23.5652
 20.6253  23.5158
 20.6483  23.515
 20.6713  23.5311
 20.6943  23.6644
 20.7173  23.889
 20.7403  24.0175
 20.7632  24.0114
 20.7863  23.7783
 20.8093  23.641
 20.8323  23.5823
 20.8553  23.5717
 20.8783  23.5341
 20.9013  23.5378
 20.9243  23.6083
 20.9473  23.6787
 20.9703  23.6349
 20.9933  23.5543
 21.0163  23.4478
 21.0393  23.4212
 21.0622  23.3961
 21.0853  23.5261
 21.1083  23.5918
 21.1313  23.7084
 21.1543  23.5572
 21.1773  23.5888
 21.2003  23.5287
 21.2233  23.437
 21.2462  23.4625
 21.2693  23.5348
 21.2923  23.5173
 21.3152  23.538
 21.3383  23.6618
 21.3613  23.7409
 21.3843  23.7622
 21.4073  23.7187
 21.4303  23.7213
 21.4533  23.5574
 21.4763  23.5535
 21.4992  23.6295
 21.5223  23.5929
 21.5453  23.6099
 21.5683  23.6695
 21.5913  23.7599
 21.6142  23.7924
 21.6373  23.8396
 21.6603  23.8185
 21.6833  23.7584
 21.7063  23.7259
 21.7293  23.7406
 21.7523  23.766
 21.7753  23.7895
 21.7982  23.7945
 21.8213  23.8479
 21.8443  23.8387
 21.8672  23.9005
 21.8903  23.9051
 21.9133  23.868
 21.9363  23.8694
 21.9593  23.8337
 21.9823  23.8054
 22.0053  23.8849
 22.0283  23.9815
 22.0512  23.8849
 22.0743  23.8352
 22.0973  23.829
 22.1203  23.9351
 22.1433  24.0442
 22.1663  24.1123
 22.1893  24.0428
 22.2123  24.0241
 22.2353  24.0154
 22.2583  24.0556
 22.2813  24.1138
 22.3043  24.2164
 22.3273  24.2028
 22.3502  24.1044
 22.3733  24.132
 22.3963  24.1684
 22.4193  24.1912
 22.4423  24.2294
 22.4653  24.3077
 22.4883  24.3062
 22.5113  24.3749
 22.5343  24.4228
 22.5573  24.4716
 22.5803  24.5441
 22.6033  24.5909
 22.6263  24.6281
 22.6493  24.5988
 22.6723  24.6106
 22.6953  24.7263
 22.7183  24.7709
 22.7413  24.8087
 22.7643  24.8625
 22.7873  24.8683
 22.8103  24.9868
 22.8333  25.0262
 22.8563  25.0944
 22.8793  25.1799
 22.9022  25.3583
 22.9253  25.5748
 22.9483  25.7068
 22.9713  25.772
 22.9943  25.9278