File: test-data-xrd/xrd-map-34-ID-E/Data_0034.chi
F:\20151113_APS_34IDE\\Brian\Particle1\OCV\Data_0034.tif
2-Theta Angle (Degrees)
Intensity
       2000
 0.01725  0.0000000E+00
 0.04025  0.0000000E+00
 0.06325  0.0000000E+00
 0.08625  0.0000000E+00
 0.10925  0.0000000E+00
 0.13225  0.0000000E+00
 0.15525  0.0000000E+00
 0.17825  0.0000000E+00
 0.20125  0.0000000E+00
 0.22425  0.0000000E+00
 0.24725  0.0000000E+00
 0.27025  0.0000000E+00
 0.29325  0.0000000E+00
 0.31625  0.0000000E+00
 0.33925  0.0000000E+00
 0.36225  0.0000000E+00
 0.38525  0.0000000E+00
 0.40825  0.0000000E+00
 0.43125  0.0000000E+00
 0.45425  0.0000000E+00
 0.47725  0.0000000E+00
 0.50025  0.0000000E+00
 0.52325  0.0000000E+00
 0.54625  0.0000000E+00
 0.56925  0.0000000E+00
 0.59225  0.0000000E+00
 0.61525  0.0000000E+00
 0.63825  0.0000000E+00
 0.66125  0.0000000E+00
 0.68425  0.0000000E+00
 0.70725  0.0000000E+00
 0.73025  0.0000000E+00
 0.75325  0.0000000E+00
 0.77625  0.0000000E+00
 0.79925  0.0000000E+00
 0.82225  0.0000000E+00
 0.84525  0.0000000E+00
 0.86825  0.0000000E+00
 0.89125  0.0000000E+00
 0.91425  0.0000000E+00
 0.93725  0.0000000E+00
 0.96025  0.0000000E+00
 0.98325  0.0000000E+00
 1.00625  0.0000000E+00
 1.02925  0.0000000E+00
 1.05225  0.0000000E+00
 1.07525  0.0000000E+00
 1.09825  0.0000000E+00
 1.12125  0.0000000E+00
 1.14425  0.0000000E+00
 1.16725  0.0000000E+00
 1.19025  0.0000000E+00
 1.21325  0.0000000E+00
 1.23625  0.0000000E+00
 1.25925  0.0000000E+00
 1.28225  0.0000000E+00
 1.30525  0.0000000E+00
 1.32825  0.0000000E+00
 1.35125  0.0000000E+00
 1.37425  0.0000000E+00
 1.39725  0.0000000E+00
 1.42025  0.0000000E+00
 1.44325  0.0000000E+00
 1.46625  0.0000000E+00
 1.48925  0.0000000E+00
 1.51225  0.0000000E+00
 1.53525  0.0000000E+00
 1.55825  0.0000000E+00
 1.58125  0.0000000E+00
 1.60425  0.0000000E+00
 1.62725  0.0000000E+00
 1.65025  0.0000000E+00
 1.67325  0.0000000E+00
 1.69625  0.0000000E+00
 1.71925  0.0000000E+00
 1.74225  0.0000000E+00
 1.76525  0.0000000E+00
 1.78825  0.0000000E+00
 1.81125  0.0000000E+00
 1.83425  0.0000000E+00
 1.85725  0.0000000E+00
 1.88025  0.0000000E+00
 1.90325  0.0000000E+00
 1.92625  0.0000000E+00
 1.94925  0.0000000E+00
 1.97225  0.0000000E+00
 1.99525  0.0000000E+00
 2.01825  0.0000000E+00
 2.04125  0.0000000E+00
 2.06425  0.0000000E+00
 2.08725  0.0000000E+00
 2.11025  0.0000000E+00
 2.13325  0.0000000E+00
 2.15625  0.0000000E+00
 2.17925  0.0000000E+00
 2.20225  0.0000000E+00
 2.22525  0.0000000E+00
 2.24825  0.0000000E+00
 2.27125  0.0000000E+00
 2.29425  0.0000000E+00
 2.31725  0.0000000E+00
 2.34025  0.0000000E+00
 2.36325  0.0000000E+00
 2.38625  0.0000000E+00
 2.40925  0.0000000E+00
 2.43225  0.0000000E+00
 2.45525  0.0000000E+00
 2.47825  0.0000000E+00
 2.50125  0.0000000E+00
 2.52425  0.0000000E+00
 2.54725  0.0000000E+00
 2.57025  0.0000000E+00
 2.59325  0.0000000E+00
 2.61625  0.0000000E+00
 2.63925  0.0000000E+00
 2.66225  0.0000000E+00
 2.68525  0.0000000E+00
 2.70825  0.0000000E+00
 2.73125  0.0000000E+00
 2.75425  0.0000000E+00
 2.77725  0.0000000E+00
 2.80025  0.0000000E+00
 2.82325  31.6531
 2.84625  33.3354
 2.86925  34.1055
 2.89225  34.6865
 2.91525  36.5267
 2.93825  37.1501
 2.96125  36.6741
 2.98425  36.1806
 3.00725  36.0578
 3.03025  35.9406
 3.05325  36.1433
 3.07625  36.1171
 3.09925  35.7136
 3.12225  35.3992
 3.14525  35.2273
 3.16825  35.1652
 3.19125  35.4355
 3.21425  35.5877
 3.23725  35.3018
 3.26025  35.0315
 3.28325  34.9048
 3.30625  35.2572
 3.32925  35.5714
 3.35225  35.5765
 3.37525  35.8687
 3.39825  35.4697
 3.42125  35.1124
 3.44425  34.4044
 3.46725  34.0522
 3.49025  33.8585
 3.51325  33.7494
 3.53625  33.5936
 3.55925  33.6324
 3.58225  33.3316
 3.60525  33.1895
 3.62825  33.2114
 3.65125  33.1253
 3.67425  33.2199
 3.69725  33.328
 3.72025  33.4407
 3.74325  33.5236
 3.76625  33.6407
 3.78925  33.4687
 3.81225  33.2215
 3.83525  33.1067
 3.85825  32.9153
 3.88125  33.0012
 3.90425  32.9234
 3.92725  32.8971
 3.95025  32.7858
 3.97325  32.8328
 3.99625  33.043
 4.01925  32.9405
 4.04225  32.694
 4.06525  32.6408
 4.08825  32.6357
 4.11125  32.3525
 4.13425  32.2115
 4.15725  32.3109
 4.18025  32.2131
 4.20325  32.6396
 4.22625  33.0051
 4.24925  32.8203
 4.27225  32.512
 4.29525  32.5263
 4.31825  32.5811
 4.34125  32.5857
 4.36425  32.4688
 4.38725  32.5178
 4.41025  32.7663
 4.43325  32.7535
 4.45625  32.6469
 4.47925  32.6331
 4.50225  32.5691
 4.52525  32.5834
 4.54825  32.6805
 4.57125  32.7185
 4.59425  32.8021
 4.61725  32.8963
 4.64025  32.9195
 4.66325  33.0306
 4.68625  33.0239
 4.70925  32.8185
 4.73225  32.5386
 4.75525  32.3991
 4.77825  32.4832
 4.80125  32.581
 4.82425  32.6403
 4.84725  32.8574
 4.87025  33.0235
 4.89325  33.004
 4.91625  32.8221
 4.93925  32.6952
 4.96225  32.7128
 4.98525  33.0509
 5.00825  33.3536
 5.03125  33.2711
 5.05425  33.2393
 5.07725  33.2902
 5.10025  33.61
 5.12325  33.7443
 5.14625  33.829
 5.16925  33.9412
 5.19225  34.0182
 5.21525  34.0523
 5.23825  33.9851
 5.26125  33.9983
 5.28425  34.0746
 5.30725  34.1695
 5.33025  34.2751
 5.35325  34.3063
 5.37625  34.4879
 5.39925  34.5695
 5.42225  34.4579
 5.44525  34.4033
 5.46825  34.496
 5.49125  34.6167
 5.51425  34.9182
 5.53725  35.0381
 5.56025  35.0318
 5.58325  35.0834
 5.60625  35.2594
 5.62925  35.3823
 5.65225  35.2591
 5.67525  35.3077
 5.69825  35.3645
 5.72125  35.3948
 5.74425  35.5092
 5.76725  35.6994
 5.79025  35.9617
 5.81325  36.1467
 5.83625  36.3111
 5.85925  36.6208
 5.88225  37.2542
 5.90525  38.976
 5.92825  43.5789
 5.95125  57.2197
 5.97425  74.3765
 5.99725  79.6356
 6.02025  64.7106
 6.04325  44.4114
 6.06625  40.0321
 6.08925  38.5478
 6.11225  38.0881
 6.13525  37.6939
 6.15825  37.5498
 6.18125  37.6204
 6.20425  37.5476
 6.22725  37.3205
 6.25025  37.3424
 6.27325  37.8824
 6.29625  38.8313
 6.31925  39.7018
 6.34225  39.6163
 6.36525  39.0658
 6.38825  38.5658
 6.41125  38.4218
 6.43425  38.5157
 6.45725  38.6222
 6.48025  38.8111
 6.50325  39.0516
 6.52625  39.3719
 6.54925  39.5073
 6.57225  39.4824
 6.59525  39.6991
 6.61825  39.9659
 6.64125  40.2462
 6.66425  40.3621
 6.68725  40.2829
 6.71025  40.3463
 6.73325  40.429
 6.75625  40.7199
 6.77925  41.0582
 6.80225  41.3878
 6.82525  41.5577
 6.84825  41.5896
 6.87125  41.7305
 6.89425  41.8826
 6.91725  41.978
 6.94025  42.1006
 6.96325  42.1657
 6.98625  42.3996
 7.00925  42.5264
 7.03225  42.6277
 7.05525  42.6859
 7.07825  42.7822
 7.10125  42.8862
 7.12425  43.0712
 7.14725  43.1949
 7.17025  43.2528
 7.19325  43.3328
 7.21625  43.4603
 7.23925  43.6338
 7.26225  43.6528
 7.28525  43.7372
 7.30825  43.6642
 7.33125  43.86
 7.35425  44.1915
 7.37725  44.411
 7.40025  44.4876
 7.42325  44.5829
 7.44625  44.4168
 7.46925  44.2225
 7.49225  44.2017
 7.51525  44.2174
 7.53825  44.3069
 7.56125  44.5115
 7.58425  44.446
 7.60725  44.5571
 7.63025  44.5627
 7.65325  44.5709
 7.67625  44.4622
 7.69925  44.3522
 7.72225  44.4201
 7.74525  44.5095
 7.76825  44.5523
 7.79125  44.6153
 7.81425  44.6694
 7.83725  44.6414
 7.86025  44.5752
 7.88325  44.4693
 7.90625  44.2695
 7.92925  44.1073
 7.95225  44.0538
 7.97525  44.1209
 7.99825  43.9811
 8.02125  43.6608
 8.04425  43.5357
 8.06725  43.312
 8.09025  43.0637
 8.11325  43.1351
 8.13625  43.0456
 8.15925  42.7964
 8.18225  42.4475
 8.20525  42.1646
 8.22825  41.8695
 8.25125  41.6088
 8.27425  41.3867
 8.29725  41.0996
 8.32025  40.8539
 8.34325  40.6821
 8.36625  40.5269
 8.38925  40.2997
 8.41225  39.7636
 8.43525  39.2689
 8.45825  38.9748
 8.48125  38.6461
 8.50425  38.2884
 8.52725  37.9583
 8.55025  37.6075
 8.57325  37.434
 8.59625  37.1894
 8.61925  36.7431
 8.64225  36.3341
 8.66525  35.8074
 8.68825  35.475
 8.71125  35.1593
 8.73425  34.8872
 8.75725  34.5029
 8.78025  34.2282
 8.80325  33.8438
 8.82625  33.5082
 8.84925  33.1838
 8.87225  32.93
 8.89525  32.6176
 8.91825  32.2116
 8.94125  31.9633
 8.96425  31.7353
 8.98725  31.4465
 9.01025  30.9831
 9.03325  30.6088
 9.05625  30.3214
 9.07925  30.0344
 9.10225  29.8883
 9.12525  29.871
 9.14825  29.7573
 9.17125  29.4676
 9.19425  29.1861
 9.21725  28.8704
 9.24025  28.5762
 9.26325  28.3214
 9.28625  28.0204
 9.30925  27.8618
 9.33225  27.7672
 9.35525  27.6484
 9.37825  27.4048
 9.40125  27.167
 9.42425  26.9716
 9.44725  26.8379
 9.47025  26.796
 9.49325  26.7289
 9.51625  26.6072
 9.53925  26.5049
 9.56225  26.4346
 9.58525  26.2133
 9.60825  26.0871
 9.63125  26.0065
 9.65425  25.8845
 9.67725  25.7407
 9.70025  25.5686
 9.72325  25.4522
 9.74625  25.2218
 9.76925  25.129
 9.79225  25.2701
 9.81525  25.2838
 9.83825  25.2446
 9.86125  25.0003
 9.88425  24.8988
 9.90725  24.8812
 9.93025  24.8551
 9.95325  24.6081
 9.97625  24.5952
 9.99925  24.6513
 10.0222  24.4906
 10.0453  24.2936
 10.0683  24.3475
 10.0913  24.3197
 10.1143  24.2566
 10.1373  24.1366
 10.1603  24.0871
 10.1832  24.0045
 10.2063  23.9788
 10.2293  23.9314
 10.2523  23.7998
 10.2752  23.7297
 10.2982  23.7961
 10.3213  23.7824
 10.3443  23.758
 10.3673  23.6439
 10.3902  23.6229
 10.4133  23.6488
 10.4363  23.5497
 10.4593  23.5056
 10.4823  23.4433
 10.5053  23.416
 10.5283  23.2711
 10.5512  23.2881
 10.5742  23.2388
 10.5973  23.2022
 10.6203  23.217
 10.6433  23.3559
 10.6662  23.3359
 10.6893  23.2311
 10.7123  23.212
 10.7353  23.2009
 10.7583  23.1781
 10.7813  23.2126
 10.8043  23.1101
 10.8272  23.1074
 10.8503  22.9971
 10.8733  22.9237
 10.8963  22.8343
 10.9192  22.8967
 10.9422  22.8644
 10.9653  22.7976
 10.9883  22.7939
 11.0113  22.7398
 11.0343  22.7137
 11.0573  22.6783
 11.0803  22.7008
 11.1033  22.8032
 11.1263  22.8533
 11.1493  22.7529
 11.1723  22.6338
 11.1953  22.6437
 11.2182  22.6777
 11.2413  22.7301
 11.2643  22.7076
 11.2873  22.6147
 11.3102  22.6224
 11.3333  22.7687
 11.3563  22.8002
 11.3793  22.7806
 11.4023  22.8006
 11.4253  22.7786
 11.4483  22.9056
 11.4713  23.0695
 11.4942  23.1612
 11.5173  23.4145
 11.5403  24.518
 11.5633  26.4904
 11.5862  28.1769
 11.6093  27.3955
 11.6323  25.0239
 11.6553  23.6217
 11.6783  23.0995
 11.7013  22.7777
 11.7243  22.578
 11.7473  22.6484
 11.7703  22.6778
 11.7933  22.6239
 11.8163  22.6243
 11.8393  22.6988
 11.8622  22.6372
 11.8853  22.589
 11.9083  22.6397
 11.9313  22.7366
 11.9543  23.1687
 11.9773  23.6919
 12.0003  23.9618
 12.0233  23.3978
 12.0463  23.183
 12.0693  23.2773
 12.0923  23.5255
 12.1153  23.5401
 12.1382  23.309
 12.1613  22.9904
 12.1843  22.8793
 12.2073  22.8133
 12.2302  22.7922
 12.2533  22.6805
 12.2763  22.697
 12.2993  22.762
 12.3223  22.8238
 12.3453  22.8165
 12.3683  22.7783
 12.3913  22.7006
 12.4142  22.8266
 12.4373  22.8743
 12.4603  22.8188
 12.4833  22.7954
 12.5062  22.7255
 12.5292  22.7645
 12.5523  22.816
 12.5753  22.8442
 12.5983  22.9431
 12.6212  23.0416
 12.6443  23.022
 12.6673  23.0004
 12.6903  23.1392
 12.7133  23.2007
 12.7363  23.0819
 12.7593  23.1399
 12.7822  23.2197
 12.8052  23.2707
 12.8283  23.497
 12.8513  23.58
 12.8742  23.5897
 12.8972  23.6306
 12.9203  23.779
 12.9433  23.9451
 12.9663  24.0368
 12.9893  24.15
 13.0123  24.2672
 13.0353  24.394
 13.0582  24.5471
 13.0813  24.6286
 13.1043  24.8682
 13.1273  25.0835
 13.1502  25.3194
 13.1732  25.4917
 13.1963  25.8225
 13.2193  26.0702
 13.2423  26.3162
 13.2652  26.5181
 13.2883  26.9189
 13.3113  27.2922
 13.3343  27.6056
 13.3573  27.7989
 13.3803  28.0475
 13.4033  28.4491
 13.4262  28.6312
 13.4492  28.7392
 13.4723  29.0688
 13.4953  29.4125
 13.5183  29.5641
 13.5412  29.6337
 13.5643  29.7677
 13.5873  29.9624
 13.6103  29.9465
 13.6333  29.9213
 13.6563  29.894
 13.6793  29.8768
 13.7022  29.7959
 13.7253  29.6726
 13.7483  29.6061
 13.7713  29.6132
 13.7942  29.6356
 13.8172  29.6365
 13.8403  29.7893
 13.8633  30.2508
 13.8863  31.9002
 13.9093  36.2593
 13.9323  43.7409
 13.9553  46.5023
 13.9783  42.7871
 14.0013  35.2666
 14.0243  30.8391
 14.0473  29.1366
 14.0703  28.4529
 14.0932  28.1069
 14.1163  27.8549
 14.1393  27.6733
 14.1623  27.4281
 14.1852  27.2126
 14.2083  27.0943
 14.2313  26.9472
 14.2543  26.7512
 14.2773  26.5345
 14.3003  26.4703
 14.3233  26.398
 14.3463  26.3217
 14.3692  26.2967
 14.3923  26.1981
 14.4153  26.0844
 14.4383  25.9723
 14.4612  25.9362
 14.4843  25.8775
 14.5073  25.8155
 14.5303  25.7368
 14.5533  25.6653
 14.5763  25.6202
 14.5993  25.5044
 14.6223  25.5188
 14.6453  25.5752
 14.6683  25.462
 14.6913  25.3866
 14.7143  25.2617
 14.7372  25.2108
 14.7603  25.1553
 14.7833  25.127
 14.8063  25.0605
 14.8293  25.0189
 14.8523  25.0342
 14.8753  24.9993
 14.8983  24.9665
 14.9213  25.0065
 14.9443  25.0444
 14.9673  25.0616
 14.9903  25.0294
 15.0132  24.9961
 15.0363  25.0367
 15.0593  25.0109
 15.0823  24.9597
 15.1052  24.9218
 15.1283  25.1806
 15.1513  25.6676
 15.1743  26.1085
 15.1973  26.2218
 15.2203  25.8045
 15.2433  25.2768
 15.2663  25.0604
 15.2892  24.9732
 15.3123  24.8588
 15.3353  24.7959
 15.3583  24.7004
 15.3812  24.6621
 15.4043  24.7379
 15.4273  24.7488
 15.4503  24.6759
 15.4733  24.6545
 15.4963  24.6391
 15.5193  24.5843
 15.5423  24.5887
 15.5653  24.6823
 15.5883  24.717
 15.6113  24.6853
 15.6343  24.7121
 15.6572  24.8129
 15.6803  24.7885
 15.7033  24.7827
 15.7263  24.8333
 15.7492  24.7436
 15.7723  24.6561
 15.7953  24.6033
 15.8183  24.6508
 15.8413  24.7351
 15.8643  24.735
 15.8873  24.8288
 15.9103  24.7855
 15.9332  24.7202
 15.9563  24.7082
 15.9793  24.7527
 16.0023  24.7952
 16.0253  24.8735
 16.0482  24.9818
 16.0713  25.0101
 16.0943  24.9273
 16.1172  24.9277
 16.1403  24.9504
 16.1633  25.1748
 16.1863  25.8227
 16.2093  26.9715
 16.2323  28.4085
 16.2553  29.1491
 16.2783  28.0197
 16.3012  26.1729
 16.3243  25.2676
 16.3472  24.9941
 16.3703  24.819
 16.3933  24.8172
 16.4163  24.8962
 16.4393  24.9265
 16.4623  24.7902
 16.4853  24.8114
 16.5083  24.8412
 16.5312  24.7702
 16.5543  24.8281
 16.5773  24.8044
 16.6002  24.8072
 16.6233  24.707
 16.6463  24.6461
 16.6693  24.5388
 16.6923  24.5104
 16.7153  24.5695
 16.7383  24.6081
 16.7613  24.6791
 16.7843  24.6489
 16.8073  24.5758
 16.8303  24.5861
 16.8533  24.6454
 16.8763  24.6696
 16.8992  24.5768
 16.9223  24.5737
 16.9453  24.5382
 16.9683  24.5465
 16.9913  24.5077
 17.0143  24.4128
 17.0373  24.3041
 17.0603  24.3591
 17.0832  24.3883
 17.1063  24.3032
 17.1293  24.2897
 17.1522  24.3021
 17.1753  24.343
 17.1983  24.44
 17.2213  24.394
 17.2443  24.2888
 17.2673  24.2369
 17.2903  24.3607
 17.3133  24.4333
 17.3362  24.3146
 17.3593  24.2259
 17.3823  24.1479
 17.4053  24.0792
 17.4283  24.0636
 17.4513  24.1434
 17.4743  24.2758
 17.4973  24.2321
 17.5203  24.0475
 17.5433  24.0708
 17.5663  24.0353
 17.5893  23.9147
 17.6123  23.9213
 17.6352  24.004
 17.6583  24.0021
 17.6813  23.9666
 17.7042  23.956
 17.7273  23.9333
 17.7503  23.9381
 17.7733  23.9381
 17.7963  23.902
 17.8193  23.9255
 17.8423  24.0008
 17.8653  23.9643
 17.8882  23.8386
 17.9113  23.7799
 17.9343  23.8706
 17.9573  23.9044
 17.9803  23.9497
 18.0033  24.1225
 18.0263  24.1619
 18.0493  24.4399
 18.0723  24.9735
 18.0953  25.279
 18.1183  25.1009
 18.1413  24.6299
 18.1643  24.2635
 18.1872  24.0176
 18.2103  23.8362
 18.2333  23.6981
 18.2563  23.6597
 18.2793  23.678
 18.3023  23.7212
 18.3253  23.73
 18.3483  23.7337
 18.3712  23.7591
 18.3943  23.8068
 18.4173  23.8444
 18.4402  23.7633
 18.4633  23.7416
 18.4863  23.6905
 18.5093  23.652
 18.5323  23.6664
 18.5553  23.7398
 18.5783  23.7433
 18.6013  23.6626
 18.6242  23.5516
 18.6473  23.4708
 18.6703  23.5547
 18.6933  23.649
 18.7163  23.616
 18.7392  23.646
 18.7623  23.5904
 18.7853  23.6155
 18.8083  23.6166
 18.8313  23.6691
 18.8543  23.6315
 18.8773  23.608
 18.9003  23.5736
 18.9232  23.6102
 18.9463  23.7204
 18.9693  23.678
 18.9922  23.6492
 19.0153  23.6629
 19.0383  23.8093
 19.0613  23.8094
 19.0843  23.7509
 19.1073  23.6506
 19.1303  23.7
 19.1533  23.7468
 19.1762  23.659
 19.1993  23.5543
 19.2223  23.5681
 19.2453  23.6222
 19.2683  23.6792
 19.2913  23.6766
 19.3143  23.643
 19.3373  23.5944
 19.3603  23.6748
 19.3833  23.7159
 19.4062  23.7132
 19.4293  23.7042
 19.4523  23.7929
 19.4752  23.7526
 19.4983  23.7891
 19.5213  23.8464
 19.5443  23.794
 19.5673  23.7391
 19.5903  23.738
 19.6133  23.8091
 19.6363  23.9596
 19.6593  24.198
 19.6823  24.4793
 19.7053  24.7485
 19.7283  24.811
 19.7513  24.6185
 19.7742  24.4843
 19.7973  24.3914
 19.8203  24.6463
 19.8433  25.5191
 19.8663  25.9871
 19.8893  25.4212
 19.9123  24.6722
 19.9353  24.2316
 19.9582  23.9585
 19.9813  23.9291
 20.0043  23.9061
 20.0272  23.8809
 20.0503  23.9926
 20.0733  23.8906
 20.0963  23.7638
 20.1193  23.7306
 20.1423  23.7338
 20.1653  23.7628
 20.1883  23.7657
 20.2112  23.773
 20.2343  23.885
 20.2573  23.7955
 20.2803  23.7461
 20.3033  23.7743
 20.3263  23.7572
 20.3493  23.7659
 20.3723  23.8603
 20.3953  23.9244
 20.4183  23.9151
 20.4413  23.9072
 20.4643  23.894
 20.4873  23.9255
 20.5102  23.9241
 20.5333  23.8053
 20.5563  23.8885
 20.5792  24.0486
 20.6023  24.1994
 20.6253  24.1345
 20.6483  24.0625
 20.6713  24.1805
 20.6943  24.4367
 20.7173  24.8068
 20.7403  25.364
 20.7632  25.9464
 20.7863  25.7208
 20.8093  25.0225
 20.8323  24.4082
 20.8553  24.1068
 20.8783  24.0212
 20.9013  24.0517
 20.9243  24.1048
 20.9473  24.202
 20.9703  24.1341
 20.9933  24.0508
 21.0163  24.0493
 21.0393  24.0731
 21.0622  23.9833
 21.0853  23.9655
 21.1083  23.9884
 21.1313  24.0317
 21.1543  24.0277
 21.1773  24.0912
 21.2003  24.0677
 21.2233  24.022
 21.2462  24.0663
 21.2693  24.1178
 21.2923  24.0831
 21.3152  24.0392
 21.3383  24.0576
 21.3613  24.0596
 21.3843  24.0381
 21.4073  23.9524
 21.4303  23.9889
 21.4533  24.0027
 21.4763  24.1351
 21.4992  24.1105
 21.5223  24.1054
 21.5453  24.0804
 21.5683  24.1226
 21.5913  24.2401
 21.6142  24.2702
 21.6373  24.1972
 21.6603  24.1524
 21.6833  24.2015
 21.7063  24.2051
 21.7293  24.243
 21.7523  24.3608
 21.7753  24.3494
 21.7982  24.4001
 21.8213  24.4208
 21.8443  24.3393
 21.8672  24.3484
 21.8903  24.3273
 21.9133  24.2681
 21.9363  24.2095
 21.9593  24.252
 21.9823  24.2972
 22.0053  24.3261
 22.0283  24.3106
 22.0512  24.3249
 22.0743  24.3348
 22.0973  24.335
 22.1203  24.4811
 22.1433  24.5539
 22.1663  24.495
 22.1893  24.437
 22.2123  24.4584
 22.2353  24.4775
 22.2583  24.5066
 22.2813  24.5479
 22.3043  24.6569
 22.3273  24.7572
 22.3502  24.8709
 22.3733  24.8733
 22.3963  24.7601
 22.4193  24.6872
 22.4423  24.7119
 22.4653  24.812
 22.4883  24.8369
 22.5113  24.9316
 22.5343  24.9391
 22.5573  24.8956
 22.5803  24.9466
 22.6033  24.9658
 22.6263  25.1223
 22.6493  25.2114
 22.6723  25.2473
 22.6953  25.3345
 22.7183  25.2673
 22.7413  25.2321
 22.7643  25.2516
 22.7873  25.2963
 22.8103  25.5268
 22.8333  25.6165
 22.8563  25.6561
 22.8793  25.7341
 22.9022  25.7814
 22.9253  25.8931
 22.9483  25.9725
 22.9713  26.1595
 22.9943  26.4425