File: test-data-xrd/xrd-map-34-ID-E/Data_0140.chi
F:\20151113_APS_34IDE\\Brian\Particle1\OCV\Data_0140.tif
2-Theta Angle (Degrees)
Intensity
       2000
 0.01725  0.0000000E+00
 0.04025  0.0000000E+00
 0.06325  0.0000000E+00
 0.08625  0.0000000E+00
 0.10925  0.0000000E+00
 0.13225  0.0000000E+00
 0.15525  0.0000000E+00
 0.17825  0.0000000E+00
 0.20125  0.0000000E+00
 0.22425  0.0000000E+00
 0.24725  0.0000000E+00
 0.27025  0.0000000E+00
 0.29325  0.0000000E+00
 0.31625  0.0000000E+00
 0.33925  0.0000000E+00
 0.36225  0.0000000E+00
 0.38525  0.0000000E+00
 0.40825  0.0000000E+00
 0.43125  0.0000000E+00
 0.45425  0.0000000E+00
 0.47725  0.0000000E+00
 0.50025  0.0000000E+00
 0.52325  0.0000000E+00
 0.54625  0.0000000E+00
 0.56925  0.0000000E+00
 0.59225  0.0000000E+00
 0.61525  0.0000000E+00
 0.63825  0.0000000E+00
 0.66125  0.0000000E+00
 0.68425  0.0000000E+00
 0.70725  0.0000000E+00
 0.73025  0.0000000E+00
 0.75325  0.0000000E+00
 0.77625  0.0000000E+00
 0.79925  0.0000000E+00
 0.82225  0.0000000E+00
 0.84525  0.0000000E+00
 0.86825  0.0000000E+00
 0.89125  0.0000000E+00
 0.91425  0.0000000E+00
 0.93725  0.0000000E+00
 0.96025  0.0000000E+00
 0.98325  0.0000000E+00
 1.00625  0.0000000E+00
 1.02925  0.0000000E+00
 1.05225  0.0000000E+00
 1.07525  0.0000000E+00
 1.09825  0.0000000E+00
 1.12125  0.0000000E+00
 1.14425  0.0000000E+00
 1.16725  0.0000000E+00
 1.19025  0.0000000E+00
 1.21325  0.0000000E+00
 1.23625  0.0000000E+00
 1.25925  0.0000000E+00
 1.28225  0.0000000E+00
 1.30525  0.0000000E+00
 1.32825  0.0000000E+00
 1.35125  0.0000000E+00
 1.37425  0.0000000E+00
 1.39725  0.0000000E+00
 1.42025  0.0000000E+00
 1.44325  0.0000000E+00
 1.46625  0.0000000E+00
 1.48925  0.0000000E+00
 1.51225  0.0000000E+00
 1.53525  0.0000000E+00
 1.55825  0.0000000E+00
 1.58125  0.0000000E+00
 1.60425  0.0000000E+00
 1.62725  0.0000000E+00
 1.65025  0.0000000E+00
 1.67325  0.0000000E+00
 1.69625  0.0000000E+00
 1.71925  0.0000000E+00
 1.74225  0.0000000E+00
 1.76525  0.0000000E+00
 1.78825  0.0000000E+00
 1.81125  0.0000000E+00
 1.83425  0.0000000E+00
 1.85725  0.0000000E+00
 1.88025  0.0000000E+00
 1.90325  0.0000000E+00
 1.92625  0.0000000E+00
 1.94925  0.0000000E+00
 1.97225  0.0000000E+00
 1.99525  0.0000000E+00
 2.01825  0.0000000E+00
 2.04125  0.0000000E+00
 2.06425  0.0000000E+00
 2.08725  0.0000000E+00
 2.11025  0.0000000E+00
 2.13325  0.0000000E+00
 2.15625  0.0000000E+00
 2.17925  0.0000000E+00
 2.20225  0.0000000E+00
 2.22525  0.0000000E+00
 2.24825  0.0000000E+00
 2.27125  0.0000000E+00
 2.29425  0.0000000E+00
 2.31725  0.0000000E+00
 2.34025  0.0000000E+00
 2.36325  0.0000000E+00
 2.38625  0.0000000E+00
 2.40925  0.0000000E+00
 2.43225  0.0000000E+00
 2.45525  0.0000000E+00
 2.47825  0.0000000E+00
 2.50125  0.0000000E+00
 2.52425  0.0000000E+00
 2.54725  0.0000000E+00
 2.57025  0.0000000E+00
 2.59325  0.0000000E+00
 2.61625  0.0000000E+00
 2.63925  0.0000000E+00
 2.66225  0.0000000E+00
 2.68525  0.0000000E+00
 2.70825  0.0000000E+00
 2.73125  0.0000000E+00
 2.75425  0.0000000E+00
 2.77725  0.0000000E+00
 2.80025  0.0000000E+00
 2.82325  34.6235
 2.84625  35.7807
 2.86925  35.96
 2.89225  35.4104
 2.91525  35.2408
 2.93825  35.3242
 2.96125  35.8177
 2.98425  36.324
 3.00725  36.5691
 3.03025  35.9276
 3.05325  35.3984
 3.07625  34.9146
 3.09925  35.2316
 3.12225  35.0806
 3.14525  35.3522
 3.16825  35.1659
 3.19125  35.2666
 3.21425  35.3546
 3.23725  35.3594
 3.26025  35.2996
 3.28325  34.7696
 3.30625  34.6418
 3.32925  34.2841
 3.35225  33.9381
 3.37525  34.0703
 3.39825  34.36
 3.42125  33.9362
 3.44425  33.4479
 3.46725  33.79
 3.49025  33.9122
 3.51325  33.8671
 3.53625  33.7114
 3.55925  33.7065
 3.58225  33.5192
 3.60525  32.993
 3.62825  33.0564
 3.65125  33.2154
 3.67425  33.1572
 3.69725  33.1654
 3.72025  33.0617
 3.74325  32.777
 3.76625  32.9238
 3.78925  32.8726
 3.81225  32.5721
 3.83525  32.345
 3.85825  31.9735
 3.88125  31.8133
 3.90425  31.7633
 3.92725  31.5784
 3.95025  31.6813
 3.97325  31.8932
 3.99625  32.2452
 4.01925  32.4391
 4.04225  32.2197
 4.06525  32.1269
 4.08825  32.1208
 4.11125  32.1086
 4.13425  32.1198
 4.15725  32.293
 4.18025  32.0448
 4.20325  31.8425
 4.22625  31.9174
 4.24925  32.0286
 4.27225  32.2039
 4.29525  31.9804
 4.31825  31.8307
 4.34125  31.6591
 4.36425  31.9428
 4.38725  32.3701
 4.41025  32.6381
 4.43325  32.6562
 4.45625  32.3628
 4.47925  32.4388
 4.50225  32.1989
 4.52525  32.1367
 4.54825  32.3031
 4.57125  32.4584
 4.59425  32.4982
 4.61725  32.4329
 4.64025  32.6814
 4.66325  33.0317
 4.68625  32.9135
 4.70925  32.6022
 4.73225  32.1945
 4.75525  32.0182
 4.77825  32.2105
 4.80125  32.0879
 4.82425  32.0629
 4.84725  32.1506
 4.87025  32.4458
 4.89325  32.4878
 4.91625  32.3671
 4.93925  32.5196
 4.96225  32.7614
 4.98525  32.8411
 5.00825  32.9401
 5.03125  32.9862
 5.05425  32.9812
 5.07725  32.9656
 5.10025  32.9259
 5.12325  32.8628
 5.14625  33.2355
 5.16925  33.4923
 5.19225  33.6871
 5.21525  33.7291
 5.23825  33.6832
 5.26125  33.6541
 5.28425  33.7791
 5.30725  33.9244
 5.33025  34.0574
 5.35325  34.1432
 5.37625  34.2555
 5.39925  34.2962
 5.42225  34.0887
 5.44525  33.9249
 5.46825  34.1114
 5.49125  34.37
 5.51425  34.5121
 5.53725  34.5056
 5.56025  34.4466
 5.58325  34.813
 5.60625  34.992
 5.62925  34.9066
 5.65225  34.7283
 5.67525  34.789
 5.69825  34.8957
 5.72125  35.0931
 5.74425  35.2461
 5.76725  35.3625
 5.79025  35.5185
 5.81325  35.6297
 5.83625  35.8008
 5.85925  35.815
 5.88225  35.8306
 5.90525  35.8776
 5.92825  36.1252
 5.95125  36.7501
 5.97425  37.4576
 5.99725  37.7476
 6.02025  37.3654
 6.04325  36.8614
 6.06625  36.5418
 6.08925  36.429
 6.11225  36.2956
 6.13525  36.1291
 6.15825  36.2332
 6.18125  36.4409
 6.20425  36.6175
 6.22725  36.9995
 6.25025  37.3418
 6.27325  37.5558
 6.29625  37.5994
 6.31925  37.5455
 6.34225  37.6263
 6.36525  37.9624
 6.38825  38.2859
 6.41125  38.3554
 6.43425  38.3818
 6.45725  38.6291
 6.48025  38.9274
 6.50325  39.0366
 6.52625  39.0465
 6.54925  39.1537
 6.57225  39.3823
 6.59525  39.5478
 6.61825  39.5739
 6.64125  39.659
 6.66425  39.8938
 6.68725  39.9125
 6.71025  39.9707
 6.73325  40.2474
 6.75625  40.6553
 6.77925  41.0406
 6.80225  41.3311
 6.82525  41.3437
 6.84825  41.3267
 6.87125  41.4528
 6.89425  41.6351
 6.91725  41.6683
 6.94025  41.6924
 6.96325  41.7801
 6.98625  42.0371
 7.00925  42.2209
 7.03225  42.2515
 7.05525  42.3995
 7.07825  42.5866
 7.10125  42.6143
 7.12425  42.7642
 7.14725  42.817
 7.17025  43.0273
 7.19325  43.2444
 7.21625  43.473
 7.23925  43.6169
 7.26225  43.7997
 7.28525  43.5176
 7.30825  43.383
 7.33125  43.5053
 7.35425  43.651
 7.37725  43.719
 7.40025  43.8162
 7.42325  43.7462
 7.44625  43.8392
 7.46925  44.0087
 7.49225  44.0384
 7.51525  44.0109
 7.53825  44.0104
 7.56125  44.0697
 7.58425  44.1678
 7.60725  44.229
 7.63025  44.0483
 7.65325  43.847
 7.67625  43.6534
 7.69925  43.6932
 7.72225  43.7897
 7.74525  44.0108
 7.76825  44.1718
 7.79125  44.1398
 7.81425  43.8871
 7.83725  43.84
 7.86025  44.0543
 7.88325  43.8446
 7.90625  43.8179
 7.92925  43.8405
 7.95225  43.5779
 7.97525  43.3654
 7.99825  43.5196
 8.02125  43.4459
 8.04425  43.3389
 8.06725  43.0307
 8.09025  42.8896
 8.11325  42.7092
 8.13625  42.4437
 8.15925  42.3173
 8.18225  42.1955
 8.20525  41.9631
 8.22825  41.6016
 8.25125  41.3924
 8.27425  41.0277
 8.29725  40.5703
 8.32025  40.308
 8.34325  40.153
 8.36625  39.9904
 8.38925  39.581
 8.41225  39.0987
 8.43525  38.6396
 8.45825  38.383
 8.48125  38.1261
 8.50425  37.7397
 8.52725  37.3624
 8.55025  36.8774
 8.57325  36.6551
 8.59625  36.277
 8.61925  36.059
 8.64225  35.8927
 8.66525  35.5236
 8.68825  35.2671
 8.71125  34.9199
 8.73425  34.4807
 8.75725  34.128
 8.78025  33.8161
 8.80325  33.4076
 8.82625  33.0514
 8.84925  32.7535
 8.87225  32.3814
 8.89525  31.9439
 8.91825  31.5895
 8.94125  31.3122
 8.96425  31.0284
 8.98725  30.7888
 9.01025  30.4143
 9.03325  30.1241
 9.05625  29.9857
 9.07925  29.7069
 9.10225  29.3577
 9.12525  29.1122
 9.14825  28.9283
 9.17125  28.6116
 9.19425  28.2977
 9.21725  28.0712
 9.24025  28.0219
 9.26325  27.8803
 9.28625  27.6228
 9.30925  27.3885
 9.33225  27.1433
 9.35525  26.8949
 9.37825  26.8568
 9.40125  26.9067
 9.42425  26.7908
 9.44725  26.507
 9.47025  26.2266
 9.49325  26.2105
 9.51625  26.0966
 9.53925  26.0106
 9.56225  25.7343
 9.58525  25.4761
 9.60825  25.447
 9.63125  25.3784
 9.65425  25.1842
 9.67725  24.9718
 9.70025  24.9016
 9.72325  24.9317
 9.74625  24.8667
 9.76925  24.7888
 9.79225  24.8045
 9.81525  24.7363
 9.83825  24.5836
 9.86125  24.518
 9.88425  24.3375
 9.90725  24.2063
 9.93025  24.1158
 9.95325  23.9889
 9.97625  24.1069
 9.99925  24.1276
 10.0222  24.0399
 10.0453  23.9565
 10.0683  23.9234
 10.0913  23.8768
 10.1143  23.8322
 10.1373  23.6926
 10.1603  23.7097
 10.1832  23.8145
 10.2063  23.7729
 10.2293  23.5802
 10.2523  23.3101
 10.2752  23.1859
 10.2982  23.1888
 10.3213  23.2514
 10.3443  23.2636
 10.3673  23.1986
 10.3902  23.166
 10.4133  23.0941
 10.4363  23.0321
 10.4593  23.0493
 10.4823  23.0497
 10.5053  22.9456
 10.5283  22.7673
 10.5512  22.746
 10.5742  22.7277
 10.5973  22.6326
 10.6203  22.607
 10.6433  22.6629
 10.6662  22.6974
 10.6893  22.6749
 10.7123  22.6386
 10.7353  22.6399
 10.7583  22.5807
 10.7813  22.4576
 10.8043  22.4519
 10.8272  22.5023
 10.8503  22.4522
 10.8733  22.4144
 10.8963  22.3607
 10.9192  22.3293
 10.9422  22.3243
 10.9653  22.3027
 10.9883  22.4517
 11.0113  22.4499
 11.0343  22.3603
 11.0573  22.2182
 11.0803  22.1482
 11.1033  22.1778
 11.1263  22.2122
 11.1493  22.205
 11.1723  22.216
 11.1953  22.1245
 11.2182  22.1138
 11.2413  22.0377
 11.2643  22.0031
 11.2873  21.9773
 11.3102  21.9662
 11.3333  22.011
 11.3563  22.0434
 11.3793  22.1844
 11.4023  22.2795
 11.4253  22.2276
 11.4483  22.1795
 11.4713  22.1751
 11.4942  22.0855
 11.5173  22.0324
 11.5403  22.2905
 11.5633  22.6259
 11.5862  22.7989
 11.6093  22.6622
 11.6323  22.2853
 11.6553  22.1166
 11.6783  22.0553
 11.7013  22.0403
 11.7243  22.019
 11.7473  21.9755
 11.7703  22.0087
 11.7933  22.0585
 11.8163  22.0956
 11.8393  22.0288
 11.8622  21.9491
 11.8853  22.0028
 11.9083  22.1142
 11.9313  22.1176
 11.9543  22.1899
 11.9773  22.2872
 12.0003  22.3722
 12.0233  22.314
 12.0463  22.3052
 12.0693  22.3587
 12.0923  22.4351
 12.1153  22.2937
 12.1382  22.258
 12.1613  22.2014
 12.1843  22.1792
 12.2073  22.1099
 12.2302  22.0754
 12.2533  22.0418
 12.2763  22.0833
 12.2993  22.1348
 12.3223  22.1922
 12.3453  22.1962
 12.3683  22.1658
 12.3913  22.1196
 12.4142  22.1302
 12.4373  22.1466
 12.4603  22.2029
 12.4833  22.2054
 12.5062  22.1245
 12.5292  22.1271
 12.5523  22.1847
 12.5753  22.3134
 12.5983  22.3711
 12.6212  22.4479
 12.6443  22.4255
 12.6673  22.3937
 12.6903  22.4801
 12.7133  22.5972
 12.7363  22.6529
 12.7593  22.6596
 12.7822  22.6466
 12.8052  22.6703
 12.8283  22.8907
 12.8513  22.984
 12.8742  23.0501
 12.8972  22.9919
 12.9203  23.2263
 12.9433  23.3955
 12.9663  23.439
 12.9893  23.5379
 13.0123  23.6333
 13.0353  23.8337
 13.0582  23.8965
 13.0813  23.9911
 13.1043  24.3048
 13.1273  24.5818
 13.1502  24.7955
 13.1732  25.0146
 13.1963  25.2426
 13.2193  25.5433
 13.2423  25.9372
 13.2652  26.1364
 13.2883  26.4667
 13.3113  26.891
 13.3343  27.233
 13.3573  27.3994
 13.3803  27.5757
 13.4033  27.8312
 13.4262  28.0176
 13.4492  28.3432
 13.4723  28.7389
 13.4953  28.9086
 13.5183  29.0148
 13.5412  29.1805
 13.5643  29.277
 13.5873  29.3404
 13.6103  29.3874
 13.6333  29.3363
 13.6563  29.315
 13.6793  29.3727
 13.7022  29.2087
 13.7253  28.9887
 13.7483  28.9143
 13.7713  28.792
 13.7942  28.6557
 13.8172  28.5951
 13.8403  28.6644
 13.8633  28.5911
 13.8863  28.576
 13.9093  28.9219
 13.9323  29.4547
 13.9553  29.7987
 13.9783  29.6735
 14.0013  29.0159
 14.0243  28.1224
 14.0473  27.3753
 14.0703  27.0697
 14.0932  26.9557
 14.1163  26.8261
 14.1393  26.6782
 14.1623  26.526
 14.1852  26.3711
 14.2083  26.3108
 14.2313  26.2411
 14.2543  26.13
 14.2773  26.0157
 14.3003  25.9135
 14.3233  25.8928
 14.3463  25.8195
 14.3692  25.7497
 14.3923  25.7065
 14.4153  25.7176
 14.4383  25.6865
 14.4612  25.5698
 14.4843  25.3737
 14.5073  25.3004
 14.5303  25.3746
 14.5533  25.3238
 14.5763  25.2143
 14.5993  25.1199
 14.6223  25.0636
 14.6453  24.9059
 14.6683  24.7716
 14.6913  24.759
 14.7143  24.7993
 14.7372  24.721
 14.7603  24.6078
 14.7833  24.5921
 14.8063  24.5316
 14.8293  24.5492
 14.8523  24.5862
 14.8753  24.5377
 14.8983  24.5466
 14.9213  24.5435
 14.9443  24.4557
 14.9673  24.3919
 14.9903  24.3704
 15.0132  24.4888
 15.0363  24.5209
 15.0593  24.3365
 15.0823  24.2713
 15.1052  24.2653
 15.1283  24.3177
 15.1513  24.3749
 15.1743  24.4746
 15.1973  24.4071
 15.2203  24.3094
 15.2433  24.2088
 15.2663  24.1098
 15.2892  24.1557
 15.3123  24.1467
 15.3353  24.0608
 15.3583  24.1096
 15.3812  24.0222
 15.4043  24.0507
 15.4273  24.1673
 15.4503  24.195
 15.4733  24.2294
 15.4963  24.235
 15.5193  24.2923
 15.5423  24.264
 15.5653  24.1993
 15.5883  24.2479
 15.6113  24.2121
 15.6343  24.1531
 15.6572  24.1115
 15.6803  24.1931
 15.7033  24.2488
 15.7263  24.2755
 15.7492  24.2322
 15.7723  24.2618
 15.7953  24.2684
 15.8183  24.2148
 15.8413  24.1077
 15.8643  24.173
 15.8873  24.18
 15.9103  24.1781
 15.9332  24.2085
 15.9563  24.2332
 15.9793  24.2798
 16.0023  24.25
 16.0253  24.3218
 16.0482  24.4254
 16.0713  24.3724
 16.0943  24.4166
 16.1172  24.4733
 16.1403  24.4855
 16.1633  24.5559
 16.1863  24.6818
 16.2093  25.0561
 16.2323  25.532
 16.2553  25.79
 16.2783  25.5315
 16.3012  25.0051
 16.3243  24.5751
 16.3472  24.4184
 16.3703  24.2614
 16.3933  24.2233
 16.4163  24.3284
 16.4393  24.2325
 16.4623  24.1672
 16.4853  24.2355
 16.5083  24.27
 16.5312  24.2796
 16.5543  24.3156
 16.5773  24.2905
 16.6002  24.3114
 16.6233  24.2923
 16.6463  24.2679
 16.6693  24.1972
 16.6923  24.1125
 16.7153  24.096
 16.7383  24.1223
 16.7613  24.1673
 16.7843  24.1307
 16.8073  24.1325
 16.8303  24.0333
 16.8533  23.9935
 16.8763  24.0305
 16.8992  24.0438
 16.9223  23.9767
 16.9453  23.9806
 16.9683  24.0348
 16.9913  24.0296
 17.0143  23.9676
 17.0373  23.9208
 17.0603  23.8646
 17.0832  23.8192
 17.1063  23.69
 17.1293  23.6704
 17.1522  23.7462
 17.1753  23.7311
 17.1983  23.7012
 17.2213  23.6744
 17.2443  23.7021
 17.2673  23.7013
 17.2903  23.6538
 17.3133  23.6659
 17.3362  23.7225
 17.3593  23.7256
 17.3823  23.7091
 17.4053  23.6418
 17.4283  23.628
 17.4513  23.5891
 17.4743  23.5983
 17.4973  23.5653
 17.5203  23.4488
 17.5433  23.4294
 17.5663  23.4067
 17.5893  23.3258
 17.6123  23.472
 17.6352  23.5032
 17.6583  23.4111
 17.6813  23.4908
 17.7042  23.5297
 17.7273  23.432
 17.7503  23.4491
 17.7733  23.4455
 17.7963  23.3688
 17.8193  23.2384
 17.8423  23.1886
 17.8653  23.1867
 17.8882  23.2226
 17.9113  23.278
 17.9343  23.2811
 17.9573  23.3592
 17.9803  23.4137
 18.0033  23.407
 18.0263  23.4252
 18.0493  23.4346
 18.0723  23.3728
 18.0953  23.4448
 18.1183  23.4309
 18.1413  23.3395
 18.1643  23.2712
 18.1872  23.1884
 18.2103  23.1192
 18.2333  23.1455
 18.2563  23.1684
 18.2793  23.0867
 18.3023  23.0555
 18.3253  23.078
 18.3483  23.1482
 18.3712  23.1729
 18.3943  23.066
 18.4173  23.1007
 18.4402  23.0738
 18.4633  23.0962
 18.4863  23.1335
 18.5093  23.1145
 18.5323  23.0537
 18.5553  22.9985
 18.5783  22.9926
 18.6013  23.0715
 18.6242  23.0158
 18.6473  23.0734
 18.6703  23.0926
 18.6933  23.1775
 18.7163  23.1611
 18.7392  23.1726
 18.7623  23.0648
 18.7853  23.0299
 18.8083  23.0971
 18.8313  23.1273
 18.8543  23.0704
 18.8773  23.019
 18.9003  23.0985
 18.9232  23.1369
 18.9463  23.1869
 18.9693  23.0668
 18.9922  22.9522
 19.0153  22.9938
 19.0383  23.1045
 19.0613  23.1541
 19.0843  23.1895
 19.1073  23.0821
 19.1303  23.1138
 19.1533  23.1098
 19.1762  23.0509
 19.1993  23.0301
 19.2223  23.0257
 19.2453  23.0592
 19.2683  23.1414
 19.2913  23.1064
 19.3143  23.1151
 19.3373  23.0435
 19.3603  23.043
 19.3833  23.0637
 19.4062  23.1223
 19.4293  23.1291
 19.4523  23.132
 19.4752  23.2112
 19.4983  23.1873
 19.5213  23.1547
 19.5443  23.2454
 19.5673  23.21
 19.5903  23.2013
 19.6133  23.2281
 19.6363  23.1537
 19.6593  23.1988
 19.6823  23.3968
 19.7053  23.604
 19.7283  23.5887
 19.7513  23.4694
 19.7742  23.3417
 19.7973  23.4346
 19.8203  23.4961
 19.8433  23.6423
 19.8663  23.7179
 19.8893  23.6087
 19.9123  23.4277
 19.9353  23.2478
 19.9582  23.1877
 19.9813  23.2354
 20.0043  23.2488
 20.0272  23.206
 20.0503  23.2772
 20.0733  23.2659
 20.0963  23.1633
 20.1193  23.1448
 20.1423  23.1865
 20.1653  23.2095
 20.1883  23.2191
 20.2112  23.1817
 20.2343  23.2069
 20.2573  23.2241
 20.2803  23.2369
 20.3033  23.1951
 20.3263  23.2012
 20.3493  23.2766
 20.3723  23.2312
 20.3953  23.1955
 20.4183  23.2854
 20.4413  23.3616
 20.4643  23.296
 20.4873  23.2883
 20.5102  23.3061
 20.5333  23.2263
 20.5563  23.236
 20.5792  23.3074
 20.6023  23.3416
 20.6253  23.3454
 20.6483  23.3825
 20.6713  23.3524
 20.6943  23.4609
 20.7173  23.5948
 20.7403  23.7641
 20.7632  23.8039
 20.7863  23.6857
 20.8093  23.5547
 20.8323  23.4243
 20.8553  23.3515
 20.8783  23.3103
 20.9013  23.3897
 20.9243  23.4708
 20.9473  23.503
 20.9703  23.4179
 20.9933  23.4056
 21.0163  23.4103
 21.0393  23.4698
 21.0622  23.4417
 21.0853  23.5049
 21.1083  23.525
 21.1313  23.6113
 21.1543  23.4372
 21.1773  23.5028
 21.2003  23.6055
 21.2233  23.5183
 21.2462  23.5592
 21.2693  23.6273
 21.2923  23.5532
 21.3152  23.4784
 21.3383  23.5297
 21.3613  23.5236
 21.3843  23.5205
 21.4073  23.4146
 21.4303  23.3923
 21.4533  23.4413
 21.4763  23.5945
 21.4992  23.7056
 21.5223  23.6557
 21.5453  23.529
 21.5683  23.4763
 21.5913  23.5537
 21.6142  23.6288
 21.6373  23.6208
 21.6603  23.6569
 21.6833  23.7041
 21.7063  23.6782
 21.7293  23.6813
 21.7523  23.6476
 21.7753  23.6566
 21.7982  23.735
 21.8213  23.7363
 21.8443  23.6351
 21.8672  23.6808
 21.8903  23.6857
 21.9133  23.6742
 21.9363  23.7338
 21.9593  23.7095
 21.9823  23.7534
 22.0053  23.751
 22.0283  23.8707
 22.0512  23.862
 22.0743  23.8377
 22.0973  23.8707
 22.1203  23.8563
 22.1433  23.8434
 22.1663  23.8259
 22.1893  23.8145
 22.2123  23.8855
 22.2353  23.9286
 22.2583  24.0029
 22.2813  24.0114
 22.3043  24.0356
 22.3273  23.9913
 22.3502  24.0091
 22.3733  24.0199
 22.3963  23.9936
 22.4193  23.9906
 22.4423  24.1567
 22.4653  24.1806
 22.4883  24.1402
 22.5113  24.2302
 22.5343  24.3279
 22.5573  24.3695
 22.5803  24.385
 22.6033  24.4033
 22.6263  24.4586
 22.6493  24.5017
 22.6723  24.7395
 22.6953  25.0433
 22.7183  25.3406
 22.7413  25.3208
 22.7643  24.9355
 22.7873  24.73
 22.8103  24.845
 22.8333  24.965
 22.8563  25.0065
 22.8793  25.0087
 22.9022  25.318
 22.9253  25.5707
 22.9483  25.5409
 22.9713  25.5857
 22.9943  25.6757