File: test-data-xrd/xrd-map-34-ID-E/Data_0055.chi
F:\20151113_APS_34IDE\\Brian\Particle1\OCV\Data_0055.tif
2-Theta Angle (Degrees)
Intensity
       2000
 0.01725  0.0000000E+00
 0.04025  0.0000000E+00
 0.06325  0.0000000E+00
 0.08625  0.0000000E+00
 0.10925  0.0000000E+00
 0.13225  0.0000000E+00
 0.15525  0.0000000E+00
 0.17825  0.0000000E+00
 0.20125  0.0000000E+00
 0.22425  0.0000000E+00
 0.24725  0.0000000E+00
 0.27025  0.0000000E+00
 0.29325  0.0000000E+00
 0.31625  0.0000000E+00
 0.33925  0.0000000E+00
 0.36225  0.0000000E+00
 0.38525  0.0000000E+00
 0.40825  0.0000000E+00
 0.43125  0.0000000E+00
 0.45425  0.0000000E+00
 0.47725  0.0000000E+00
 0.50025  0.0000000E+00
 0.52325  0.0000000E+00
 0.54625  0.0000000E+00
 0.56925  0.0000000E+00
 0.59225  0.0000000E+00
 0.61525  0.0000000E+00
 0.63825  0.0000000E+00
 0.66125  0.0000000E+00
 0.68425  0.0000000E+00
 0.70725  0.0000000E+00
 0.73025  0.0000000E+00
 0.75325  0.0000000E+00
 0.77625  0.0000000E+00
 0.79925  0.0000000E+00
 0.82225  0.0000000E+00
 0.84525  0.0000000E+00
 0.86825  0.0000000E+00
 0.89125  0.0000000E+00
 0.91425  0.0000000E+00
 0.93725  0.0000000E+00
 0.96025  0.0000000E+00
 0.98325  0.0000000E+00
 1.00625  0.0000000E+00
 1.02925  0.0000000E+00
 1.05225  0.0000000E+00
 1.07525  0.0000000E+00
 1.09825  0.0000000E+00
 1.12125  0.0000000E+00
 1.14425  0.0000000E+00
 1.16725  0.0000000E+00
 1.19025  0.0000000E+00
 1.21325  0.0000000E+00
 1.23625  0.0000000E+00
 1.25925  0.0000000E+00
 1.28225  0.0000000E+00
 1.30525  0.0000000E+00
 1.32825  0.0000000E+00
 1.35125  0.0000000E+00
 1.37425  0.0000000E+00
 1.39725  0.0000000E+00
 1.42025  0.0000000E+00
 1.44325  0.0000000E+00
 1.46625  0.0000000E+00
 1.48925  0.0000000E+00
 1.51225  0.0000000E+00
 1.53525  0.0000000E+00
 1.55825  0.0000000E+00
 1.58125  0.0000000E+00
 1.60425  0.0000000E+00
 1.62725  0.0000000E+00
 1.65025  0.0000000E+00
 1.67325  0.0000000E+00
 1.69625  0.0000000E+00
 1.71925  0.0000000E+00
 1.74225  0.0000000E+00
 1.76525  0.0000000E+00
 1.78825  0.0000000E+00
 1.81125  0.0000000E+00
 1.83425  0.0000000E+00
 1.85725  0.0000000E+00
 1.88025  0.0000000E+00
 1.90325  0.0000000E+00
 1.92625  0.0000000E+00
 1.94925  0.0000000E+00
 1.97225  0.0000000E+00
 1.99525  0.0000000E+00
 2.01825  0.0000000E+00
 2.04125  0.0000000E+00
 2.06425  0.0000000E+00
 2.08725  0.0000000E+00
 2.11025  0.0000000E+00
 2.13325  0.0000000E+00
 2.15625  0.0000000E+00
 2.17925  0.0000000E+00
 2.20225  0.0000000E+00
 2.22525  0.0000000E+00
 2.24825  0.0000000E+00
 2.27125  0.0000000E+00
 2.29425  0.0000000E+00
 2.31725  0.0000000E+00
 2.34025  0.0000000E+00
 2.36325  0.0000000E+00
 2.38625  0.0000000E+00
 2.40925  0.0000000E+00
 2.43225  0.0000000E+00
 2.45525  0.0000000E+00
 2.47825  0.0000000E+00
 2.50125  0.0000000E+00
 2.52425  0.0000000E+00
 2.54725  0.0000000E+00
 2.57025  0.0000000E+00
 2.59325  0.0000000E+00
 2.61625  0.0000000E+00
 2.63925  0.0000000E+00
 2.66225  0.0000000E+00
 2.68525  0.0000000E+00
 2.70825  0.0000000E+00
 2.73125  0.0000000E+00
 2.75425  0.0000000E+00
 2.77725  0.0000000E+00
 2.80025  0.0000000E+00
 2.82325  33.2084
 2.84625  33.714
 2.86925  33.5932
 2.89225  34.0016
 2.91525  34.383
 2.93825  35.1611
 2.96125  35.067
 2.98425  34.7288
 3.00725  34.992
 3.03025  35.7698
 3.05325  35.6539
 3.07625  35.6853
 3.09925  35.6698
 3.12225  35.4992
 3.14525  35.8468
 3.16825  36.2756
 3.19125  36.5145
 3.21425  36.7273
 3.23725  36.1667
 3.26025  35.6481
 3.28325  35.3123
 3.30625  35.5948
 3.32925  35.3392
 3.35225  34.9768
 3.37525  35.433
 3.39825  35.4786
 3.42125  35.2016
 3.44425  34.662
 3.46725  34.2186
 3.49025  34.5232
 3.51325  34.5869
 3.53625  34.8256
 3.55925  34.5514
 3.58225  34.0374
 3.60525  33.6218
 3.62825  33.4126
 3.65125  33.5897
 3.67425  33.9513
 3.69725  33.9375
 3.72025  33.6759
 3.74325  32.979
 3.76625  32.9331
 3.78925  33.0471
 3.81225  33.049
 3.83525  32.9553
 3.85825  33.1212
 3.88125  33.038
 3.90425  32.5566
 3.92725  32.4962
 3.95025  32.8281
 3.97325  33.0512
 3.99625  33.1263
 4.01925  32.964
 4.04225  32.7575
 4.06525  32.487
 4.08825  32.3061
 4.11125  32.3562
 4.13425  32.5732
 4.15725  32.5289
 4.18025  32.3384
 4.20325  32.4415
 4.22625  32.394
 4.24925  32.2596
 4.27225  32.076
 4.29525  32.3477
 4.31825  32.52
 4.34125  32.5618
 4.36425  32.5879
 4.38725  32.5591
 4.41025  32.5383
 4.43325  32.5521
 4.45625  32.319
 4.47925  32.4126
 4.50225  32.6102
 4.52525  32.851
 4.54825  32.8627
 4.57125  32.766
 4.59425  32.8241
 4.61725  32.5507
 4.64025  32.4511
 4.66325  32.724
 4.68625  33.0257
 4.70925  32.6874
 4.73225  32.4482
 4.75525  32.3427
 4.77825  32.6484
 4.80125  32.6614
 4.82425  32.7315
 4.84725  32.8918
 4.87025  32.9677
 4.89325  32.9478
 4.91625  32.9772
 4.93925  33.0194
 4.96225  32.8199
 4.98525  32.9056
 5.00825  33.0805
 5.03125  33.0114
 5.05425  32.9749
 5.07725  33.1714
 5.10025  33.5029
 5.12325  33.5024
 5.14625  33.6974
 5.16925  33.9741
 5.19225  34.1631
 5.21525  34.2087
 5.23825  34.0951
 5.26125  34.105
 5.28425  34.332
 5.30725  34.5963
 5.33025  34.8784
 5.35325  34.7775
 5.37625  34.5382
 5.39925  34.4521
 5.42225  34.3358
 5.44525  34.3492
 5.46825  34.5557
 5.49125  34.5382
 5.51425  34.7073
 5.53725  34.9954
 5.56025  35.1731
 5.58325  35.2909
 5.60625  35.3239
 5.62925  35.4078
 5.65225  35.2733
 5.67525  35.3565
 5.69825  35.4543
 5.72125  35.4269
 5.74425  35.5235
 5.76725  35.7351
 5.79025  35.838
 5.81325  35.6554
 5.83625  35.6651
 5.85925  35.7028
 5.88225  35.918
 5.90525  36.1455
 5.92825  36.7862
 5.95125  38.1855
 5.97425  39.6085
 5.99725  39.5664
 6.02025  38.2358
 6.04325  36.9877
 6.06625  36.5867
 6.08925  36.4967
 6.11225  36.5337
 6.13525  36.5247
 6.15825  36.5046
 6.18125  36.6977
 6.20425  36.7615
 6.22725  36.9612
 6.25025  37.2381
 6.27325  37.5558
 6.29625  37.6096
 6.31925  37.6401
 6.34225  37.9726
 6.36525  38.1339
 6.38825  38.1276
 6.41125  38.2918
 6.43425  38.3719
 6.45725  38.5656
 6.48025  38.7532
 6.50325  39.0565
 6.52625  39.353
 6.54925  39.3998
 6.57225  39.432
 6.59525  39.4755
 6.61825  39.6833
 6.64125  40.0681
 6.66425  40.3313
 6.68725  40.3791
 6.71025  40.4681
 6.73325  40.5394
 6.75625  40.7296
 6.77925  40.8924
 6.80225  41.156
 6.82525  41.5718
 6.84825  41.6628
 6.87125  41.8048
 6.89425  42.0487
 6.91725  42.1868
 6.94025  42.3826
 6.96325  42.5981
 6.98625  42.5618
 7.00925  42.6023
 7.03225  42.6261
 7.05525  42.6171
 7.07825  42.6983
 7.10125  42.8701
 7.12425  43.1708
 7.14725  43.27
 7.17025  43.165
 7.19325  43.3552
 7.21625  43.6672
 7.23925  43.8499
 7.26225  43.9236
 7.28525  43.7964
 7.30825  43.723
 7.33125  43.7956
 7.35425  43.8716
 7.37725  43.87
 7.40025  43.9668
 7.42325  44.0289
 7.44625  44.0546
 7.46925  44.2227
 7.49225  44.3414
 7.51525  44.3372
 7.53825  44.2823
 7.56125  44.2739
 7.58425  44.346
 7.60725  44.4576
 7.63025  44.3125
 7.65325  44.3574
 7.67625  44.4869
 7.69925  44.5118
 7.72225  44.6588
 7.74525  44.6626
 7.76825  44.5493
 7.79125  44.4556
 7.81425  44.4561
 7.83725  44.4109
 7.86025  44.5549
 7.88325  44.334
 7.90625  44.1945
 7.92925  44.0545
 7.95225  43.8399
 7.97525  43.6643
 7.99825  43.6471
 8.02125  43.5024
 8.04425  43.4067
 8.06725  43.2509
 8.09025  43.0862
 8.11325  43.023
 8.13625  42.7818
 8.15925  42.4931
 8.18225  42.199
 8.20525  42.0423
 8.22825  41.9295
 8.25125  41.7121
 8.27425  41.4855
 8.29725  41.2668
 8.32025  41.029
 8.34325  40.7108
 8.36625  40.3876
 8.38925  39.8464
 8.41225  39.2716
 8.43525  38.8443
 8.45825  38.4197
 8.48125  38.1938
 8.50425  37.9122
 8.52725  37.7235
 8.55025  37.3297
 8.57325  37.0613
 8.59625  36.7042
 8.61925  36.2029
 8.64225  35.6759
 8.66525  35.2505
 8.68825  35.0783
 8.71125  34.773
 8.73425  34.3515
 8.75725  33.8002
 8.78025  33.4762
 8.80325  33.2238
 8.82625  32.9872
 8.84925  32.6749
 8.87225  32.4153
 8.89525  32.1303
 8.91825  31.8777
 8.94125  31.3885
 8.96425  31.081
 8.98725  30.9032
 9.01025  30.5846
 9.03325  30.3972
 9.05625  30.1344
 9.07925  29.7974
 9.10225  29.4826
 9.12525  29.3231
 9.14825  29.1641
 9.17125  28.8996
 9.19425  28.6097
 9.21725  28.3575
 9.24025  28.1821
 9.26325  27.9695
 9.28625  27.771
 9.30925  27.5418
 9.33225  27.2963
 9.35525  27.0978
 9.37825  26.9557
 9.40125  26.7071
 9.42425  26.5615
 9.44725  26.5278
 9.47025  26.5053
 9.49325  26.5027
 9.51625  26.2699
 9.53925  25.9587
 9.56225  25.6795
 9.58525  25.5224
 9.60825  25.4351
 9.63125  25.506
 9.65425  25.5022
 9.67725  25.3239
 9.70025  25.1735
 9.72325  25.1087
 9.74625  25.0151
 9.76925  24.8524
 9.79225  24.7467
 9.81525  24.5537
 9.83825  24.5795
 9.86125  24.5055
 9.88425  24.2903
 9.90725  24.2192
 9.93025  24.2243
 9.95325  24.2012
 9.97625  24.1495
 9.99925  23.9823
 10.0222  23.8023
 10.0453  23.9452
 10.0683  23.9186
 10.0913  23.8237
 10.1143  23.7584
 10.1373  23.7675
 10.1603  23.7606
 10.1832  23.7099
 10.2063  23.6048
 10.2293  23.4871
 10.2523  23.3852
 10.2752  23.3381
 10.2982  23.3618
 10.3213  23.3036
 10.3443  23.3222
 10.3673  23.3592
 10.3902  23.2791
 10.4133  23.2078
 10.4363  23.0559
 10.4593  22.9083
 10.4823  22.9684
 10.5053  23.0627
 10.5283  23.0502
 10.5512  22.9687
 10.5742  22.9794
 10.5973  22.9042
 10.6203  22.8349
 10.6433  22.7538
 10.6662  22.7545
 10.6893  22.8027
 10.7123  22.7418
 10.7353  22.6968
 10.7583  22.6032
 10.7813  22.5588
 10.8043  22.4837
 10.8272  22.5285
 10.8503  22.5404
 10.8733  22.5258
 10.8963  22.4004
 10.9192  22.4209
 10.9422  22.3601
 10.9653  22.3477
 10.9883  22.3714
 11.0113  22.3862
 11.0343  22.3524
 11.0573  22.3521
 11.0803  22.4009
 11.1033  22.4381
 11.1263  22.415
 11.1493  22.4339
 11.1723  22.4688
 11.1953  22.4191
 11.2182  22.3333
 11.2413  22.2536
 11.2643  22.2597
 11.2873  22.2348
 11.3102  22.1909
 11.3333  22.2124
 11.3563  22.2405
 11.3793  22.3665
 11.4023  22.4895
 11.4253  22.4695
 11.4483  22.378
 11.4713  22.2913
 11.4942  22.1935
 11.5173  22.1818
 11.5403  22.3004
 11.5633  22.6685
 11.5862  23.2487
 11.6093  23.3843
 11.6323  22.9712
 11.6553  22.4834
 11.6783  22.2964
 11.7013  22.1764
 11.7243  22.1768
 11.7473  22.241
 11.7703  22.2402
 11.7933  22.1941
 11.8163  22.2339
 11.8393  22.2006
 11.8622  22.0646
 11.8853  22.0669
 11.9083  22.2018
 11.9313  22.3248
 11.9543  22.3454
 11.9773  22.3582
 12.0003  22.4097
 12.0233  22.3933
 12.0463  22.3225
 12.0693  22.434
 12.0923  22.6185
 12.1153  22.701
 12.1382  22.5833
 12.1613  22.4488
 12.1843  22.3406
 12.2073  22.2566
 12.2302  22.1834
 12.2533  22.2168
 12.2763  22.2456
 12.2993  22.2885
 12.3223  22.2111
 12.3453  22.2045
 12.3683  22.2614
 12.3913  22.3826
 12.4142  22.3574
 12.4373  22.3233
 12.4603  22.3184
 12.4833  22.3885
 12.5062  22.3836
 12.5292  22.4206
 12.5523  22.4921
 12.5753  22.5159
 12.5983  22.5343
 12.6212  22.5695
 12.6443  22.5161
 12.6673  22.5032
 12.6903  22.6064
 12.7133  22.7666
 12.7363  22.7823
 12.7593  22.8234
 12.7822  22.8303
 12.8052  22.8275
 12.8283  22.8788
 12.8513  23.0383
 12.8742  23.1379
 12.8972  23.1154
 12.9203  23.2549
 12.9433  23.4643
 12.9663  23.627
 12.9893  23.7572
 13.0123  23.8891
 13.0353  23.9913
 13.0582  24.077
 13.0813  24.1646
 13.1043  24.4798
 13.1273  24.8922
 13.1502  25.123
 13.1732  25.3236
 13.1963  25.554
 13.2193  25.7509
 13.2423  25.9819
 13.2652  26.1506
 13.2883  26.4533
 13.3113  26.7379
 13.3343  27.0467
 13.3573  27.4108
 13.3803  27.782
 13.4033  28.1511
 13.4262  28.357
 13.4492  28.5662
 13.4723  28.8061
 13.4953  29.0363
 13.5183  29.2574
 13.5412  29.3697
 13.5643  29.5127
 13.5873  29.5097
 13.6103  29.4799
 13.6333  29.5712
 13.6563  29.5623
 13.6793  29.6384
 13.7022  29.5435
 13.7253  29.3496
 13.7483  29.1975
 13.7713  29.095
 13.7942  29.0053
 13.8172  28.8672
 13.8403  28.8178
 13.8633  28.7052
 13.8863  28.6674
 13.9093  28.8019
 13.9323  29.3089
 13.9553  29.7683
 13.9783  29.5056
 14.0013  28.6558
 14.0243  27.8848
 14.0473  27.5283
 14.0703  27.4275
 14.0932  27.3165
 14.1163  27.1748
 14.1393  27.0698
 14.1623  26.8616
 14.1852  26.6347
 14.2083  26.5557
 14.2313  26.399
 14.2543  26.222
 14.2773  26.1724
 14.3003  26.1061
 14.3233  26.0586
 14.3463  25.9858
 14.3692  25.9576
 14.3923  25.8299
 14.4153  25.7009
 14.4383  25.6469
 14.4612  25.539
 14.4843  25.4031
 14.5073  25.3709
 14.5303  25.396
 14.5533  25.4086
 14.5763  25.2917
 14.5993  25.1966
 14.6223  25.0961
 14.6453  25.0162
 14.6683  24.9307
 14.6913  24.9306
 14.7143  24.9576
 14.7372  24.9147
 14.7603  24.8888
 14.7833  24.9519
 14.8063  24.8685
 14.8293  24.8671
 14.8523  24.8699
 14.8753  24.7565
 14.8983  24.8599
 14.9213  24.8764
 14.9443  24.7257
 14.9673  24.6153
 14.9903  24.615
 15.0132  24.5989
 15.0363  24.6951
 15.0593  24.7138
 15.0823  24.602
 15.1052  24.5232
 15.1283  24.5987
 15.1513  24.724
 15.1743  24.787
 15.1973  24.8759
 15.2203  24.8999
 15.2433  24.6847
 15.2663  24.4017
 15.2892  24.2725
 15.3123  24.3364
 15.3353  24.335
 15.3583  24.318
 15.3812  24.2897
 15.4043  24.4036
 15.4273  24.4549
 15.4503  24.3261
 15.4733  24.1819
 15.4963  24.262
 15.5193  24.3251
 15.5423  24.261
 15.5653  24.3209
 15.5883  24.387
 15.6113  24.3435
 15.6343  24.2058
 15.6572  24.2161
 15.6803  24.2646
 15.7033  24.3624
 15.7263  24.4745
 15.7492  24.4495
 15.7723  24.4408
 15.7953  24.4234
 15.8183  24.4225
 15.8413  24.3989
 15.8643  24.3414
 15.8873  24.3843
 15.9103  24.4901
 15.9332  24.4139
 15.9563  24.2884
 15.9793  24.3221
 16.0023  24.4629
 16.0253  24.5007
 16.0482  24.5077
 16.0713  24.4476
 16.0943  24.4501
 16.1172  24.5839
 16.1403  24.5509
 16.1633  24.4925
 16.1863  24.5193
 16.2093  24.6943
 16.2323  24.8647
 16.2553  24.937
 16.2783  24.8739
 16.3012  24.7043
 16.3243  24.6054
 16.3472  24.5718
 16.3703  24.55
 16.3933  24.4891
 16.4163  24.5867
 16.4393  24.5194
 16.4623  24.3646
 16.4853  24.3564
 16.5083  24.4324
 16.5312  24.4059
 16.5543  24.2958
 16.5773  24.2423
 16.6002  24.2469
 16.6233  24.3143
 16.6463  24.2714
 16.6693  24.2611
 16.6923  24.2642
 16.7153  24.2155
 16.7383  24.1398
 16.7613  24.1155
 16.7843  24.0624
 16.8073  24.1522
 16.8303  24.0941
 16.8533  24.1003
 16.8763  24.1798
 16.8992  24.0922
 16.9223  24.12
 16.9453  24.0763
 16.9683  24.0438
 16.9913  24.0061
 17.0143  23.9062
 17.0373  23.8932
 17.0603  23.8738
 17.0832  23.8754
 17.1063  23.9024
 17.1293  23.9752
 17.1522  24.0321
 17.1753  23.9575
 17.1983  24.0308
 17.2213  23.9931
 17.2443  23.8258
 17.2673  23.6524
 17.2903  23.744
 17.3133  23.7634
 17.3362  23.8474
 17.3593  23.8349
 17.3823  23.738
 17.4053  23.654
 17.4283  23.69
 17.4513  23.7849
 17.4743  23.866
 17.4973  23.854
 17.5203  23.793
 17.5433  23.7003
 17.5663  23.5831
 17.5893  23.5529
 17.6123  23.6255
 17.6352  23.6442
 17.6583  23.583
 17.6813  23.5605
 17.7042  23.5854
 17.7273  23.5196
 17.7503  23.5052
 17.7733  23.5572
 17.7963  23.5187
 17.8193  23.5088
 17.8423  23.5002
 17.8653  23.459
 17.8882  23.3994
 17.9113  23.4358
 17.9343  23.4103
 17.9573  23.3489
 17.9803  23.4084
 18.0033  23.5232
 18.0263  23.5629
 18.0493  23.5783
 18.0723  23.5882
 18.0953  23.5969
 18.1183  23.6418
 18.1413  23.5784
 18.1643  23.3838
 18.1872  23.2162
 18.2103  23.243
 18.2333  23.2337
 18.2563  23.2609
 18.2793  23.2458
 18.3023  23.1946
 18.3253  23.223
 18.3483  23.2694
 18.3712  23.2251
 18.3943  23.2567
 18.4173  23.2986
 18.4402  23.3097
 18.4633  23.2574
 18.4863  23.2458
 18.5093  23.2373
 18.5323  23.2315
 18.5553  23.308
 18.5783  23.316
 18.6013  23.3359
 18.6242  23.2399
 18.6473  23.2014
 18.6703  23.2238
 18.6933  23.3342
 18.7163  23.3455
 18.7392  23.2837
 18.7623  23.2205
 18.7853  23.2506
 18.8083  23.3093
 18.8313  23.2695
 18.8543  23.2075
 18.8773  23.1734
 18.9003  23.3235
 18.9232  23.4788
 18.9463  23.4763
 18.9693  23.2955
 18.9922  23.2587
 19.0153  23.283
 19.0383  23.3777
 19.0613  23.4121
 19.0843  23.284
 19.1073  23.2004
 19.1303  23.1488
 19.1533  23.2387
 19.1762  23.2542
 19.1993  23.3116
 19.2223  23.3144
 19.2453  23.239
 19.2683  23.2733
 19.2913  23.227
 19.3143  23.2332
 19.3373  23.2604
 19.3603  23.2646
 19.3833  23.2605
 19.4062  23.2378
 19.4293  23.2687
 19.4523  23.2709
 19.4752  23.5524
 19.4983  23.9743
 19.5213  23.6624
 19.5443  23.2901
 19.5673  23.2639
 19.5903  23.3309
 19.6133  23.3987
 19.6363  23.4523
 19.6593  23.5593
 19.6823  23.7062
 19.7053  23.8515
 19.7283  23.8271
 19.7513  23.6686
 19.7742  23.5359
 19.7973  23.5256
 19.8203  23.6646
 19.8433  23.8343
 19.8663  23.8714
 19.8893  23.7988
 19.9123  23.6897
 19.9353  23.5404
 19.9582  23.4721
 19.9813  23.4088
 20.0043  23.3243
 20.0272  23.309
 20.0503  23.3085
 20.0733  23.3264
 20.0963  23.3956
 20.1193  23.4783
 20.1423  23.4464
 20.1653  23.4024
 20.1883  23.4434
 20.2112  23.4233
 20.2343  23.376
 20.2573  23.3615
 20.2803  23.3513
 20.3033  23.3488
 20.3263  23.3793
 20.3493  23.4421
 20.3723  23.5168
 20.3953  23.4667
 20.4183  23.4443
 20.4413  23.4127
 20.4643  23.4294
 20.4873  23.375
 20.5102  23.3003
 20.5333  23.3476
 20.5563  23.4156
 20.5792  23.4468
 20.6023  23.5177
 20.6253  23.5407
 20.6483  23.4898
 20.6713  23.4891
 20.6943  23.5369
 20.7173  23.6291
 20.7403  23.7921
 20.7632  23.8856
 20.7863  23.8765
 20.8093  23.7653
 20.8323  23.6294
 20.8553  23.5824
 20.8783  23.6032
 20.9013  23.5952
 20.9243  23.6093
 20.9473  23.6453
 20.9703  23.6675
 20.9933  23.7031
 21.0163  23.6574
 21.0393  23.635
 21.0622  23.5518
 21.0853  23.5728
 21.1083  23.4684
 21.1313  23.5507
 21.1543  23.5232
 21.1773  23.5868
 21.2003  23.6158
 21.2233  23.5903
 21.2462  23.6783
 21.2693  23.7752
 21.2923  23.7502
 21.3152  23.5669
 21.3383  23.56
 21.3613  23.602
 21.3843  23.6414
 21.4073  23.5458
 21.4303  23.65
 21.4533  23.7721
 21.4763  23.7765
 21.4992  23.8174
 21.5223  23.8129
 21.5453  23.7702
 21.5683  23.7093
 21.5913  23.847
 21.6142  23.8645
 21.6373  23.826
 21.6603  23.8578
 21.6833  23.8156
 21.7063  23.8329
 21.7293  23.9559
 21.7523  23.9178
 21.7753  23.8084
 21.7982  23.8075
 21.8213  23.8476
 21.8443  23.8187
 21.8672  23.9049
 21.8903  23.9391
 21.9133  23.9446
 21.9363  23.9667
 21.9593  23.9846
 21.9823  23.9063
 22.0053  23.9523
 22.0283  24.0436
 22.0512  24.05
 22.0743  24.0303
 22.0973  23.9491
 22.1203  24.0445
 22.1433  24.1098
 22.1663  24.1367
 22.1893  24.1189
 22.2123  24.147
 22.2353  24.0419
 22.2583  24.0674
 22.2813  24.1135
 22.3043  24.2568
 22.3273  24.3157
 22.3502  24.382
 22.3733  24.3651
 22.3963  24.1999
 22.4193  24.1767
 22.4423  24.1972
 22.4653  24.2731
 22.4883  24.2692
 22.5113  24.3685
 22.5343  24.4858
 22.5573  24.4597
 22.5803  24.4357
 22.6033  24.4818
 22.6263  24.5776
 22.6493  24.6315
 22.6723  24.6397
 22.6953  24.7972
 22.7183  24.8565
 22.7413  24.8095
 22.7643  24.9047
 22.7873  24.9794
 22.8103  25.0592
 22.8333  25.1494
 22.8563  25.1869
 22.8793  25.2578
 22.9022  25.4297
 22.9253  25.6217
 22.9483  25.6429
 22.9713  25.7095
 22.9943  25.8734