File: test-data-xrd/xrd-map-34-ID-E/Data_0134.chi
F:\20151113_APS_34IDE\\Brian\Particle1\OCV\Data_0134.tif
2-Theta Angle (Degrees)
Intensity
       2000
 0.01725  0.0000000E+00
 0.04025  0.0000000E+00
 0.06325  0.0000000E+00
 0.08625  0.0000000E+00
 0.10925  0.0000000E+00
 0.13225  0.0000000E+00
 0.15525  0.0000000E+00
 0.17825  0.0000000E+00
 0.20125  0.0000000E+00
 0.22425  0.0000000E+00
 0.24725  0.0000000E+00
 0.27025  0.0000000E+00
 0.29325  0.0000000E+00
 0.31625  0.0000000E+00
 0.33925  0.0000000E+00
 0.36225  0.0000000E+00
 0.38525  0.0000000E+00
 0.40825  0.0000000E+00
 0.43125  0.0000000E+00
 0.45425  0.0000000E+00
 0.47725  0.0000000E+00
 0.50025  0.0000000E+00
 0.52325  0.0000000E+00
 0.54625  0.0000000E+00
 0.56925  0.0000000E+00
 0.59225  0.0000000E+00
 0.61525  0.0000000E+00
 0.63825  0.0000000E+00
 0.66125  0.0000000E+00
 0.68425  0.0000000E+00
 0.70725  0.0000000E+00
 0.73025  0.0000000E+00
 0.75325  0.0000000E+00
 0.77625  0.0000000E+00
 0.79925  0.0000000E+00
 0.82225  0.0000000E+00
 0.84525  0.0000000E+00
 0.86825  0.0000000E+00
 0.89125  0.0000000E+00
 0.91425  0.0000000E+00
 0.93725  0.0000000E+00
 0.96025  0.0000000E+00
 0.98325  0.0000000E+00
 1.00625  0.0000000E+00
 1.02925  0.0000000E+00
 1.05225  0.0000000E+00
 1.07525  0.0000000E+00
 1.09825  0.0000000E+00
 1.12125  0.0000000E+00
 1.14425  0.0000000E+00
 1.16725  0.0000000E+00
 1.19025  0.0000000E+00
 1.21325  0.0000000E+00
 1.23625  0.0000000E+00
 1.25925  0.0000000E+00
 1.28225  0.0000000E+00
 1.30525  0.0000000E+00
 1.32825  0.0000000E+00
 1.35125  0.0000000E+00
 1.37425  0.0000000E+00
 1.39725  0.0000000E+00
 1.42025  0.0000000E+00
 1.44325  0.0000000E+00
 1.46625  0.0000000E+00
 1.48925  0.0000000E+00
 1.51225  0.0000000E+00
 1.53525  0.0000000E+00
 1.55825  0.0000000E+00
 1.58125  0.0000000E+00
 1.60425  0.0000000E+00
 1.62725  0.0000000E+00
 1.65025  0.0000000E+00
 1.67325  0.0000000E+00
 1.69625  0.0000000E+00
 1.71925  0.0000000E+00
 1.74225  0.0000000E+00
 1.76525  0.0000000E+00
 1.78825  0.0000000E+00
 1.81125  0.0000000E+00
 1.83425  0.0000000E+00
 1.85725  0.0000000E+00
 1.88025  0.0000000E+00
 1.90325  0.0000000E+00
 1.92625  0.0000000E+00
 1.94925  0.0000000E+00
 1.97225  0.0000000E+00
 1.99525  0.0000000E+00
 2.01825  0.0000000E+00
 2.04125  0.0000000E+00
 2.06425  0.0000000E+00
 2.08725  0.0000000E+00
 2.11025  0.0000000E+00
 2.13325  0.0000000E+00
 2.15625  0.0000000E+00
 2.17925  0.0000000E+00
 2.20225  0.0000000E+00
 2.22525  0.0000000E+00
 2.24825  0.0000000E+00
 2.27125  0.0000000E+00
 2.29425  0.0000000E+00
 2.31725  0.0000000E+00
 2.34025  0.0000000E+00
 2.36325  0.0000000E+00
 2.38625  0.0000000E+00
 2.40925  0.0000000E+00
 2.43225  0.0000000E+00
 2.45525  0.0000000E+00
 2.47825  0.0000000E+00
 2.50125  0.0000000E+00
 2.52425  0.0000000E+00
 2.54725  0.0000000E+00
 2.57025  0.0000000E+00
 2.59325  0.0000000E+00
 2.61625  0.0000000E+00
 2.63925  0.0000000E+00
 2.66225  0.0000000E+00
 2.68525  0.0000000E+00
 2.70825  0.0000000E+00
 2.73125  0.0000000E+00
 2.75425  0.0000000E+00
 2.77725  0.0000000E+00
 2.80025  0.0000000E+00
 2.82325  31.5436
 2.84625  32.5164
 2.86925  33.6002
 2.89225  34.7234
 2.91525  35.689
 2.93825  36.2371
 2.96125  36.3483
 2.98425  36.1183
 3.00725  35.9619
 3.03025  35.3817
 3.05325  35.1954
 3.07625  34.3781
 3.09925  34.1994
 3.12225  34.0647
 3.14525  34.4782
 3.16825  35.2039
 3.19125  35.0243
 3.21425  35.1797
 3.23725  35.2546
 3.26025  35.2384
 3.28325  35.2784
 3.30625  35.0805
 3.32925  34.588
 3.35225  34.4175
 3.37525  34.025
 3.39825  34.108
 3.42125  34.2053
 3.44425  34.3601
 3.46725  34.5355
 3.49025  34.5621
 3.51325  33.9899
 3.53625  33.8531
 3.55925  33.9651
 3.58225  33.9337
 3.60525  33.766
 3.62825  33.7439
 3.65125  33.5559
 3.67425  33.4991
 3.69725  33.5114
 3.72025  33.3893
 3.74325  33.3341
 3.76625  33.2296
 3.78925  32.874
 3.81225  32.5561
 3.83525  32.564
 3.85825  32.5718
 3.88125  32.5716
 3.90425  32.2624
 3.92725  32.3154
 3.95025  32.2618
 3.97325  32.5918
 3.99625  32.9557
 4.01925  32.9791
 4.04225  32.5762
 4.06525  32.2128
 4.08825  32.0287
 4.11125  32.3679
 4.13425  32.3909
 4.15725  32.5074
 4.18025  32.0906
 4.20325  31.9353
 4.22625  32.0292
 4.24925  32.1489
 4.27225  32.5104
 4.29525  32.7978
 4.31825  32.7636
 4.34125  32.4311
 4.36425  32.3856
 4.38725  32.5087
 4.41025  32.4996
 4.43325  32.411
 4.45625  32.3728
 4.47925  32.4662
 4.50225  32.512
 4.52525  32.4862
 4.54825  32.3193
 4.57125  32.3526
 4.59425  32.3201
 4.61725  32.4513
 4.64025  32.625
 4.66325  33.0175
 4.68625  33.1166
 4.70925  32.9679
 4.73225  32.7167
 4.75525  32.6298
 4.77825  32.6741
 4.80125  32.4809
 4.82425  32.2547
 4.84725  32.3171
 4.87025  32.6028
 4.89325  32.8147
 4.91625  32.965
 4.93925  33.1142
 4.96225  32.9917
 4.98525  32.95
 5.00825  33.0473
 5.03125  33.1256
 5.05425  33.2206
 5.07725  33.4333
 5.10025  33.6129
 5.12325  33.7032
 5.14625  33.8
 5.16925  33.9447
 5.19225  34.1452
 5.21525  34.1068
 5.23825  34.1184
 5.26125  33.8596
 5.28425  33.8642
 5.30725  33.8978
 5.33025  33.9573
 5.35325  34.062
 5.37625  34.1578
 5.39925  34.2191
 5.42225  34.1194
 5.44525  34.0052
 5.46825  34.1909
 5.49125  34.4635
 5.51425  34.6496
 5.53725  34.7891
 5.56025  34.7264
 5.58325  34.7884
 5.60625  34.878
 5.62925  34.7598
 5.65225  34.8593
 5.67525  35.1693
 5.69825  35.4999
 5.72125  35.5167
 5.74425  35.3421
 5.76725  35.1946
 5.79025  35.2633
 5.81325  35.5168
 5.83625  35.7903
 5.85925  35.7111
 5.88225  35.8916
 5.90525  36.1641
 5.92825  36.4731
 5.95125  37.4963
 5.97425  38.3602
 5.99725  38.1764
 6.02025  37.4556
 6.04325  36.916
 6.06625  36.8355
 6.08925  36.7386
 6.11225  36.7868
 6.13525  36.8583
 6.15825  36.7825
 6.18125  36.7864
 6.20425  36.8307
 6.22725  37.0589
 6.25025  37.2184
 6.27325  37.4526
 6.29625  37.7961
 6.31925  37.8864
 6.34225  38.0111
 6.36525  38.0766
 6.38825  38.2031
 6.41125  38.5454
 6.43425  38.704
 6.45725  38.8705
 6.48025  38.9246
 6.50325  38.9813
 6.52625  39.1322
 6.54925  39.3656
 6.57225  39.4995
 6.59525  39.5122
 6.61825  39.5996
 6.64125  39.8544
 6.66425  40.0655
 6.68725  40.153
 6.71025  40.2345
 6.73325  40.393
 6.75625  40.6168
 6.77925  40.9011
 6.80225  41.1366
 6.82525  41.4337
 6.84825  41.5929
 6.87125  41.6962
 6.89425  41.5966
 6.91725  41.7047
 6.94025  41.9062
 6.96325  42.0842
 6.98625  42.2741
 7.00925  42.3299
 7.03225  42.4032
 7.05525  42.5095
 7.07825  42.7421
 7.10125  42.8631
 7.12425  43.0896
 7.14725  43.0217
 7.17025  42.9798
 7.19325  43.0772
 7.21625  43.2821
 7.23925  43.4455
 7.26225  43.4846
 7.28525  43.5741
 7.30825  43.6272
 7.33125  43.7598
 7.35425  43.8291
 7.37725  43.8115
 7.40025  43.9142
 7.42325  44.2359
 7.44625  44.2383
 7.46925  44.2103
 7.49225  44.2058
 7.51525  44.2697
 7.53825  44.2966
 7.56125  44.3081
 7.58425  44.4104
 7.60725  44.36
 7.63025  44.3941
 7.65325  44.3245
 7.67625  44.2601
 7.69925  44.3038
 7.72225  44.2567
 7.74525  44.2839
 7.76825  44.318
 7.79125  44.3321
 7.81425  44.3118
 7.83725  44.3766
 7.86025  44.3434
 7.88325  44.0789
 7.90625  43.9121
 7.92925  43.7376
 7.95225  43.4585
 7.97525  43.3802
 7.99825  43.416
 8.02125  43.2101
 8.04425  43.142
 8.06725  42.9622
 8.09025  42.9333
 8.11325  42.9787
 8.13625  42.6642
 8.15925  42.4195
 8.18225  42.165
 8.20525  42.1035
 8.22825  41.9851
 8.25125  41.7756
 8.27425  41.4109
 8.29725  40.972
 8.32025  40.6375
 8.34325  40.3396
 8.36625  40.2179
 8.38925  39.9596
 8.41225  39.443
 8.43525  38.8902
 8.45825  38.6631
 8.48125  38.3231
 8.50425  37.8618
 8.52725  37.4191
 8.55025  37.0514
 8.57325  36.7483
 8.59625  36.4464
 8.61925  36.0832
 8.64225  35.7189
 8.66525  35.359
 8.68825  35.2504
 8.71125  35.0251
 8.73425  34.7155
 8.75725  34.2621
 8.78025  33.9162
 8.80325  33.5602
 8.82625  33.2264
 8.84925  32.8241
 8.87225  32.5461
 8.89525  32.0426
 8.91825  31.6369
 8.94125  31.3721
 8.96425  31.166
 8.98725  30.9907
 9.01025  30.7701
 9.03325  30.367
 9.05625  30.0039
 9.07925  29.7117
 9.10225  29.5655
 9.12525  29.4639
 9.14825  29.2655
 9.17125  28.9944
 9.19425  28.7427
 9.21725  28.5228
 9.24025  28.353
 9.26325  28.1054
 9.28625  27.7544
 9.30925  27.6469
 9.33225  27.541
 9.35525  27.2792
 9.37825  27.1744
 9.40125  27.033
 9.42425  26.8403
 9.44725  26.5772
 9.47025  26.481
 9.49325  26.4479
 9.51625  26.2617
 9.53925  26.114
 9.56225  25.9407
 9.58525  25.8127
 9.60825  25.8137
 9.63125  25.6898
 9.65425  25.5393
 9.67725  25.3486
 9.70025  25.2839
 9.72325  25.3062
 9.74625  25.1966
 9.76925  25.0693
 9.79225  24.9378
 9.81525  24.7949
 9.83825  24.7378
 9.86125  24.6205
 9.88425  24.446
 9.90725  24.3907
 9.93025  24.4525
 9.95325  24.3585
 9.97625  24.188
 9.99925  24.1211
 10.0222  24.0567
 10.0453  23.9882
 10.0683  23.8663
 10.0913  23.7828
 10.1143  23.8432
 10.1373  23.782
 10.1603  23.812
 10.1832  23.8453
 10.2063  23.7375
 10.2293  23.6823
 10.2523  23.5765
 10.2752  23.6184
 10.2982  23.5967
 10.3213  23.5052
 10.3443  23.335
 10.3673  23.2828
 10.3902  23.368
 10.4133  23.4299
 10.4363  23.3042
 10.4593  23.1466
 10.4823  23.1345
 10.5053  23.0804
 10.5283  23.024
 10.5512  23.0649
 10.5742  23.1151
 10.5973  23.0532
 10.6203  23.0029
 10.6433  23.0131
 10.6662  22.9689
 10.6893  22.8822
 10.7123  22.8911
 10.7353  22.769
 10.7583  22.7196
 10.7813  22.7178
 10.8043  22.724
 10.8272  22.7117
 10.8503  22.7316
 10.8733  22.7125
 10.8963  22.5784
 10.9192  22.5605
 10.9422  22.5109
 10.9653  22.5141
 10.9883  22.5558
 11.0113  22.422
 11.0343  22.3498
 11.0573  22.2881
 11.0803  22.3021
 11.1033  22.2748
 11.1263  22.1436
 11.1493  22.1424
 11.1723  22.2372
 11.1953  22.2052
 11.2182  22.2292
 11.2413  22.3351
 11.2643  22.374
 11.2873  22.2025
 11.3102  22.071
 11.3333  22.2206
 11.3563  22.2762
 11.3793  22.3127
 11.4023  22.3987
 11.4253  22.4743
 11.4483  22.4823
 11.4713  22.5034
 11.4942  22.325
 11.5173  22.2606
 11.5403  22.5147
 11.5633  22.9719
 11.5862  23.2542
 11.6093  23.1839
 11.6323  22.8839
 11.6553  22.6404
 11.6783  22.4341
 11.7013  22.3298
 11.7243  22.2832
 11.7473  22.3598
 11.7703  22.3966
 11.7933  22.2967
 11.8163  22.337
 11.8393  22.3078
 11.8622  22.338
 11.8853  22.3498
 11.9083  22.3254
 11.9313  22.3732
 11.9543  22.4379
 11.9773  22.539
 12.0003  22.6179
 12.0233  22.6752
 12.0463  22.6353
 12.0693  22.6102
 12.0923  22.6462
 12.1153  22.6122
 12.1382  22.5974
 12.1613  22.5706
 12.1843  22.4967
 12.2073  22.4857
 12.2302  22.4232
 12.2533  22.3698
 12.2763  22.2798
 12.2993  22.2463
 12.3223  22.2817
 12.3453  22.3817
 12.3683  22.2741
 12.3913  22.225
 12.4142  22.3321
 12.4373  22.4956
 12.4603  22.5009
 12.4833  22.5093
 12.5062  22.4358
 12.5292  22.5226
 12.5523  22.6086
 12.5753  22.5714
 12.5983  22.542
 12.6212  22.6645
 12.6443  22.6979
 12.6673  22.7407
 12.6903  22.7838
 12.7133  22.8109
 12.7363  22.7955
 12.7593  22.8653
 12.7822  22.9328
 12.8052  22.9387
 12.8283  23.089
 12.8513  23.1618
 12.8742  23.2556
 12.8972  23.3847
 12.9203  23.5092
 12.9433  23.5655
 12.9663  23.5948
 12.9893  23.6919
 13.0123  23.772
 13.0353  23.9346
 13.0582  24.2145
 13.0813  24.4929
 13.1043  24.7474
 13.1273  25.0102
 13.1502  25.216
 13.1732  25.3912
 13.1963  25.6216
 13.2193  25.8376
 13.2423  26.053
 13.2652  26.2456
 13.2883  26.5027
 13.3113  26.849
 13.3343  27.1552
 13.3573  27.5162
 13.3803  27.8099
 13.4033  28.0679
 13.4262  28.1925
 13.4492  28.4274
 13.4723  28.6641
 13.4953  29.0144
 13.5183  29.1754
 13.5412  29.2969
 13.5643  29.3869
 13.5873  29.3893
 13.6103  29.4099
 13.6333  29.4298
 13.6563  29.4852
 13.6793  29.5697
 13.7022  29.4936
 13.7253  29.3749
 13.7483  29.2843
 13.7713  29.2605
 13.7942  29.1214
 13.8172  28.9443
 13.8403  28.8128
 13.8633  28.7345
 13.8863  28.7405
 13.9093  29.022
 13.9323  29.5298
 13.9553  29.892
 13.9783  29.7677
 14.0013  29.0206
 14.0243  28.4733
 14.0473  27.7545
 14.0703  27.5516
 14.0932  27.315
 14.1163  27.0199
 14.1393  26.8464
 14.1623  26.7319
 14.1852  26.706
 14.2083  26.5668
 14.2313  26.3853
 14.2543  26.1856
 14.2773  26.0992
 14.3003  26.0319
 14.3233  26.0763
 14.3463  26.042
 14.3692  25.89
 14.3923  25.6735
 14.4153  25.6843
 14.4383  25.6631
 14.4612  25.5099
 14.4843  25.4369
 14.5073  25.4675
 14.5303  25.4331
 14.5533  25.3124
 14.5763  25.1681
 14.5993  25.1532
 14.6223  25.133
 14.6453  25.1272
 14.6683  24.9707
 14.6913  24.8752
 14.7143  24.8407
 14.7372  24.8921
 14.7603  24.8821
 14.7833  24.8643
 14.8063  24.8287
 14.8293  24.792
 14.8523  24.7415
 14.8753  24.6864
 14.8983  24.7569
 14.9213  24.7629
 14.9443  24.7332
 14.9673  24.6642
 14.9903  24.572
 15.0132  24.5884
 15.0363  24.6344
 15.0593  24.6075
 15.0823  24.5501
 15.1052  24.5498
 15.1283  24.5424
 15.1513  24.664
 15.1743  24.7769
 15.1973  24.7023
 15.2203  24.6843
 15.2433  24.56
 15.2663  24.4612
 15.2892  24.4142
 15.3123  24.4073
 15.3353  24.381
 15.3583  24.367
 15.3812  24.3333
 15.4043  24.368
 15.4273  24.2928
 15.4503  24.2563
 15.4733  24.3186
 15.4963  24.3574
 15.5193  24.3993
 15.5423  24.3203
 15.5653  24.3412
 15.5883  24.397
 15.6113  24.3956
 15.6343  24.2954
 15.6572  24.2828
 15.6803  24.3556
 15.7033  24.3554
 15.7263  24.3356
 15.7492  24.3289
 15.7723  24.3934
 15.7953  24.3887
 15.8183  24.3958
 15.8413  24.3788
 15.8643  24.354
 15.8873  24.4751
 15.9103  24.4746
 15.9332  24.4887
 15.9563  24.4873
 15.9793  24.5068
 16.0023  24.4978
 16.0253  24.556
 16.0482  24.6109
 16.0713  24.5766
 16.0943  24.5307
 16.1172  24.6275
 16.1403  24.6452
 16.1633  24.7704
 16.1863  25.1755
 16.2093  26.0799
 16.2323  27.7277
 16.2553  29.0196
 16.2783  28.0151
 16.3012  25.9519
 16.3243  24.8864
 16.3472  24.6056
 16.3703  24.5163
 16.3933  24.5723
 16.4163  24.8009
 16.4393  24.7434
 16.4623  24.6191
 16.4853  24.5446
 16.5083  24.5379
 16.5312  24.4978
 16.5543  24.4982
 16.5773  24.4461
 16.6002  24.4494
 16.6233  24.3943
 16.6463  24.3434
 16.6693  24.2716
 16.6923  24.2562
 16.7153  24.1961
 16.7383  24.2348
 16.7613  24.201
 16.7843  24.1697
 16.8073  24.1855
 16.8303  24.1789
 16.8533  24.1799
 16.8763  24.231
 16.8992  24.2816
 16.9223  24.216
 16.9453  24.2077
 16.9683  24.1969
 16.9913  24.1745
 17.0143  24.4562
 17.0373  24.8597
 17.0603  25.0093
 17.0832  24.0927
 17.1063  24.0497
 17.1293  24.0702
 17.1522  24.0299
 17.1753  24.0122
 17.1983  24.0682
 17.2213  23.9603
 17.2443  23.8611
 17.2673  23.8511
 17.2903  23.9846
 17.3133  24.0356
 17.3362  24.0111
 17.3593  23.8681
 17.3823  23.8566
 17.4053  23.8193
 17.4283  23.7707
 17.4513  23.7499
 17.4743  23.7268
 17.4973  23.6796
 17.5203  23.6053
 17.5433  23.6281
 17.5663  23.588
 17.5893  23.5778
 17.6123  23.771
 17.6352  23.7214
 17.6583  23.6376
 17.6813  23.6473
 17.7042  23.6313
 17.7273  23.5124
 17.7503  23.4903
 17.7733  23.5433
 17.7963  23.6236
 17.8193  23.5686
 17.8423  23.4636
 17.8653  23.4791
 17.8882  23.4548
 17.9113  23.4738
 17.9343  23.5247
 17.9573  23.4597
 17.9803  23.561
 18.0033  23.6708
 18.0263  23.608
 18.0493  23.6204
 18.0723  23.6516
 18.0953  23.815
 18.1183  23.8677
 18.1413  23.7577
 18.1643  23.518
 18.1872  23.3161
 18.2103  23.3313
 18.2333  23.403
 18.2563  23.4005
 18.2793  23.3956
 18.3023  23.3351
 18.3253  23.3089
 18.3483  23.4304
 18.3712  23.533
 18.3943  23.4728
 18.4173  23.4075
 18.4402  23.3517
 18.4633  23.3645
 18.4863  23.4718
 18.5093  23.5203
 18.5323  23.4074
 18.5553  23.2683
 18.5783  23.2845
 18.6013  23.2756
 18.6242  23.2899
 18.6473  23.2805
 18.6703  23.2505
 18.6933  23.202
 18.7163  23.1879
 18.7392  23.1866
 18.7623  23.227
 18.7853  23.2838
 18.8083  23.342
 18.8313  23.3018
 18.8543  23.277
 18.8773  23.3124
 18.9003  23.3187
 18.9232  23.3282
 18.9463  23.3706
 18.9693  23.3022
 18.9922  23.2735
 19.0153  23.2846
 19.0383  23.232
 19.0613  23.2322
 19.0843  23.3067
 19.1073  23.227
 19.1303  23.2408
 19.1533  23.2749
 19.1762  23.2087
 19.1993  23.2257
 19.2223  23.2722
 19.2453  23.1682
 19.2683  23.2626
 19.2913  23.2762
 19.3143  23.3324
 19.3373  23.3576
 19.3603  23.3288
 19.3833  23.3381
 19.4062  23.4145
 19.4293  23.3866
 19.4523  23.3024
 19.4752  23.2556
 19.4983  23.3
 19.5213  23.3721
 19.5443  23.881
 19.5673  24.0533
 19.5903  23.8411
 19.6133  23.5129
 19.6363  23.5626
 19.6593  23.6622
 19.6823  23.7962
 19.7053  23.9125
 19.7283  23.9009
 19.7513  23.9497
 19.7742  23.8039
 19.7973  23.8059
 19.8203  23.8853
 19.8433  24.0822
 19.8663  24.2326
 19.8893  24.2472
 19.9123  23.9666
 19.9353  23.6228
 19.9582  23.4817
 19.9813  23.4833
 20.0043  23.5449
 20.0272  23.5312
 20.0503  23.5198
 20.0733  23.4915
 20.0963  23.5637
 20.1193  23.6168
 20.1423  23.4526
 20.1653  23.389
 20.1883  23.3912
 20.2112  23.3891
 20.2343  23.3993
 20.2573  23.3848
 20.2803  23.3791
 20.3033  23.4024
 20.3263  23.3675
 20.3493  23.3459
 20.3723  23.457
 20.3953  23.5401
 20.4183  23.5884
 20.4413  23.5944
 20.4643  23.6474
 20.4873  23.6334
 20.5102  23.5561
 20.5333  23.4848
 20.5563  23.5203
 20.5792  23.4596
 20.6023  23.4745
 20.6253  23.5453
 20.6483  23.5758
 20.6713  23.5621
 20.6943  23.6533
 20.7173  23.777
 20.7403  23.9368
 20.7632  24.0783
 20.7863  24.0052
 20.8093  23.8857
 20.8323  23.7429
 20.8553  23.7169
 20.8783  23.6621
 20.9013  23.6323
 20.9243  23.5772
 20.9473  23.5633
 20.9703  23.6106
 20.9933  23.582
 21.0163  23.5207
 21.0393  23.5428
 21.0622  23.5935
 21.0853  23.6798
 21.1083  23.5958
 21.1313  23.6192
 21.1543  23.5387
 21.1773  23.5493
 21.2003  23.5508
 21.2233  23.5456
 21.2462  23.6517
 21.2693  23.6781
 21.2923  23.6716
 21.3152  23.613
 21.3383  23.6974
 21.3613  23.8101
 21.3843  23.7198
 21.4073  23.7067
 21.4303  23.7085
 21.4533  23.8024
 21.4763  23.7958
 21.4992  23.7618
 21.5223  23.8443
 21.5453  23.8903
 21.5683  23.7898
 21.5913  23.7273
 21.6142  23.7813
 21.6373  23.8838
 21.6603  23.9019
 21.6833  23.8672
 21.7063  23.8982
 21.7293  23.8492
 21.7523  23.8167
 21.7753  23.768
 21.7982  23.8769
 21.8213  23.9901
 21.8443  23.9211
 21.8672  23.9664
 21.8903  24.0589
 21.9133  24.1067
 21.9363  24.0514
 21.9593  24.0625
 21.9823  24.0293
 22.0053  23.9867
 22.0283  23.9496
 22.0512  24.0108
 22.0743  24.0192
 22.0973  24.0623
 22.1203  24.1634
 22.1433  24.165
 22.1663  24.1235
 22.1893  24.1467
 22.2123  24.1399
 22.2353  24.1889
 22.2583  24.2223
 22.2813  24.2664
 22.3043  24.332
 22.3273  24.2906
 22.3502  24.3168
 22.3733  24.3575
 22.3963  24.2956
 22.4193  24.1694
 22.4423  24.3419
 22.4653  24.4352
 22.4883  24.3844
 22.5113  24.4522
 22.5343  24.5417
 22.5573  24.6069
 22.5803  24.6133
 22.6033  24.6417
 22.6263  24.7332
 22.6493  24.7636
 22.6723  24.8414
 22.6953  24.9634
 22.7183  24.9166
 22.7413  24.8925
 22.7643  24.9947
 22.7873  25.107
 22.8103  25.23
 22.8333  25.3188
 22.8563  25.2347
 22.8793  25.4024
 22.9022  25.5423
 22.9253  25.6511
 22.9483  25.7009
 22.9713  25.7797
 22.9943  26.0478