File: test-data-xrd/xrd-map-34-ID-E/Data_0088.chi
F:\20151113_APS_34IDE\\Brian\Particle1\OCV\Data_0088.tif
2-Theta Angle (Degrees)
Intensity
       2000
 0.01725  0.0000000E+00
 0.04025  0.0000000E+00
 0.06325  0.0000000E+00
 0.08625  0.0000000E+00
 0.10925  0.0000000E+00
 0.13225  0.0000000E+00
 0.15525  0.0000000E+00
 0.17825  0.0000000E+00
 0.20125  0.0000000E+00
 0.22425  0.0000000E+00
 0.24725  0.0000000E+00
 0.27025  0.0000000E+00
 0.29325  0.0000000E+00
 0.31625  0.0000000E+00
 0.33925  0.0000000E+00
 0.36225  0.0000000E+00
 0.38525  0.0000000E+00
 0.40825  0.0000000E+00
 0.43125  0.0000000E+00
 0.45425  0.0000000E+00
 0.47725  0.0000000E+00
 0.50025  0.0000000E+00
 0.52325  0.0000000E+00
 0.54625  0.0000000E+00
 0.56925  0.0000000E+00
 0.59225  0.0000000E+00
 0.61525  0.0000000E+00
 0.63825  0.0000000E+00
 0.66125  0.0000000E+00
 0.68425  0.0000000E+00
 0.70725  0.0000000E+00
 0.73025  0.0000000E+00
 0.75325  0.0000000E+00
 0.77625  0.0000000E+00
 0.79925  0.0000000E+00
 0.82225  0.0000000E+00
 0.84525  0.0000000E+00
 0.86825  0.0000000E+00
 0.89125  0.0000000E+00
 0.91425  0.0000000E+00
 0.93725  0.0000000E+00
 0.96025  0.0000000E+00
 0.98325  0.0000000E+00
 1.00625  0.0000000E+00
 1.02925  0.0000000E+00
 1.05225  0.0000000E+00
 1.07525  0.0000000E+00
 1.09825  0.0000000E+00
 1.12125  0.0000000E+00
 1.14425  0.0000000E+00
 1.16725  0.0000000E+00
 1.19025  0.0000000E+00
 1.21325  0.0000000E+00
 1.23625  0.0000000E+00
 1.25925  0.0000000E+00
 1.28225  0.0000000E+00
 1.30525  0.0000000E+00
 1.32825  0.0000000E+00
 1.35125  0.0000000E+00
 1.37425  0.0000000E+00
 1.39725  0.0000000E+00
 1.42025  0.0000000E+00
 1.44325  0.0000000E+00
 1.46625  0.0000000E+00
 1.48925  0.0000000E+00
 1.51225  0.0000000E+00
 1.53525  0.0000000E+00
 1.55825  0.0000000E+00
 1.58125  0.0000000E+00
 1.60425  0.0000000E+00
 1.62725  0.0000000E+00
 1.65025  0.0000000E+00
 1.67325  0.0000000E+00
 1.69625  0.0000000E+00
 1.71925  0.0000000E+00
 1.74225  0.0000000E+00
 1.76525  0.0000000E+00
 1.78825  0.0000000E+00
 1.81125  0.0000000E+00
 1.83425  0.0000000E+00
 1.85725  0.0000000E+00
 1.88025  0.0000000E+00
 1.90325  0.0000000E+00
 1.92625  0.0000000E+00
 1.94925  0.0000000E+00
 1.97225  0.0000000E+00
 1.99525  0.0000000E+00
 2.01825  0.0000000E+00
 2.04125  0.0000000E+00
 2.06425  0.0000000E+00
 2.08725  0.0000000E+00
 2.11025  0.0000000E+00
 2.13325  0.0000000E+00
 2.15625  0.0000000E+00
 2.17925  0.0000000E+00
 2.20225  0.0000000E+00
 2.22525  0.0000000E+00
 2.24825  0.0000000E+00
 2.27125  0.0000000E+00
 2.29425  0.0000000E+00
 2.31725  0.0000000E+00
 2.34025  0.0000000E+00
 2.36325  0.0000000E+00
 2.38625  0.0000000E+00
 2.40925  0.0000000E+00
 2.43225  0.0000000E+00
 2.45525  0.0000000E+00
 2.47825  0.0000000E+00
 2.50125  0.0000000E+00
 2.52425  0.0000000E+00
 2.54725  0.0000000E+00
 2.57025  0.0000000E+00
 2.59325  0.0000000E+00
 2.61625  0.0000000E+00
 2.63925  0.0000000E+00
 2.66225  0.0000000E+00
 2.68525  0.0000000E+00
 2.70825  0.0000000E+00
 2.73125  0.0000000E+00
 2.75425  0.0000000E+00
 2.77725  0.0000000E+00
 2.80025  0.0000000E+00
 2.82325  34.83
 2.84625  33.9971
 2.86925  33.9492
 2.89225  34.1274
 2.91525  34.7481
 2.93825  35.6452
 2.96125  35.8618
 2.98425  35.3986
 3.00725  35.4232
 3.03025  35.4167
 3.05325  35.9116
 3.07625  35.186
 3.09925  34.8708
 3.12225  34.5696
 3.14525  34.6179
 3.16825  35.5628
 3.19125  36.2059
 3.21425  36.2981
 3.23725  35.5924
 3.26025  34.8133
 3.28325  34.4791
 3.30625  34.7658
 3.32925  35.2291
 3.35225  35.0359
 3.37525  34.8914
 3.39825  34.8991
 3.42125  35.4373
 3.44425  35.0829
 3.46725  34.8071
 3.49025  34.7039
 3.51325  34.3805
 3.53625  34.0731
 3.55925  33.7569
 3.58225  33.5018
 3.60525  33.3535
 3.62825  33.36
 3.65125  33.425
 3.67425  33.6037
 3.69725  33.5045
 3.72025  33.4488
 3.74325  33.542
 3.76625  33.2887
 3.78925  32.7842
 3.81225  32.65
 3.83525  33.0572
 3.85825  32.9681
 3.88125  32.661
 3.90425  32.2777
 3.92725  32.5913
 3.95025  32.7954
 3.97325  32.8641
 3.99625  33.1645
 4.01925  32.9034
 4.04225  32.5755
 4.06525  32.4148
 4.08825  32.6628
 4.11125  32.872
 4.13425  32.7428
 4.15725  32.6718
 4.18025  32.3712
 4.20325  32.3246
 4.22625  32.291
 4.24925  32.1645
 4.27225  32.057
 4.29525  32.2231
 4.31825  32.2987
 4.34125  32.5328
 4.36425  32.6504
 4.38725  32.607
 4.41025  32.7098
 4.43325  32.6054
 4.45625  32.4566
 4.47925  32.5284
 4.50225  32.62
 4.52525  32.774
 4.54825  32.8993
 4.57125  32.7658
 4.59425  32.7852
 4.61725  32.9111
 4.64025  32.7081
 4.66325  32.7763
 4.68625  32.8884
 4.70925  33.2536
 4.73225  32.9165
 4.75525  32.5468
 4.77825  32.57
 4.80125  32.9521
 4.82425  32.9327
 4.84725  32.7752
 4.87025  32.8657
 4.89325  32.7722
 4.91625  32.9271
 4.93925  33.2041
 4.96225  33.1241
 4.98525  33.2412
 5.00825  33.414
 5.03125  33.3509
 5.05425  33.1766
 5.07725  33.0698
 5.10025  33.2712
 5.12325  33.4869
 5.14625  33.9366
 5.16925  34.195
 5.19225  34.3618
 5.21525  34.1603
 5.23825  34.0169
 5.26125  34.1132
 5.28425  34.1718
 5.30725  34.3272
 5.33025  34.5437
 5.35325  34.6372
 5.37625  34.7806
 5.39925  34.7856
 5.42225  34.6705
 5.44525  34.6133
 5.46825  34.762
 5.49125  34.915
 5.51425  35.0563
 5.53725  34.9891
 5.56025  35.0252
 5.58325  35.3034
 5.60625  35.7409
 5.62925  35.7858
 5.65225  35.5527
 5.67525  35.5183
 5.69825  35.4984
 5.72125  35.519
 5.74425  35.5835
 5.76725  35.8598
 5.79025  36.0616
 5.81325  35.9927
 5.83625  35.8006
 5.85925  35.7919
 5.88225  35.965
 5.90525  36.3649
 5.92825  37.3813
 5.95125  40.2435
 5.97425  44.8275
 5.99725  45.0676
 6.02025  40.9693
 6.04325  38.1127
 6.06625  37.2139
 6.08925  37.1562
 6.11225  37.2969
 6.13525  37.1665
 6.15825  37.0616
 6.18125  37.0733
 6.20425  37.1467
 6.22725  37.3965
 6.25025  37.5113
 6.27325  37.6542
 6.29625  37.931
 6.31925  38.3347
 6.34225  38.6606
 6.36525  38.8077
 6.38825  38.7712
 6.41125  38.6173
 6.43425  38.5676
 6.45725  38.7452
 6.48025  38.9347
 6.50325  39.3363
 6.52625  39.5505
 6.54925  39.6963
 6.57225  39.8042
 6.59525  39.7579
 6.61825  39.9762
 6.64125  40.2859
 6.66425  40.4975
 6.68725  40.4455
 6.71025  40.5151
 6.73325  40.6615
 6.75625  40.9609
 6.77925  41.2791
 6.80225  41.4399
 6.82525  41.6407
 6.84825  41.6823
 6.87125  41.8808
 6.89425  42.1736
 6.91725  42.438
 6.94025  42.5387
 6.96325  42.7296
 6.98625  43.1046
 7.00925  43.2143
 7.03225  43.0288
 7.05525  43.035
 7.07825  43.0915
 7.10125  43.2518
 7.12425  43.5334
 7.14725  43.6825
 7.17025  43.6172
 7.19325  43.5239
 7.21625  43.5616
 7.23925  43.7819
 7.26225  44.1324
 7.28525  44.4671
 7.30825  44.4656
 7.33125  44.387
 7.35425  44.3847
 7.37725  44.3166
 7.40025  44.0889
 7.42325  44.2087
 7.44625  44.5187
 7.46925  44.5571
 7.49225  44.5378
 7.51525  44.5043
 7.53825  44.5704
 7.56125  44.6991
 7.58425  44.8202
 7.60725  44.8121
 7.63025  44.8002
 7.65325  44.7175
 7.67625  44.5832
 7.69925  44.4705
 7.72225  44.5339
 7.74525  44.7541
 7.76825  44.8297
 7.79125  44.9561
 7.81425  45.0207
 7.83725  44.9675
 7.86025  44.7912
 7.88325  44.5374
 7.90625  44.2583
 7.92925  44.1591
 7.95225  44.0985
 7.97525  44.0821
 7.99825  44.0016
 8.02125  43.8472
 8.04425  43.6634
 8.06725  43.3712
 8.09025  43.3108
 8.11325  43.3216
 8.13625  42.9372
 8.15925  42.7064
 8.18225  42.341
 8.20525  42.0552
 8.22825  41.972
 8.25125  41.8573
 8.27425  41.5219
 8.29725  41.0497
 8.32025  40.7419
 8.34325  40.4205
 8.36625  40.1099
 8.38925  39.901
 8.41225  39.7232
 8.43525  39.4963
 8.45825  39.1164
 8.48125  38.7326
 8.50425  38.5938
 8.52725  38.2462
 8.55025  37.7812
 8.57325  37.4306
 8.59625  37.0526
 8.61925  36.6726
 8.64225  36.3203
 8.66525  35.921
 8.68825  35.6329
 8.71125  35.2812
 8.73425  34.8913
 8.75725  34.4969
 8.78025  34.1793
 8.80325  33.8065
 8.82625  33.426
 8.84925  32.9936
 8.87225  32.608
 8.89525  32.3029
 8.91825  32.1002
 8.94125  31.8583
 8.96425  31.5724
 8.98725  31.21
 9.01025  30.829
 9.03325  30.587
 9.05625  30.4111
 9.07925  30.1726
 9.10225  29.9105
 9.12525  29.6672
 9.14825  29.6127
 9.17125  29.4083
 9.19425  29.1552
 9.21725  28.848
 9.24025  28.5124
 9.26325  28.2698
 9.28625  28.133
 9.30925  27.9979
 9.33225  27.8545
 9.35525  27.6843
 9.37825  27.4579
 9.40125  27.0631
 9.42425  26.9139
 9.44725  26.8885
 9.47025  26.73
 9.49325  26.5549
 9.51625  26.3827
 9.53925  26.3203
 9.56225  26.225
 9.58525  26.0264
 9.60825  25.9296
 9.63125  25.8189
 9.65425  25.7619
 9.67725  25.6079
 9.70025  25.374
 9.72325  25.3804
 9.74625  25.3721
 9.76925  25.2476
 9.79225  25.1737
 9.81525  24.9925
 9.83825  24.8328
 9.86125  24.7983
 9.88425  24.7047
 9.90725  24.7347
 9.93025  24.6612
 9.95325  24.5513
 9.97625  24.5347
 9.99925  24.5238
 10.0222  24.4523
 10.0453  24.3601
 10.0683  24.1988
 10.0913  24.026
 10.1143  24.0135
 10.1373  24.0453
 10.1603  24.0666
 10.1832  24.0464
 10.2063  23.9553
 10.2293  23.8666
 10.2523  23.7824
 10.2752  23.7619
 10.2982  23.7994
 10.3213  23.7759
 10.3443  23.6249
 10.3673  23.4762
 10.3902  23.4257
 10.4133  23.3648
 10.4363  23.1954
 10.4593  23.1833
 10.4823  23.3128
 10.5053  23.4613
 10.5283  23.4171
 10.5512  23.2084
 10.5742  23.0672
 10.5973  22.9286
 10.6203  22.9786
 10.6433  23.0514
 10.6662  23.144
 10.6893  23.0509
 10.7123  23.0861
 10.7353  23.0103
 10.7583  22.907
 10.7813  22.8155
 10.8043  22.8207
 10.8272  22.8314
 10.8503  22.8115
 10.8733  22.7689
 10.8963  22.6882
 10.9192  22.6132
 10.9422  22.6041
 10.9653  22.6193
 10.9883  22.6608
 11.0113  22.6093
 11.0343  22.6089
 11.0573  22.5569
 11.0803  22.499
 11.1033  22.5525
 11.1263  22.5243
 11.1493  22.4852
 11.1723  22.5957
 11.1953  22.6527
 11.2182  22.585
 11.2413  22.513
 11.2643  22.5885
 11.2873  22.5667
 11.3102  22.6056
 11.3333  22.5523
 11.3563  22.4965
 11.3793  22.6046
 11.4023  22.7551
 11.4253  22.7302
 11.4483  22.7531
 11.4713  22.7227
 11.4942  22.7504
 11.5173  23.0047
 11.5403  23.777
 11.5633  25.4683
 11.5862  28.4258
 11.6093  30.3073
 11.6323  28.3643
 11.6553  24.9389
 11.6783  23.1415
 11.7013  22.655
 11.7243  22.5825
 11.7473  22.6158
 11.7703  22.5528
 11.7933  22.4937
 11.8163  22.474
 11.8393  22.4662
 11.8622  22.3566
 11.8853  22.3337
 11.9083  22.483
 11.9313  22.7363
 11.9543  22.9263
 11.9773  23.108
 12.0003  22.9809
 12.0233  22.7467
 12.0463  22.7157
 12.0693  22.8504
 12.0923  23.1096
 12.1153  23.0499
 12.1382  22.8238
 12.1613  22.5923
 12.1843  22.4803
 12.2073  22.399
 12.2302  22.4037
 12.2533  22.5522
 12.2763  22.593
 12.2993  22.5251
 12.3223  22.4947
 12.3453  22.4761
 12.3683  22.5258
 12.3913  22.4937
 12.4142  22.4774
 12.4373  22.5126
 12.4603  22.4977
 12.4833  22.5028
 12.5062  22.4804
 12.5292  22.5591
 12.5523  22.7293
 12.5753  22.7295
 12.5983  22.7762
 12.6212  22.848
 12.6443  22.8437
 12.6673  22.8268
 12.6903  22.8746
 12.7133  22.91
 12.7363  22.9703
 12.7593  23.1159
 12.7822  23.161
 12.8052  23.1008
 12.8283  23.2186
 12.8513  23.2342
 12.8742  23.2767
 12.8972  23.3048
 12.9203  23.5642
 12.9433  23.7614
 12.9663  23.8017
 12.9893  23.8748
 13.0123  23.9111
 13.0353  24.1188
 13.0582  24.3038
 13.0813  24.4833
 13.1043  24.7511
 13.1273  24.9992
 13.1502  25.296
 13.1732  25.4868
 13.1963  25.769
 13.2193  26.0056
 13.2423  26.3575
 13.2652  26.6387
 13.2883  26.9822
 13.3113  27.1661
 13.3343  27.3513
 13.3573  27.6765
 13.3803  27.9344
 13.4033  28.2828
 13.4262  28.5999
 13.4492  28.7509
 13.4723  28.8188
 13.4953  28.9946
 13.5183  29.3077
 13.5412  29.5822
 13.5643  29.7474
 13.5873  29.858
 13.6103  29.8418
 13.6333  29.7857
 13.6563  29.9033
 13.6793  29.9554
 13.7022  29.8227
 13.7253  29.6923
 13.7483  29.5242
 13.7713  29.3928
 13.7942  29.3184
 13.8172  29.2542
 13.8403  29.0885
 13.8633  29.0175
 13.8863  29.173
 13.9093  29.7713
 13.9323  30.6595
 13.9553  31.0219
 13.9783  30.4319
 14.0013  29.2218
 14.0243  28.335
 14.0473  27.9016
 14.0703  27.6364
 14.0932  27.5107
 14.1163  27.372
 14.1393  27.2761
 14.1623  27.0918
 14.1852  26.8504
 14.2083  26.6475
 14.2313  26.5073
 14.2543  26.4796
 14.2773  26.4003
 14.3003  26.3254
 14.3233  26.2802
 14.3463  26.2701
 14.3692  26.1746
 14.3923  26.089
 14.4153  26.0051
 14.4383  25.8816
 14.4612  25.7159
 14.4843  25.6467
 14.5073  25.6669
 14.5303  25.7249
 14.5533  25.6983
 14.5763  25.5574
 14.5993  25.4472
 14.6223  25.3967
 14.6453  25.4083
 14.6683  25.2935
 14.6913  25.2511
 14.7143  25.3068
 14.7372  25.2793
 14.7603  25.2791
 14.7833  25.2595
 14.8063  25.094
 14.8293  25.0463
 14.8523  25.026
 14.8753  24.9353
 14.8983  25.0122
 14.9213  25.03
 14.9443  24.9535
 14.9673  24.952
 14.9903  24.8658
 15.0132  24.898
 15.0363  24.9201
 15.0593  24.8638
 15.0823  24.8452
 15.1052  24.8819
 15.1283  24.8803
 15.1513  25.0874
 15.1743  25.4723
 15.1973  25.5942
 15.2203  25.4763
 15.2433  25.0851
 15.2663  24.8388
 15.2892  24.7957
 15.3123  24.7216
 15.3353  24.6182
 15.3583  24.5632
 15.3812  24.5544
 15.4043  24.4942
 15.4273  24.4563
 15.4503  24.4718
 15.4733  24.4466
 15.4963  24.4258
 15.5193  24.3804
 15.5423  24.4033
 15.5653  24.4893
 15.5883  24.5932
 15.6113  24.655
 15.6343  24.515
 15.6572  24.4571
 15.6803  24.5789
 15.7033  24.655
 15.7263  24.6842
 15.7492  24.5963
 15.7723  24.584
 15.7953  24.5966
 15.8183  24.7102
 15.8413  24.6278
 15.8643  24.5518
 15.8873  24.588
 15.9103  24.6909
 15.9332  24.6827
 15.9563  24.5548
 15.9793  24.6096
 16.0023  24.712
 16.0253  24.7239
 16.0482  24.7468
 16.0713  24.722
 16.0943  24.6867
 16.1172  24.8012
 16.1403  24.8029
 16.1633  24.8802
 16.1863  24.8902
 16.2093  24.907
 16.2323  25.0624
 16.2553  25.1276
 16.2783  25.1157
 16.3012  24.9982
 16.3243  24.9224
 16.3472  24.792
 16.3703  24.6961
 16.3933  24.7461
 16.4163  24.8312
 16.4393  24.8281
 16.4623  24.7291
 16.4853  24.5994
 16.5083  24.6271
 16.5312  24.5742
 16.5543  24.6287
 16.5773  24.6673
 16.6002  24.6042
 16.6233  24.6016
 16.6463  24.6067
 16.6693  24.768
 16.6923  24.8005
 16.7153  24.6911
 16.7383  24.5638
 16.7613  24.5607
 16.7843  24.578
 16.8073  24.5988
 16.8303  24.5438
 16.8533  24.5609
 16.8763  24.4528
 16.8992  24.3258
 16.9223  24.418
 16.9453  24.4661
 16.9683  24.5733
 16.9913  24.5678
 17.0143  24.4494
 17.0373  24.2501
 17.0603  24.1093
 17.0832  24.1161
 17.1063  24.1933
 17.1293  24.1219
 17.1522  24.1026
 17.1753  24.123
 17.1983  24.1605
 17.2213  24.1603
 17.2443  24.1948
 17.2673  24.1149
 17.2903  24.1371
 17.3133  24.2332
 17.3362  24.21
 17.3593  24.1744
 17.3823  24.0107
 17.4053  23.9745
 17.4283  24.0899
 17.4513  24.088
 17.4743  23.9947
 17.4973  23.9949
 17.5203  23.8911
 17.5433  23.818
 17.5663  23.6988
 17.5893  23.718
 17.6123  23.8237
 17.6352  23.7997
 17.6583  23.7119
 17.6813  23.7268
 17.7042  23.751
 17.7273  23.6918
 17.7503  23.7156
 17.7733  23.79
 17.7963  23.839
 17.8193  23.803
 17.8423  23.8128
 17.8653  23.8807
 17.8882  23.8939
 17.9113  23.8426
 17.9343  23.7563
 17.9573  23.6641
 17.9803  23.7391
 18.0033  23.8593
 18.0263  23.8451
 18.0493  23.8641
 18.0723  23.9348
 18.0953  24.0629
 18.1183  23.9876
 18.1413  23.8902
 18.1643  23.7983
 18.1872  23.6374
 18.2103  23.6698
 18.2333  23.7185
 18.2563  23.7196
 18.2793  23.6164
 18.3023  23.5605
 18.3253  23.4969
 18.3483  23.506
 18.3712  23.5956
 18.3943  23.6607
 18.4173  23.634
 18.4402  23.5791
 18.4633  23.5938
 18.4863  23.6109
 18.5093  23.5974
 18.5323  23.6018
 18.5553  23.5531
 18.5783  23.5211
 18.6013  23.5844
 18.6242  23.5965
 18.6473  23.6612
 18.6703  23.566
 18.6933  23.605
 18.7163  23.6161
 18.7392  23.6078
 18.7623  23.6319
 18.7853  23.5919
 18.8083  23.5262
 18.8313  23.5291
 18.8543  23.5344
 18.8773  23.6563
 18.9003  23.6583
 18.9232  23.6412
 18.9463  23.606
 18.9693  23.6162
 18.9922  23.4974
 19.0153  23.5258
 19.0383  23.4669
 19.0613  23.4598
 19.0843  23.5338
 19.1073  23.5583
 19.1303  23.5036
 19.1533  23.5022
 19.1762  23.4931
 19.1993  23.4961
 19.2223  23.5412
 19.2453  23.5735
 19.2683  23.5513
 19.2913  23.4449
 19.3143  23.5037
 19.3373  23.4986
 19.3603  23.496
 19.3833  23.5336
 19.4062  23.5616
 19.4293  23.6353
 19.4523  23.6399
 19.4752  23.6639
 19.4983  23.62
 19.5213  23.6801
 19.5443  23.6809
 19.5673  23.6035
 19.5903  23.5604
 19.6133  23.5483
 19.6363  23.7118
 19.6593  24.0796
 19.6823  24.6036
 19.7053  25.2791
 19.7283  25.3798
 19.7513  24.8509
 19.7742  24.4117
 19.7973  24.2346
 19.8203  24.3905
 19.8433  24.876
 19.8663  25.2525
 19.8893  25.006
 19.9123  24.4899
 19.9353  23.9498
 19.9582  23.6664
 19.9813  23.6541
 20.0043  23.6326
 20.0272  23.637
 20.0503  23.6543
 20.0733  23.5589
 20.0963  23.5924
 20.1193  23.6998
 20.1423  23.6734
 20.1653  23.6693
 20.1883  23.6171
 20.2112  23.5329
 20.2343  23.5976
 20.2573  23.6922
 20.2803  23.7002
 20.3033  23.6743
 20.3263  23.6848
 20.3493  23.7461
 20.3723  23.6921
 20.3953  23.7549
 20.4183  23.8027
 20.4413  23.7156
 20.4643  23.6546
 20.4873  23.6816
 20.5102  23.7245
 20.5333  23.7411
 20.5563  23.8236
 20.5792  23.803
 20.6023  23.8621
 20.6253  23.9069
 20.6483  23.8758
 20.6713  23.8705
 20.6943  23.9881
 20.7173  24.1442
 20.7403  24.5304
 20.7632  25.0678
 20.7863  25.1263
 20.8093  24.6668
 20.8323  24.1555
 20.8553  23.9367
 20.8783  23.9525
 20.9013  23.9812
 20.9243  23.956
 20.9473  23.9445
 20.9703  23.9704
 20.9933  24.1824
 21.0163  23.9521
 21.0393  23.8349
 21.0622  23.8431
 21.0853  23.8322
 21.1083  23.8564
 21.1313  23.8855
 21.1543  23.7756
 21.1773  23.7623
 21.2003  23.8519
 21.2233  23.8453
 21.2462  23.8538
 21.2693  23.8786
 21.2923  23.8473
 21.3152  23.8375
 21.3383  23.8795
 21.3613  23.8553
 21.3843  23.7992
 21.4073  23.8303
 21.4303  23.908
 21.4533  23.9124
 21.4763  23.8478
 21.4992  23.8799
 21.5223  23.8937
 21.5453  23.9505
 21.5683  23.9671
 21.5913  24.0722
 21.6142  24.0706
 21.6373  24.132
 21.6603  24.1423
 21.6833  24.0488
 21.7063  24.0778
 21.7293  24.1306
 21.7523  24.1068
 21.7753  24.0912
 21.7982  24.0902
 21.8213  24.0627
 21.8443  24.0811
 21.8672  24.1878
 21.8903  24.0961
 21.9133  24.06
 21.9363  24.1249
 21.9593  24.196
 21.9823  24.1974
 22.0053  24.2642
 22.0283  24.2497
 22.0512  24.1889
 22.0743  24.1253
 22.0973  24.2197
 22.1203  24.3633
 22.1433  24.3409
 22.1663  24.4025
 22.1893  24.3619
 22.2123  24.3686
 22.2353  24.4292
 22.2583  24.5182
 22.2813  24.465
 22.3043  24.4746
 22.3273  24.4317
 22.3502  24.4852
 22.3733  24.5127
 22.3963  24.4463
 22.4193  24.4641
 22.4423  24.5838
 22.4653  24.6079
 22.4883  24.5226
 22.5113  24.5524
 22.5343  24.6813
 22.5573  24.7572
 22.5803  24.7888
 22.6033  24.8407
 22.6263  24.9468
 22.6493  24.9536
 22.6723  25.0347
 22.6953  25.1136
 22.7183  25.1278
 22.7413  25.1728
 22.7643  25.139
 22.7873  25.1441
 22.8103  25.3349
 22.8333  25.4266
 22.8563  25.4716
 22.8793  25.582
 22.9022  25.7453
 22.9253  25.9228
 22.9483  25.8938
 22.9713  26.0011
 22.9943  26.196