File: test-data-xrd/xrd-map-34-ID-E/Data_0068.chi
F:\20151113_APS_34IDE\\Brian\Particle1\OCV\Data_0068.tif
2-Theta Angle (Degrees)
Intensity
       2000
 0.01725  0.0000000E+00
 0.04025  0.0000000E+00
 0.06325  0.0000000E+00
 0.08625  0.0000000E+00
 0.10925  0.0000000E+00
 0.13225  0.0000000E+00
 0.15525  0.0000000E+00
 0.17825  0.0000000E+00
 0.20125  0.0000000E+00
 0.22425  0.0000000E+00
 0.24725  0.0000000E+00
 0.27025  0.0000000E+00
 0.29325  0.0000000E+00
 0.31625  0.0000000E+00
 0.33925  0.0000000E+00
 0.36225  0.0000000E+00
 0.38525  0.0000000E+00
 0.40825  0.0000000E+00
 0.43125  0.0000000E+00
 0.45425  0.0000000E+00
 0.47725  0.0000000E+00
 0.50025  0.0000000E+00
 0.52325  0.0000000E+00
 0.54625  0.0000000E+00
 0.56925  0.0000000E+00
 0.59225  0.0000000E+00
 0.61525  0.0000000E+00
 0.63825  0.0000000E+00
 0.66125  0.0000000E+00
 0.68425  0.0000000E+00
 0.70725  0.0000000E+00
 0.73025  0.0000000E+00
 0.75325  0.0000000E+00
 0.77625  0.0000000E+00
 0.79925  0.0000000E+00
 0.82225  0.0000000E+00
 0.84525  0.0000000E+00
 0.86825  0.0000000E+00
 0.89125  0.0000000E+00
 0.91425  0.0000000E+00
 0.93725  0.0000000E+00
 0.96025  0.0000000E+00
 0.98325  0.0000000E+00
 1.00625  0.0000000E+00
 1.02925  0.0000000E+00
 1.05225  0.0000000E+00
 1.07525  0.0000000E+00
 1.09825  0.0000000E+00
 1.12125  0.0000000E+00
 1.14425  0.0000000E+00
 1.16725  0.0000000E+00
 1.19025  0.0000000E+00
 1.21325  0.0000000E+00
 1.23625  0.0000000E+00
 1.25925  0.0000000E+00
 1.28225  0.0000000E+00
 1.30525  0.0000000E+00
 1.32825  0.0000000E+00
 1.35125  0.0000000E+00
 1.37425  0.0000000E+00
 1.39725  0.0000000E+00
 1.42025  0.0000000E+00
 1.44325  0.0000000E+00
 1.46625  0.0000000E+00
 1.48925  0.0000000E+00
 1.51225  0.0000000E+00
 1.53525  0.0000000E+00
 1.55825  0.0000000E+00
 1.58125  0.0000000E+00
 1.60425  0.0000000E+00
 1.62725  0.0000000E+00
 1.65025  0.0000000E+00
 1.67325  0.0000000E+00
 1.69625  0.0000000E+00
 1.71925  0.0000000E+00
 1.74225  0.0000000E+00
 1.76525  0.0000000E+00
 1.78825  0.0000000E+00
 1.81125  0.0000000E+00
 1.83425  0.0000000E+00
 1.85725  0.0000000E+00
 1.88025  0.0000000E+00
 1.90325  0.0000000E+00
 1.92625  0.0000000E+00
 1.94925  0.0000000E+00
 1.97225  0.0000000E+00
 1.99525  0.0000000E+00
 2.01825  0.0000000E+00
 2.04125  0.0000000E+00
 2.06425  0.0000000E+00
 2.08725  0.0000000E+00
 2.11025  0.0000000E+00
 2.13325  0.0000000E+00
 2.15625  0.0000000E+00
 2.17925  0.0000000E+00
 2.20225  0.0000000E+00
 2.22525  0.0000000E+00
 2.24825  0.0000000E+00
 2.27125  0.0000000E+00
 2.29425  0.0000000E+00
 2.31725  0.0000000E+00
 2.34025  0.0000000E+00
 2.36325  0.0000000E+00
 2.38625  0.0000000E+00
 2.40925  0.0000000E+00
 2.43225  0.0000000E+00
 2.45525  0.0000000E+00
 2.47825  0.0000000E+00
 2.50125  0.0000000E+00
 2.52425  0.0000000E+00
 2.54725  0.0000000E+00
 2.57025  0.0000000E+00
 2.59325  0.0000000E+00
 2.61625  0.0000000E+00
 2.63925  0.0000000E+00
 2.66225  0.0000000E+00
 2.68525  0.0000000E+00
 2.70825  0.0000000E+00
 2.73125  0.0000000E+00
 2.75425  0.0000000E+00
 2.77725  0.0000000E+00
 2.80025  0.0000000E+00
 2.82325  38.6425
 2.84625  34.9408
 2.86925  33.4207
 2.89225  32.885
 2.91525  33.1076
 2.93825  34.3695
 2.96125  35.7034
 2.98425  36.2152
 3.00725  36.1768
 3.03025  34.7925
 3.05325  34.1396
 3.07625  34.7606
 3.09925  35.3366
 3.12225  35.7632
 3.14525  35.8564
 3.16825  35.6273
 3.19125  35.3991
 3.21425  35.1885
 3.23725  35.307
 3.26025  35.226
 3.28325  35.015
 3.30625  34.3584
 3.32925  34.1319
 3.35225  34.3664
 3.37525  34.9412
 3.39825  34.9363
 3.42125  34.7465
 3.44425  34.383
 3.46725  34.4658
 3.49025  34.8256
 3.51325  34.504
 3.53625  33.7684
 3.55925  33.0616
 3.58225  33.0944
 3.60525  33.0332
 3.62825  32.9016
 3.65125  32.8249
 3.67425  33.0672
 3.69725  33.062
 3.72025  32.87
 3.74325  32.9791
 3.76625  32.7962
 3.78925  32.4558
 3.81225  32.7328
 3.83525  32.6142
 3.85825  32.4712
 3.88125  32.2262
 3.90425  31.8751
 3.92725  32.3289
 3.95025  32.8238
 3.97325  32.7359
 3.99625  32.4685
 4.01925  32.3011
 4.04225  32.3368
 4.06525  32.6738
 4.08825  32.8212
 4.11125  32.8722
 4.13425  32.441
 4.15725  32.0825
 4.18025  32.0834
 4.20325  32.2558
 4.22625  32.2364
 4.24925  32.1078
 4.27225  31.9707
 4.29525  32.0105
 4.31825  32.1461
 4.34125  32.1238
 4.36425  32.2291
 4.38725  32.3639
 4.41025  32.4106
 4.43325  32.5424
 4.45625  32.3625
 4.47925  32.3235
 4.50225  32.4093
 4.52525  32.5931
 4.54825  32.51
 4.57125  32.5107
 4.59425  32.6898
 4.61725  32.796
 4.64025  32.7439
 4.66325  32.8467
 4.68625  32.8552
 4.70925  32.9407
 4.73225  32.7741
 4.75525  32.5865
 4.77825  32.4675
 4.80125  32.5091
 4.82425  32.6318
 4.84725  32.7091
 4.87025  32.7333
 4.89325  32.6328
 4.91625  32.7401
 4.93925  32.8395
 4.96225  32.6153
 4.98525  32.6284
 5.00825  32.7962
 5.03125  33.066
 5.05425  33.2097
 5.07725  33.3477
 5.10025  33.4278
 5.12325  33.3641
 5.14625  33.5295
 5.16925  33.7474
 5.19225  34.0616
 5.21525  34.0029
 5.23825  33.9649
 5.26125  33.855
 5.28425  33.8434
 5.30725  33.9629
 5.33025  33.7907
 5.35325  33.8218
 5.37625  34.1383
 5.39925  34.3987
 5.42225  34.3599
 5.44525  34.3711
 5.46825  34.5002
 5.49125  34.4668
 5.51425  34.4505
 5.53725  34.412
 5.56025  34.569
 5.58325  34.7225
 5.60625  35.0078
 5.62925  35.0811
 5.65225  35.0601
 5.67525  35.2722
 5.69825  35.3989
 5.72125  35.4584
 5.74425  35.4983
 5.76725  35.8076
 5.79025  36.3445
 5.81325  36.5737
 5.83625  37.0357
 5.85925  37.8964
 5.88225  39.1282
 5.90525  42.3888
 5.92825  59.4708
 5.95125  101.756
 5.97425  114.245
 5.99725  70.0222
 6.02025  52.0302
 6.04325  43.6112
 6.06625  39.7415
 6.08925  38.3548
 6.11225  38.1604
 6.13525  37.7984
 6.15825  37.3238
 6.18125  37.2749
 6.20425  37.1796
 6.22725  36.9688
 6.25025  37.0347
 6.27325  37.2264
 6.29625  37.4356
 6.31925  37.5226
 6.34225  37.8079
 6.36525  38.1623
 6.38825  38.485
 6.41125  38.5031
 6.43425  38.499
 6.45725  38.4721
 6.48025  38.5729
 6.50325  38.5802
 6.52625  38.8015
 6.54925  39.0722
 6.57225  39.1079
 6.59525  39.0735
 6.61825  39.2866
 6.64125  39.4153
 6.66425  39.5719
 6.68725  39.7578
 6.71025  40.1187
 6.73325  40.3711
 6.75625  40.749
 6.77925  40.886
 6.80225  40.9799
 6.82525  41.1624
 6.84825  41.2999
 6.87125  41.5656
 6.89425  41.6424
 6.91725  41.6839
 6.94025  41.6635
 6.96325  41.6984
 6.98625  41.8756
 7.00925  42.0691
 7.03225  42.2535
 7.05525  42.3229
 7.07825  42.4034
 7.10125  42.5347
 7.12425  42.8266
 7.14725  42.8143
 7.17025  42.9226
 7.19325  42.9897
 7.21625  42.9397
 7.23925  43.0293
 7.26225  43.3717
 7.28525  43.4536
 7.30825  43.3341
 7.33125  43.4508
 7.35425  43.6002
 7.37725  43.8459
 7.40025  43.9971
 7.42325  43.9102
 7.44625  43.8092
 7.46925  43.7838
 7.49225  43.7314
 7.51525  43.9197
 7.53825  44.1549
 7.56125  44.1258
 7.58425  43.9567
 7.60725  43.8244
 7.63025  43.9314
 7.65325  43.9614
 7.67625  43.9481
 7.69925  43.9369
 7.72225  44.1474
 7.74525  44.1632
 7.76825  44.0442
 7.79125  43.8722
 7.81425  43.8782
 7.83725  43.8052
 7.86025  43.6316
 7.88325  43.2603
 7.90625  43.3094
 7.92925  43.4691
 7.95225  43.249
 7.97525  43.0932
 7.99825  43.0969
 8.02125  42.9425
 8.04425  42.9626
 8.06725  42.853
 8.09025  42.3899
 8.11325  42.1847
 8.13625  42.0521
 8.15925  41.8462
 8.18225  41.6582
 8.20525  41.4634
 8.22825  41.2301
 8.25125  40.9357
 8.27425  40.6157
 8.29725  40.3086
 8.32025  39.9713
 8.34325  39.7721
 8.36625  39.573
 8.38925  39.3244
 8.41225  39.0137
 8.43525  38.5444
 8.45825  38.0999
 8.48125  37.7929
 8.50425  37.5936
 8.52725  37.4578
 8.55025  37.0283
 8.57325  36.5509
 8.59625  36.0545
 8.61925  35.6723
 8.64225  35.3883
 8.66525  34.9855
 8.68825  34.6327
 8.71125  34.3784
 8.73425  34.1775
 8.75725  33.9117
 8.78025  33.5069
 8.80325  33.0545
 8.82625  32.8158
 8.84925  32.502
 8.87225  32.1572
 8.89525  31.9748
 8.91825  31.7723
 8.94125  31.5007
 8.96425  31.234
 8.98725  30.885
 9.01025  30.4966
 9.03325  30.1322
 9.05625  29.8472
 9.07925  29.6301
 9.10225  29.4296
 9.12525  29.1651
 9.14825  28.8097
 9.17125  28.5847
 9.19425  28.4709
 9.21725  28.3951
 9.24025  28.2045
 9.26325  28.1096
 9.28625  27.824
 9.30925  27.5776
 9.33225  27.2537
 9.35525  27.031
 9.37825  26.934
 9.40125  26.8644
 9.42425  26.7322
 9.44725  26.6278
 9.47025  26.4724
 9.49325  26.407
 9.51625  26.3565
 9.53925  26.2351
 9.56225  26.0303
 9.58525  25.8552
 9.60825  25.8104
 9.63125  25.7317
 9.65425  25.5578
 9.67725  25.3495
 9.70025  25.1185
 9.72325  25.073
 9.74625  25.0457
 9.76925  24.9532
 9.79225  24.9286
 9.81525  24.8525
 9.83825  24.7639
 9.86125  24.6044
 9.88425  24.5385
 9.90725  24.5203
 9.93025  24.5115
 9.95325  24.3831
 9.97625  24.279
 9.99925  24.3185
 10.0222  24.31
 10.0453  24.307
 10.0683  24.193
 10.0913  24.1113
 10.1143  24.029
 10.1373  23.9296
 10.1603  23.9113
 10.1832  23.84
 10.2063  23.7362
 10.2293  23.7169
 10.2523  23.6576
 10.2752  23.6863
 10.2982  23.6924
 10.3213  23.5273
 10.3443  23.4137
 10.3673  23.3249
 10.3902  23.3716
 10.4133  23.3721
 10.4363  23.2733
 10.4593  23.1468
 10.4823  23.2044
 10.5053  23.2078
 10.5283  23.1781
 10.5512  23.1202
 10.5742  23.1035
 10.5973  22.9676
 10.6203  23.0336
 10.6433  23.0995
 10.6662  23.1019
 10.6893  23.0442
 10.7123  22.9585
 10.7353  22.8027
 10.7583  22.6735
 10.7813  22.7366
 10.8043  22.7736
 10.8272  22.7628
 10.8503  22.7307
 10.8733  22.666
 10.8963  22.5943
 10.9192  22.76
 10.9422  22.761
 10.9653  22.7228
 10.9883  22.7245
 11.0113  22.7144
 11.0343  22.7276
 11.0573  22.7094
 11.0803  22.6302
 11.1033  22.5896
 11.1263  22.5776
 11.1493  22.5963
 11.1723  22.5057
 11.1953  22.482
 11.2182  22.4453
 11.2413  22.5021
 11.2643  22.564
 11.2873  22.5186
 11.3102  22.4857
 11.3333  22.5729
 11.3563  22.563
 11.3793  22.6556
 11.4023  22.8766
 11.4253  22.868
 11.4483  22.8817
 11.4713  23.0656
 11.4942  23.3192
 11.5173  24.1683
 11.5403  26.7893
 11.5633  32.6738
 11.5862  39.5175
 11.6093  38.5765
 11.6323  31.8847
 11.6553  26.4673
 11.6783  24.2182
 11.7013  23.4159
 11.7243  23.0198
 11.7473  22.8196
 11.7703  22.7486
 11.7933  22.7476
 11.8163  22.7667
 11.8393  22.6784
 11.8622  22.6385
 11.8853  22.6717
 11.9083  22.7706
 11.9313  23.149
 11.9543  23.7066
 11.9773  24.463
 12.0003  24.23
 12.0233  23.5062
 12.0463  23.4035
 12.0693  24.0039
 12.0923  25.5082
 12.1153  26.0219
 12.1382  25.3952
 12.1613  24.0464
 12.1843  23.05
 12.2073  22.8465
 12.2302  22.787
 12.2533  22.7215
 12.2763  22.6614
 12.2993  22.6334
 12.3223  22.6217
 12.3453  22.6211
 12.3683  22.635
 12.3913  22.593
 12.4142  22.5327
 12.4373  22.5305
 12.4603  22.609
 12.4833  22.6423
 12.5062  22.6028
 12.5292  22.673
 12.5523  22.6572
 12.5753  22.6581
 12.5983  22.6895
 12.6212  22.8038
 12.6443  22.8431
 12.6673  22.7941
 12.6903  22.7644
 12.7133  22.8209
 12.7363  22.9173
 12.7593  22.9579
 12.7822  23.1654
 12.8052  23.2745
 12.8283  23.2817
 12.8513  23.4034
 12.8742  23.4999
 12.8972  23.4418
 12.9203  23.4707
 12.9433  23.6383
 12.9663  23.8941
 12.9893  24.0765
 13.0123  24.0875
 13.0353  24.1624
 13.0582  24.3154
 13.0813  24.398
 13.1043  24.5933
 13.1273  24.8935
 13.1502  25.1264
 13.1732  25.2868
 13.1963  25.4629
 13.2193  25.8662
 13.2423  26.2819
 13.2652  26.3976
 13.2883  26.6648
 13.3113  26.9898
 13.3343  27.2716
 13.3573  27.4858
 13.3803  27.7522
 13.4033  28.1245
 13.4262  28.3759
 13.4492  28.6061
 13.4723  28.801
 13.4953  29.0131
 13.5183  29.1974
 13.5412  29.3992
 13.5643  29.5654
 13.5873  29.7438
 13.6103  29.7902
 13.6333  29.7303
 13.6563  29.6663
 13.6793  29.836
 13.7022  29.8043
 13.7253  29.7295
 13.7483  29.6759
 13.7713  29.5803
 13.7942  29.4966
 13.8172  29.5611
 13.8403  29.6687
 13.8633  29.9994
 13.8863  30.9558
 13.9093  33.8231
 13.9323  39.9677
 13.9553  49.2158
 13.9783  53.93
 14.0013  47.507
 14.0243  37.2628
 14.0473  31.1351
 14.0703  29.0774
 14.0932  28.1808
 14.1163  27.8329
 14.1393  27.6284
 14.1623  27.4547
 14.1852  27.2053
 14.2083  26.9994
 14.2313  26.7984
 14.2543  26.6465
 14.2773  26.4159
 14.3003  26.3022
 14.3233  26.1563
 14.3463  26.1108
 14.3692  26.1516
 14.3923  26.042
 14.4153  25.9456
 14.4383  25.8223
 14.4612  25.7133
 14.4843  25.6068
 14.5073  25.6333
 14.5303  25.6433
 14.5533  25.5936
 14.5763  25.5397
 14.5993  25.4462
 14.6223  25.3782
 14.6453  25.2713
 14.6683  25.2172
 14.6913  25.2274
 14.7143  25.2227
 14.7372  25.1244
 14.7603  25.0443
 14.7833  25.0903
 14.8063  25.0407
 14.8293  24.9904
 14.8523  25.0192
 14.8753  24.9184
 14.8983  24.9281
 14.9213  24.8882
 14.9443  24.8321
 14.9673  24.8645
 14.9903  24.9221
 15.0132  24.9701
 15.0363  24.8351
 15.0593  24.6673
 15.0823  24.7035
 15.1052  24.8603
 15.1283  25.1071
 15.1513  25.774
 15.1743  26.8214
 15.1973  27.7925
 15.2203  27.7296
 15.2433  26.3214
 15.2663  25.3081
 15.2892  24.8829
 15.3123  24.7062
 15.3353  24.6386
 15.3583  24.6012
 15.3812  24.5646
 15.4043  24.5257
 15.4273  24.4483
 15.4503  24.4638
 15.4733  24.5476
 15.4963  24.5756
 15.5193  24.5672
 15.5423  24.5573
 15.5653  24.5632
 15.5883  24.5425
 15.6113  24.4422
 15.6343  24.44
 15.6572  24.6001
 15.6803  24.6574
 15.7033  24.7273
 15.7263  24.7636
 15.7492  24.6706
 15.7723  24.7419
 15.7953  24.7229
 15.8183  24.6817
 15.8413  24.6108
 15.8643  24.5858
 15.8873  24.585
 15.9103  24.6088
 15.9332  24.6582
 15.9563  24.6585
 15.9793  24.5953
 16.0023  24.6263
 16.0253  24.6731
 16.0482  24.7745
 16.0713  24.7529
 16.0943  24.6735
 16.1172  24.7549
 16.1403  24.8577
 16.1633  25.0357
 16.1863  25.3297
 16.2093  25.9995
 16.2323  26.8956
 16.2553  27.6136
 16.2783  27.0516
 16.3012  25.8035
 16.3243  25.0864
 16.3472  24.8713
 16.3703  24.8143
 16.3933  24.851
 16.4163  24.9134
 16.4393  24.8418
 16.4623  24.7725
 16.4853  24.7483
 16.5083  24.7193
 16.5312  24.6763
 16.5543  24.7435
 16.5773  24.6494
 16.6002  24.6565
 16.6233  24.5465
 16.6463  24.4779
 16.6693  24.5534
 16.6923  24.5629
 16.7153  24.4644
 16.7383  24.4934
 16.7613  24.5059
 16.7843  24.526
 16.8073  24.5669
 16.8303  24.5568
 16.8533  24.5371
 16.8763  24.4979
 16.8992  24.437
 16.9223  24.4123
 16.9453  24.4529
 16.9683  24.3597
 16.9913  24.3412
 17.0143  24.3412
 17.0373  24.342
 17.0603  24.2182
 17.0832  24.2393
 17.1063  24.1984
 17.1293  24.2663
 17.1522  24.3253
 17.1753  24.2985
 17.1983  24.1587
 17.2213  24.127
 17.2443  24.126
 17.2673  24.0221
 17.2903  24.0166
 17.3133  24.0676
 17.3362  24.1439
 17.3593  24.1116
 17.3823  24.0539
 17.4053  24.0007
 17.4283  24.0623
 17.4513  23.9823
 17.4743  23.9965
 17.4973  24.0238
 17.5203  23.9838
 17.5433  23.9548
 17.5663  23.8988
 17.5893  23.8299
 17.6123  23.8933
 17.6352  23.9108
 17.6583  23.8203
 17.6813  23.9444
 17.7042  24.006
 17.7273  23.9128
 17.7503  23.8623
 17.7733  23.8524
 17.7963  23.9172
 17.8193  23.8827
 17.8423  23.8914
 17.8653  23.9405
 17.8882  23.9659
 17.9113  23.9501
 17.9343  23.9662
 17.9573  24.0008
 17.9803  24.2957
 18.0033  24.9011
 18.0263  25.5289
 18.0493  26.9686
 18.0723  29.2379
 18.0953  30.1595
 18.1183  29.5363
 18.1413  27.0924
 18.1643  25.5479
 18.1872  24.4564
 18.2103  24.1361
 18.2333  24.0061
 18.2563  23.8464
 18.2793  23.8137
 18.3023  23.9332
 18.3253  23.8535
 18.3483  23.8341
 18.3712  23.8358
 18.3943  23.802
 18.4173  23.7498
 18.4402  23.6592
 18.4633  23.68
 18.4863  23.7449
 18.5093  23.6606
 18.5323  23.7141
 18.5553  23.7807
 18.5783  23.7403
 18.6013  23.6132
 18.6242  23.4721
 18.6473  23.4462
 18.6703  23.4195
 18.6933  23.4875
 18.7163  23.631
 18.7392  23.6538
 18.7623  23.5429
 18.7853  23.4976
 18.8083  23.5119
 18.8313  23.4982
 18.8543  23.4269
 18.8773  23.4054
 18.9003  23.4425
 18.9232  23.5142
 18.9463  23.6219
 18.9693  23.5267
 18.9922  23.4288
 19.0153  23.519
 19.0383  23.5375
 19.0613  23.5341
 19.0843  23.5086
 19.1073  23.4561
 19.1303  23.497
 19.1533  23.5722
 19.1762  23.5568
 19.1993  23.4872
 19.2223  23.407
 19.2453  23.4345
 19.2683  23.5361
 19.2913  23.5597
 19.3143  23.7001
 19.3373  23.7304
 19.3603  23.6178
 19.3833  23.5822
 19.4062  23.6314
 19.4293  23.6567
 19.4523  23.6577
 19.4752  23.6852
 19.4983  23.6452
 19.5213  23.6543
 19.5443  23.7793
 19.5673  23.8578
 19.5903  23.8965
 19.6133  24.0493
 19.6363  24.2887
 19.6593  24.6527
 19.6823  25.3628
 19.7053  26.08
 19.7283  26.3215
 19.7513  25.9854
 19.7742  25.626
 19.7973  26.0436
 19.8203  27.7244
 19.8433  29.8241
 19.8663  31.111
 19.8893  30.2905
 19.9123  27.7964
 19.9353  25.5577
 19.9582  24.4741
 19.9813  24.1554
 20.0043  24.0737
 20.0272  23.9575
 20.0503  24.0029
 20.0733  24.0189
 20.0963  24.0052
 20.1193  23.999
 20.1423  23.8914
 20.1653  23.8821
 20.1883  23.8021
 20.2112  23.7496
 20.2343  23.7616
 20.2573  23.7856
 20.2803  23.7591
 20.3033  23.7428
 20.3263  23.8558
 20.3493  23.8914
 20.3723  23.8287
 20.3953  23.7793
 20.4183  23.8082
 20.4413  23.9137
 20.4643  23.7937
 20.4873  23.7383
 20.5102  23.786
 20.5333  23.8318
 20.5563  23.9751
 20.5792  24.0155
 20.6023  24.013
 20.6253  23.9559
 20.6483  24.1119
 20.6713  24.2892
 20.6943  24.7064
 20.7173  25.6045
 20.7403  26.8406
 20.7632  27.7386
 20.7863  27.0489
 20.8093  25.6359
 20.8323  24.7669
 20.8553  24.3214
 20.8783  24.0964
 20.9013  24.0079
 20.9243  24.0089
 20.9473  24.0472
 20.9703  23.9457
 20.9933  23.9523
 21.0163  24.0003
 21.0393  24.021
 21.0622  24.0476
 21.0853  24.1128
 21.1083  23.9733
 21.1313  24.0524
 21.1543  23.9196
 21.1773  23.9573
 21.2003  24.0034
 21.2233  23.9377
 21.2462  23.9671
 21.2693  23.9839
 21.2923  23.9379
 21.3152  23.8364
 21.3383  23.9297
 21.3613  23.9954
 21.3843  23.9696
 21.4073  23.9132
 21.4303  24.0018
 21.4533  24.0196
 21.4763  24.0246
 21.4992  24.0856
 21.5223  24.047
 21.5453  24.0243
 21.5683  24.0532
 21.5913  24.1619
 21.6142  24.2152
 21.6373  24.2698
 21.6603  24.2492
 21.6833  24.1906
 21.7063  24.2121
 21.7293  24.1962
 21.7523  24.2525
 21.7753  24.2212
 21.7982  24.2142
 21.8213  24.1862
 21.8443  24.1999
 21.8672  24.3042
 21.8903  24.2823
 21.9133  24.3391
 21.9363  24.2678
 21.9593  24.2454
 21.9823  24.3135
 22.0053  24.3717
 22.0283  24.3922
 22.0512  24.3293
 22.0743  24.2969
 22.0973  24.2356
 22.1203  24.3691
 22.1433  24.4736
 22.1663  24.3922
 22.1893  24.3459
 22.2123  24.3861
 22.2353  24.4468
 22.2583  24.5335
 22.2813  24.4471
 22.3043  24.5163
 22.3273  24.6006
 22.3502  24.6094
 22.3733  24.5975
 22.3963  24.5387
 22.4193  24.4934
 22.4423  24.6053
 22.4653  24.7193
 22.4883  24.7061
 22.5113  24.7533
 22.5343  24.7946
 22.5573  24.8546
 22.5803  24.8147
 22.6033  24.8801
 22.6263  25.0107
 22.6493  24.9728
 22.6723  25.0124
 22.6953  25.1531
 22.7183  25.2103
 22.7413  25.2349
 22.7643  25.3524
 22.7873  25.2949
 22.8103  25.4339
 22.8333  25.5308
 22.8563  25.5661
 22.8793  25.6507
 22.9022  25.7414
 22.9253  25.9413
 22.9483  26.0232
 22.9713  26.136
 22.9943  26.2947