File: test-data-xrd/xrd-map-34-ID-E/Data_0014.chi
F:\20151113_APS_34IDE\\Brian\Particle1\OCV\Data_0014.tif
2-Theta Angle (Degrees)
Intensity
       2000
 0.01725  0.0000000E+00
 0.04025  0.0000000E+00
 0.06325  0.0000000E+00
 0.08625  0.0000000E+00
 0.10925  0.0000000E+00
 0.13225  0.0000000E+00
 0.15525  0.0000000E+00
 0.17825  0.0000000E+00
 0.20125  0.0000000E+00
 0.22425  0.0000000E+00
 0.24725  0.0000000E+00
 0.27025  0.0000000E+00
 0.29325  0.0000000E+00
 0.31625  0.0000000E+00
 0.33925  0.0000000E+00
 0.36225  0.0000000E+00
 0.38525  0.0000000E+00
 0.40825  0.0000000E+00
 0.43125  0.0000000E+00
 0.45425  0.0000000E+00
 0.47725  0.0000000E+00
 0.50025  0.0000000E+00
 0.52325  0.0000000E+00
 0.54625  0.0000000E+00
 0.56925  0.0000000E+00
 0.59225  0.0000000E+00
 0.61525  0.0000000E+00
 0.63825  0.0000000E+00
 0.66125  0.0000000E+00
 0.68425  0.0000000E+00
 0.70725  0.0000000E+00
 0.73025  0.0000000E+00
 0.75325  0.0000000E+00
 0.77625  0.0000000E+00
 0.79925  0.0000000E+00
 0.82225  0.0000000E+00
 0.84525  0.0000000E+00
 0.86825  0.0000000E+00
 0.89125  0.0000000E+00
 0.91425  0.0000000E+00
 0.93725  0.0000000E+00
 0.96025  0.0000000E+00
 0.98325  0.0000000E+00
 1.00625  0.0000000E+00
 1.02925  0.0000000E+00
 1.05225  0.0000000E+00
 1.07525  0.0000000E+00
 1.09825  0.0000000E+00
 1.12125  0.0000000E+00
 1.14425  0.0000000E+00
 1.16725  0.0000000E+00
 1.19025  0.0000000E+00
 1.21325  0.0000000E+00
 1.23625  0.0000000E+00
 1.25925  0.0000000E+00
 1.28225  0.0000000E+00
 1.30525  0.0000000E+00
 1.32825  0.0000000E+00
 1.35125  0.0000000E+00
 1.37425  0.0000000E+00
 1.39725  0.0000000E+00
 1.42025  0.0000000E+00
 1.44325  0.0000000E+00
 1.46625  0.0000000E+00
 1.48925  0.0000000E+00
 1.51225  0.0000000E+00
 1.53525  0.0000000E+00
 1.55825  0.0000000E+00
 1.58125  0.0000000E+00
 1.60425  0.0000000E+00
 1.62725  0.0000000E+00
 1.65025  0.0000000E+00
 1.67325  0.0000000E+00
 1.69625  0.0000000E+00
 1.71925  0.0000000E+00
 1.74225  0.0000000E+00
 1.76525  0.0000000E+00
 1.78825  0.0000000E+00
 1.81125  0.0000000E+00
 1.83425  0.0000000E+00
 1.85725  0.0000000E+00
 1.88025  0.0000000E+00
 1.90325  0.0000000E+00
 1.92625  0.0000000E+00
 1.94925  0.0000000E+00
 1.97225  0.0000000E+00
 1.99525  0.0000000E+00
 2.01825  0.0000000E+00
 2.04125  0.0000000E+00
 2.06425  0.0000000E+00
 2.08725  0.0000000E+00
 2.11025  0.0000000E+00
 2.13325  0.0000000E+00
 2.15625  0.0000000E+00
 2.17925  0.0000000E+00
 2.20225  0.0000000E+00
 2.22525  0.0000000E+00
 2.24825  0.0000000E+00
 2.27125  0.0000000E+00
 2.29425  0.0000000E+00
 2.31725  0.0000000E+00
 2.34025  0.0000000E+00
 2.36325  0.0000000E+00
 2.38625  0.0000000E+00
 2.40925  0.0000000E+00
 2.43225  0.0000000E+00
 2.45525  0.0000000E+00
 2.47825  0.0000000E+00
 2.50125  0.0000000E+00
 2.52425  0.0000000E+00
 2.54725  0.0000000E+00
 2.57025  0.0000000E+00
 2.59325  0.0000000E+00
 2.61625  0.0000000E+00
 2.63925  0.0000000E+00
 2.66225  0.0000000E+00
 2.68525  0.0000000E+00
 2.70825  0.0000000E+00
 2.73125  0.0000000E+00
 2.75425  0.0000000E+00
 2.77725  0.0000000E+00
 2.80025  0.0000000E+00
 2.82325  36.5127
 2.84625  36.0942
 2.86925  35.6089
 2.89225  34.8879
 2.91525  34.8512
 2.93825  35.4124
 2.96125  35.0256
 2.98425  34.2582
 3.00725  34.8856
 3.03025  35.3405
 3.05325  35.4114
 3.07625  34.756
 3.09925  34.4307
 3.12225  34.4189
 3.14525  34.9105
 3.16825  35.6785
 3.19125  35.6297
 3.21425  35.5637
 3.23725  35.4282
 3.26025  35.2643
 3.28325  34.7739
 3.30625  34.4295
 3.32925  34.1374
 3.35225  34.1395
 3.37525  34.7018
 3.39825  34.8057
 3.42125  34.4289
 3.44425  33.941
 3.46725  33.5876
 3.49025  33.7008
 3.51325  33.6211
 3.53625  33.5764
 3.55925  33.6105
 3.58225  33.4156
 3.60525  32.9285
 3.62825  32.8779
 3.65125  33.0932
 3.67425  33.1663
 3.69725  33.331
 3.72025  32.5981
 3.74325  32.0667
 3.76625  32.1677
 3.78925  32.09
 3.81225  31.6929
 3.83525  31.7796
 3.85825  32.1363
 3.88125  32.1685
 3.90425  31.8388
 3.92725  31.8545
 3.95025  32.0646
 3.97325  32.3828
 3.99625  32.5851
 4.01925  32.5284
 4.04225  32.2012
 4.06525  32.2404
 4.08825  32.375
 4.11125  32.4662
 4.13425  32.4989
 4.15725  32.3812
 4.18025  32.3822
 4.20325  32.5205
 4.22625  32.4134
 4.24925  32.2211
 4.27225  31.9513
 4.29525  32.0348
 4.31825  32.1954
 4.34125  32.0371
 4.36425  31.7817
 4.38725  31.7498
 4.41025  32.0687
 4.43325  32.3533
 4.45625  32.2813
 4.47925  32.2373
 4.50225  32.1458
 4.52525  32.0925
 4.54825  32.2199
 4.57125  32.5751
 4.59425  32.5272
 4.61725  32.6194
 4.64025  32.7562
 4.66325  32.7506
 4.68625  32.7554
 4.70925  32.7436
 4.73225  32.6432
 4.75525  32.2423
 4.77825  32.1755
 4.80125  32.2025
 4.82425  32.2709
 4.84725  32.3719
 4.87025  32.7502
 4.89325  32.8292
 4.91625  32.9384
 4.93925  32.7817
 4.96225  32.7656
 4.98525  32.9272
 5.00825  33.2019
 5.03125  33.3026
 5.05425  33.3896
 5.07725  33.4641
 5.10025  33.4961
 5.12325  33.5205
 5.14625  33.6139
 5.16925  33.6943
 5.19225  33.6418
 5.21525  33.5464
 5.23825  33.6807
 5.26125  33.8188
 5.28425  34.0176
 5.30725  34.0847
 5.33025  34.2969
 5.35325  34.3781
 5.37625  34.373
 5.39925  34.5026
 5.42225  34.5568
 5.44525  34.5301
 5.46825  34.5925
 5.49125  34.4882
 5.51425  34.4286
 5.53725  34.3896
 5.56025  34.8404
 5.58325  35.2134
 5.60625  35.1394
 5.62925  35.0097
 5.65225  35.1662
 5.67525  35.323
 5.69825  35.3185
 5.72125  35.292
 5.74425  35.3096
 5.76725  35.3057
 5.79025  35.592
 5.81325  35.6029
 5.83625  35.7326
 5.85925  35.9171
 5.88225  36.281
 5.90525  36.9057
 5.92825  38.0912
 5.95125  40.9858
 5.97425  44.0338
 5.99725  44.0627
 6.02025  40.9999
 6.04325  38.5564
 6.06625  37.5414
 6.08925  37.144
 6.11225  37.1906
 6.13525  37.1241
 6.15825  36.8705
 6.18125  36.8582
 6.20425  36.9351
 6.22725  37.1739
 6.25025  37.3121
 6.27325  37.6062
 6.29625  37.8751
 6.31925  38.0133
 6.34225  38.0248
 6.36525  37.9985
 6.38825  38.0338
 6.41125  38.2363
 6.43425  38.3627
 6.45725  38.6816
 6.48025  38.8651
 6.50325  39.0198
 6.52625  39.2318
 6.54925  39.2593
 6.57225  39.4652
 6.59525  39.6369
 6.61825  39.9102
 6.64125  40.1325
 6.66425  40.3533
 6.68725  40.3677
 6.71025  40.4804
 6.73325  40.6935
 6.75625  40.8841
 6.77925  40.9977
 6.80225  41.2065
 6.82525  41.5833
 6.84825  41.7944
 6.87125  41.8682
 6.89425  41.898
 6.91725  42.049
 6.94025  42.2826
 6.96325  42.4953
 6.98625  42.7503
 7.00925  42.8399
 7.03225  42.9067
 7.05525  43.0718
 7.07825  43.1375
 7.10125  43.1823
 7.12425  43.2294
 7.14725  43.2542
 7.17025  43.1671
 7.19325  43.2659
 7.21625  43.576
 7.23925  43.6393
 7.26225  43.6836
 7.28525  43.6803
 7.30825  43.8096
 7.33125  43.9734
 7.35425  43.9682
 7.37725  43.8364
 7.40025  43.9564
 7.42325  44.435
 7.44625  44.5692
 7.46925  44.6469
 7.49225  44.4428
 7.51525  44.5349
 7.53825  44.7297
 7.56125  44.7249
 7.58425  44.9856
 7.60725  45.0815
 7.63025  45.2082
 7.65325  44.9198
 7.67625  44.6984
 7.69925  44.702
 7.72225  44.7913
 7.74525  44.6778
 7.76825  44.752
 7.79125  44.7667
 7.81425  44.6702
 7.83725  44.6545
 7.86025  44.6104
 7.88325  44.4739
 7.90625  44.394
 7.92925  44.4328
 7.95225  44.3025
 7.97525  44.0417
 7.99825  44.0059
 8.02125  43.8614
 8.04425  43.7796
 8.06725  43.6412
 8.09025  43.5628
 8.11325  43.4595
 8.13625  43.112
 8.15925  42.7612
 8.18225  42.6483
 8.20525  42.6226
 8.22825  42.3459
 8.25125  42.0496
 8.27425  41.6972
 8.29725  41.3756
 8.32025  41.1263
 8.34325  40.8291
 8.36625  40.6327
 8.38925  40.3268
 8.41225  39.914
 8.43525  39.5247
 8.45825  39.2838
 8.48125  38.9053
 8.50425  38.5791
 8.52725  38.2471
 8.55025  37.7908
 8.57325  37.4282
 8.59625  36.9819
 8.61925  36.6892
 8.64225  36.4301
 8.66525  36.08
 8.68825  35.6992
 8.71125  35.3063
 8.73425  34.9866
 8.75725  34.5646
 8.78025  34.253
 8.80325  33.8065
 8.82625  33.5834
 8.84925  33.5124
 8.87225  33.3032
 8.89525  32.8077
 8.91825  32.4906
 8.94125  32.3222
 8.96425  32.2699
 8.98725  32.033
 9.01025  31.5272
 9.03325  31.137
 9.05625  30.9178
 9.07925  30.6581
 9.10225  30.3853
 9.12525  30.2872
 9.14825  30.0358
 9.17125  29.7302
 9.19425  29.4315
 9.21725  29.2331
 9.24025  28.9773
 9.26325  28.7743
 9.28625  28.5467
 9.30925  28.3064
 9.33225  28.1272
 9.35525  27.9319
 9.37825  27.6818
 9.40125  27.5549
 9.42425  27.4249
 9.44725  27.2395
 9.47025  27.209
 9.49325  27.0795
 9.51625  26.9007
 9.53925  26.8249
 9.56225  26.6706
 9.58525  26.4521
 9.60825  26.4118
 9.63125  26.4487
 9.65425  26.297
 9.67725  26.0092
 9.70025  25.8759
 9.72325  25.8947
 9.74625  25.7867
 9.76925  25.6509
 9.79225  25.5402
 9.81525  25.5178
 9.83825  25.466
 9.86125  25.3022
 9.88425  25.1862
 9.90725  25.1636
 9.93025  25.1123
 9.95325  24.9202
 9.97625  24.8482
 9.99925  24.7949
 10.0222  24.6451
 10.0453  24.5334
 10.0683  24.4635
 10.0913  24.4084
 10.1143  24.2883
 10.1373  24.2051
 10.1603  24.3184
 10.1832  24.4656
 10.2063  24.2912
 10.2293  24.2249
 10.2523  24.2142
 10.2752  24.2219
 10.2982  24.1922
 10.3213  24.0434
 10.3443  23.8602
 10.3673  23.821
 10.3902  23.9091
 10.4133  23.8882
 10.4363  23.7215
 10.4593  23.5652
 10.4823  23.5837
 10.5053  23.5649
 10.5283  23.4995
 10.5512  23.5179
 10.5742  23.4655
 10.5973  23.3573
 10.6203  23.3237
 10.6433  23.3792
 10.6662  23.2954
 10.6893  23.2241
 10.7123  23.1641
 10.7353  23.1181
 10.7583  23.0573
 10.7813  23.0864
 10.8043  23.2179
 10.8272  23.3364
 10.8503  23.2053
 10.8733  23.2447
 10.8963  23.2042
 10.9192  23.2242
 10.9422  23.231
 10.9653  23.2083
 10.9883  23.0851
 11.0113  23.0018
 11.0343  23.0039
 11.0573  22.9435
 11.0803  22.9495
 11.1033  22.8867
 11.1263  22.9488
 11.1493  22.9321
 11.1723  22.8274
 11.1953  22.7334
 11.2182  22.7542
 11.2413  22.802
 11.2643  22.7518
 11.2873  22.7596
 11.3102  22.8586
 11.3333  22.9894
 11.3563  23.0302
 11.3793  23.1502
 11.4023  23.259
 11.4253  23.285
 11.4483  23.2694
 11.4713  23.3657
 11.4942  23.5199
 11.5173  23.9368
 11.5403  25.3436
 11.5633  28.5875
 11.5862  32.3627
 11.6093  32.483
 11.6323  29.176
 11.6553  25.7049
 11.6783  23.933
 11.7013  23.2664
 11.7243  23.0399
 11.7473  22.9523
 11.7703  22.8784
 11.7933  22.8792
 11.8163  22.8931
 11.8393  22.8307
 11.8622  22.7009
 11.8853  22.6622
 11.9083  22.8003
 11.9313  23.0577
 11.9543  23.4808
 11.9773  23.963
 12.0003  24.1213
 12.0233  23.88
 12.0463  24.0983
 12.0693  24.5406
 12.0923  24.9813
 12.1153  24.6143
 12.1382  23.8338
 12.1613  23.248
 12.1843  22.9718
 12.2073  22.8818
 12.2302  22.7923
 12.2533  22.8383
 12.2763  22.8438
 12.2993  22.8399
 12.3223  22.8151
 12.3453  22.7758
 12.3683  22.77
 12.3913  22.8186
 12.4142  22.8797
 12.4373  22.9798
 12.4603  22.972
 12.4833  22.8957
 12.5062  22.9013
 12.5292  22.9852
 12.5523  23.0518
 12.5753  23.1095
 12.5983  23.1979
 12.6212  23.1776
 12.6443  23.1254
 12.6673  23.079
 12.6903  23.2311
 12.7133  23.3814
 12.7363  23.3682
 12.7593  23.3678
 12.7822  23.4778
 12.8052  23.6109
 12.8283  23.664
 12.8513  23.6578
 12.8742  23.6927
 12.8972  23.6138
 12.9203  23.7299
 12.9433  23.8608
 12.9663  23.9761
 12.9893  24.1128
 13.0123  24.2333
 13.0353  24.3987
 13.0582  24.6256
 13.0813  24.7536
 13.1043  24.957
 13.1273  25.2186
 13.1502  25.4756
 13.1732  25.7008
 13.1963  25.8822
 13.2193  26.2829
 13.2423  26.5919
 13.2652  26.7752
 13.2883  27.0012
 13.3113  27.2755
 13.3343  27.62
 13.3573  28.0342
 13.3803  28.2946
 13.4033  28.5302
 13.4262  28.6893
 13.4492  28.7999
 13.4723  29.099
 13.4953  29.5046
 13.5183  29.7611
 13.5412  29.8515
 13.5643  29.8966
 13.5873  29.9064
 13.6103  30.0551
 13.6333  30.0352
 13.6563  29.9402
 13.6793  30.0005
 13.7022  29.9437
 13.7253  29.8735
 13.7483  29.779
 13.7713  29.7644
 13.7942  29.7092
 13.8172  29.6369
 13.8403  29.5768
 13.8633  29.9217
 13.8863  30.402
 13.9093  31.9396
 13.9323  35.3293
 13.9553  39.5808
 13.9783  39.0579
 14.0013  34.6895
 14.0243  31.076
 14.0473  29.292
 14.0703  28.6643
 14.0932  28.0509
 14.1163  27.7509
 14.1393  27.5497
 14.1623  27.4098
 14.1852  27.2864
 14.2083  27.162
 14.2313  27.0222
 14.2543  26.8459
 14.2773  26.6938
 14.3003  26.5483
 14.3233  26.4341
 14.3463  26.4414
 14.3692  26.4621
 14.3923  26.3342
 14.4153  26.2401
 14.4383  26.1577
 14.4612  25.9818
 14.4843  25.9014
 14.5073  25.8979
 14.5303  25.8281
 14.5533  25.7633
 14.5763  25.7094
 14.5993  25.6381
 14.6223  25.6004
 14.6453  25.5839
 14.6683  25.5745
 14.6913  25.5566
 14.7143  25.5923
 14.7372  25.5031
 14.7603  25.418
 14.7833  25.2558
 14.8063  25.2845
 14.8293  25.2497
 14.8523  25.3032
 14.8753  25.2801
 14.8983  25.347
 14.9213  25.3221
 14.9443  25.2725
 14.9673  25.2536
 14.9903  25.1875
 15.0132  25.2203
 15.0363  25.301
 15.0593  25.449
 15.0823  25.5166
 15.1052  25.5585
 15.1283  25.698
 15.1513  26.4142
 15.1743  27.7407
 15.1973  28.6748
 15.2203  28.2102
 15.2433  26.954
 15.2663  25.9319
 15.2892  25.4741
 15.3123  25.1908
 15.3353  25.0133
 15.3583  24.955
 15.3812  24.911
 15.4043  24.9649
 15.4273  24.9589
 15.4503  24.9436
 15.4733  24.8669
 15.4963  24.8314
 15.5193  24.8381
 15.5423  24.9343
 15.5653  24.9668
 15.5883  24.9253
 15.6113  24.8321
 15.6343  24.8537
 15.6572  24.8081
 15.6803  24.8088
 15.7033  24.8656
 15.7263  24.8706
 15.7492  24.852
 15.7723  24.8915
 15.7953  24.8869
 15.8183  24.8964
 15.8413  24.7786
 15.8643  24.782
 15.8873  24.8646
 15.9103  24.99
 15.9332  25.1076
 15.9563  25.0744
 15.9793  24.99
 16.0023  24.908
 16.0253  24.8517
 16.0482  24.8976
 16.0713  24.947
 16.0943  25.0692
 16.1172  25.1425
 16.1403  25.1366
 16.1633  25.241
 16.1863  25.5308
 16.2093  26.0651
 16.2323  26.632
 16.2553  26.977
 16.2783  26.7647
 16.3012  25.9135
 16.3243  25.362
 16.3472  25.1161
 16.3703  25.0569
 16.3933  24.9714
 16.4163  24.9461
 16.4393  24.8991
 16.4623  24.9124
 16.4853  24.9413
 16.5083  24.9706
 16.5312  24.9194
 16.5543  24.9211
 16.5773  24.9423
 16.6002  24.8861
 16.6233  24.7894
 16.6463  24.6951
 16.6693  24.6797
 16.6923  24.7057
 16.7153  24.7247
 16.7383  24.701
 16.7613  24.7028
 16.7843  24.739
 16.8073  24.7866
 16.8303  24.6947
 16.8533  24.6025
 16.8763  24.5858
 16.8992  24.5713
 16.9223  24.5316
 16.9453  24.5269
 16.9683  24.5625
 16.9913  24.626
 17.0143  24.5851
 17.0373  24.558
 17.0603  24.477
 17.0832  24.5632
 17.1063  24.5231
 17.1293  24.4685
 17.1522  24.4436
 17.1753  24.4202
 17.1983  24.4677
 17.2213  24.4987
 17.2443  24.5567
 17.2673  24.4418
 17.2903  24.4048
 17.3133  24.3847
 17.3362  24.3839
 17.3593  24.3009
 17.3823  24.2811
 17.4053  24.2934
 17.4283  24.2856
 17.4513  24.3417
 17.4743  24.3453
 17.4973  24.2832
 17.5203  24.1755
 17.5433  24.2151
 17.5663  24.1943
 17.5893  24.177
 17.6123  24.2614
 17.6352  24.2137
 17.6583  24.1572
 17.6813  24.2611
 17.7042  24.242
 17.7273  24.0785
 17.7503  23.976
 17.7733  23.9344
 17.7963  24.0501
 17.8193  24.0034
 17.8423  24.029
 17.8653  24.0741
 17.8882  24.0598
 17.9113  24.0919
 17.9343  24.16
 17.9573  24.0478
 17.9803  24.1304
 18.0033  24.3069
 18.0263  24.6323
 18.0493  25.0884
 18.0723  25.8525
 18.0953  26.2817
 18.1183  26.1368
 18.1413  25.5556
 18.1643  24.95
 18.1872  24.4652
 18.2103  24.1799
 18.2333  24.0885
 18.2563  24.0424
 18.2793  23.9843
 18.3023  23.9711
 18.3253  23.9231
 18.3483  24.0146
 18.3712  24.038
 18.3943  24.0192
 18.4173  24.0161
 18.4402  23.9917
 18.4633  23.8991
 18.4863  23.9055
 18.5093  23.9032
 18.5323  23.9152
 18.5553  23.8874
 18.5783  23.9147
 18.6013  23.9114
 18.6242  23.8531
 18.6473  23.7167
 18.6703  23.6985
 18.6933  23.8183
 18.7163  23.8573
 18.7392  23.8305
 18.7623  23.6792
 18.7853  23.622
 18.8083  23.8748
 18.8313  23.9837
 18.8543  23.8763
 18.8773  23.843
 18.9003  23.8858
 18.9232  24.0159
 18.9463  24.1022
 18.9693  23.9533
 18.9922  23.9001
 19.0153  23.8667
 19.0383  23.8387
 19.0613  23.7986
 19.0843  23.7595
 19.1073  23.7622
 19.1303  23.8166
 19.1533  23.845
 19.1762  23.8966
 19.1993  23.9526
 19.2223  23.8521
 19.2453  23.9147
 19.2683  24.0269
 19.2913  23.9402
 19.3143  23.8975
 19.3373  23.8441
 19.3603  23.7474
 19.3833  23.8041
 19.4062  23.8621
 19.4293  23.9002
 19.4523  23.9148
 19.4752  24.0218
 19.4983  23.998
 19.5213  24.0576
 19.5443  24.1653
 19.5673  24.217
 19.5903  24.2707
 19.6133  24.4058
 19.6363  24.9449
 19.6593  26.2049
 19.6823  27.7324
 19.7053  28.1328
 19.7283  27.13
 19.7513  25.9353
 19.7742  25.3473
 19.7973  25.3158
 19.8203  25.7783
 19.8433  26.3983
 19.8663  26.3768
 19.8893  25.7104
 19.9123  25.0366
 19.9353  24.6034
 19.9582  24.3885
 19.9813  24.2701
 20.0043  24.185
 20.0272  24.1037
 20.0503  24.084
 20.0733  24.0715
 20.0963  24.0546
 20.1193  24.1382
 20.1423  24.1288
 20.1653  24.127
 20.1883  24.0726
 20.2112  24.0333
 20.2343  24.0432
 20.2573  23.9455
 20.2803  24.0169
 20.3033  24.0246
 20.3263  23.9364
 20.3493  23.9186
 20.3723  24.0204
 20.3953  24.112
 20.4183  24.1149
 20.4413  24.0461
 20.4643  23.9632
 20.4873  24.0015
 20.5102  24.0726
 20.5333  24.0575
 20.5563  24.1302
 20.5792  24.0766
 20.6023  24.2002
 20.6253  24.2084
 20.6483  24.2696
 20.6713  24.3818
 20.6943  24.6078
 20.7173  25.0497
 20.7403  25.7916
 20.7632  26.6005
 20.7863  26.6485
 20.8093  25.8648
 20.8323  24.9827
 20.8553  24.6267
 20.8783  24.4655
 20.9013  24.3829
 20.9243  24.2493
 20.9473  24.1524
 20.9703  24.1725
 20.9933  24.2186
 21.0163  24.2124
 21.0393  24.1971
 21.0622  24.2049
 21.0853  24.2031
 21.1083  24.1526
 21.1313  24.181
 21.1543  24.1459
 21.1773  24.2269
 21.2003  24.2053
 21.2233  24.1561
 21.2462  24.1505
 21.2693  24.1868
 21.2923  24.1896
 21.3152  24.168
 21.3383  24.1708
 21.3613  24.1898
 21.3843  24.2233
 21.4073  24.2037
 21.4303  24.2378
 21.4533  24.3542
 21.4763  24.3969
 21.4992  24.4258
 21.5223  24.4048
 21.5453  24.4268
 21.5683  24.4064
 21.5913  24.3962
 21.6142  24.3916
 21.6373  24.3615
 21.6603  24.4437
 21.6833  24.4273
 21.7063  24.3994
 21.7293  24.3677
 21.7523  24.3922
 21.7753  24.4467
 21.7982  24.3941
 21.8213  24.4277
 21.8443  24.4235
 21.8672  24.501
 21.8903  24.4903
 21.9133  24.4536
 21.9363  24.5495
 21.9593  24.494
 21.9823  24.4042
 22.0053  24.4347
 22.0283  24.5459
 22.0512  24.5946
 22.0743  24.6234
 22.0973  24.7871
 22.1203  24.8919
 22.1433  24.7952
 22.1663  24.7092
 22.1893  24.5989
 22.2123  24.5473
 22.2353  24.6696
 22.2583  24.7746
 22.2813  24.8231
 22.3043  24.881
 22.3273  24.8196
 22.3502  24.9299
 22.3733  24.9745
 22.3963  24.8746
 22.4193  24.7961
 22.4423  24.9299
 22.4653  24.9957
 22.4883  24.987
 22.5113  25.0639
 22.5343  25.146
 22.5573  25.1194
 22.5803  25.0727
 22.6033  25.1201
 22.6263  25.2693
 22.6493  25.2445
 22.6723  25.2163
 22.6953  25.2921
 22.7183  25.4546
 22.7413  25.4844
 22.7643  25.5757
 22.7873  25.6118
 22.8103  25.7341
 22.8333  25.8017
 22.8563  25.8455
 22.8793  25.949
 22.9022  25.9781
 22.9253  26.2453
 22.9483  26.433
 22.9713  26.599
 22.9943  26.8702