File: test-data-xrd/xrd-map-34-ID-E/Data_0076.chi
F:\20151113_APS_34IDE\\Brian\Particle1\OCV\Data_0076.tif
2-Theta Angle (Degrees)
Intensity
       2000
 0.01725  0.0000000E+00
 0.04025  0.0000000E+00
 0.06325  0.0000000E+00
 0.08625  0.0000000E+00
 0.10925  0.0000000E+00
 0.13225  0.0000000E+00
 0.15525  0.0000000E+00
 0.17825  0.0000000E+00
 0.20125  0.0000000E+00
 0.22425  0.0000000E+00
 0.24725  0.0000000E+00
 0.27025  0.0000000E+00
 0.29325  0.0000000E+00
 0.31625  0.0000000E+00
 0.33925  0.0000000E+00
 0.36225  0.0000000E+00
 0.38525  0.0000000E+00
 0.40825  0.0000000E+00
 0.43125  0.0000000E+00
 0.45425  0.0000000E+00
 0.47725  0.0000000E+00
 0.50025  0.0000000E+00
 0.52325  0.0000000E+00
 0.54625  0.0000000E+00
 0.56925  0.0000000E+00
 0.59225  0.0000000E+00
 0.61525  0.0000000E+00
 0.63825  0.0000000E+00
 0.66125  0.0000000E+00
 0.68425  0.0000000E+00
 0.70725  0.0000000E+00
 0.73025  0.0000000E+00
 0.75325  0.0000000E+00
 0.77625  0.0000000E+00
 0.79925  0.0000000E+00
 0.82225  0.0000000E+00
 0.84525  0.0000000E+00
 0.86825  0.0000000E+00
 0.89125  0.0000000E+00
 0.91425  0.0000000E+00
 0.93725  0.0000000E+00
 0.96025  0.0000000E+00
 0.98325  0.0000000E+00
 1.00625  0.0000000E+00
 1.02925  0.0000000E+00
 1.05225  0.0000000E+00
 1.07525  0.0000000E+00
 1.09825  0.0000000E+00
 1.12125  0.0000000E+00
 1.14425  0.0000000E+00
 1.16725  0.0000000E+00
 1.19025  0.0000000E+00
 1.21325  0.0000000E+00
 1.23625  0.0000000E+00
 1.25925  0.0000000E+00
 1.28225  0.0000000E+00
 1.30525  0.0000000E+00
 1.32825  0.0000000E+00
 1.35125  0.0000000E+00
 1.37425  0.0000000E+00
 1.39725  0.0000000E+00
 1.42025  0.0000000E+00
 1.44325  0.0000000E+00
 1.46625  0.0000000E+00
 1.48925  0.0000000E+00
 1.51225  0.0000000E+00
 1.53525  0.0000000E+00
 1.55825  0.0000000E+00
 1.58125  0.0000000E+00
 1.60425  0.0000000E+00
 1.62725  0.0000000E+00
 1.65025  0.0000000E+00
 1.67325  0.0000000E+00
 1.69625  0.0000000E+00
 1.71925  0.0000000E+00
 1.74225  0.0000000E+00
 1.76525  0.0000000E+00
 1.78825  0.0000000E+00
 1.81125  0.0000000E+00
 1.83425  0.0000000E+00
 1.85725  0.0000000E+00
 1.88025  0.0000000E+00
 1.90325  0.0000000E+00
 1.92625  0.0000000E+00
 1.94925  0.0000000E+00
 1.97225  0.0000000E+00
 1.99525  0.0000000E+00
 2.01825  0.0000000E+00
 2.04125  0.0000000E+00
 2.06425  0.0000000E+00
 2.08725  0.0000000E+00
 2.11025  0.0000000E+00
 2.13325  0.0000000E+00
 2.15625  0.0000000E+00
 2.17925  0.0000000E+00
 2.20225  0.0000000E+00
 2.22525  0.0000000E+00
 2.24825  0.0000000E+00
 2.27125  0.0000000E+00
 2.29425  0.0000000E+00
 2.31725  0.0000000E+00
 2.34025  0.0000000E+00
 2.36325  0.0000000E+00
 2.38625  0.0000000E+00
 2.40925  0.0000000E+00
 2.43225  0.0000000E+00
 2.45525  0.0000000E+00
 2.47825  0.0000000E+00
 2.50125  0.0000000E+00
 2.52425  0.0000000E+00
 2.54725  0.0000000E+00
 2.57025  0.0000000E+00
 2.59325  0.0000000E+00
 2.61625  0.0000000E+00
 2.63925  0.0000000E+00
 2.66225  0.0000000E+00
 2.68525  0.0000000E+00
 2.70825  0.0000000E+00
 2.73125  0.0000000E+00
 2.75425  0.0000000E+00
 2.77725  0.0000000E+00
 2.80025  0.0000000E+00
 2.82325  39.2279
 2.84625  33.8509
 2.86925  32.9023
 2.89225  34.2039
 2.91525  35.1308
 2.93825  35.6209
 2.96125  34.9519
 2.98425  34.6655
 3.00725  35.0479
 3.03025  35.2591
 3.05325  35.2215
 3.07625  35.2677
 3.09925  35.4514
 3.12225  35.1032
 3.14525  35.5505
 3.16825  35.798
 3.19125  36.1563
 3.21425  36.5954
 3.23725  35.9637
 3.26025  35.2439
 3.28325  34.7401
 3.30625  34.8992
 3.32925  35.0471
 3.35225  34.8632
 3.37525  35.0291
 3.39825  34.7555
 3.42125  34.445
 3.44425  34.66
 3.46725  34.8412
 3.49025  34.5932
 3.51325  34.0311
 3.53625  33.9389
 3.55925  34.2566
 3.58225  33.9816
 3.60525  33.5342
 3.62825  33.3225
 3.65125  33.1229
 3.67425  33.1135
 3.69725  32.9484
 3.72025  32.8242
 3.74325  32.7489
 3.76625  32.8001
 3.78925  32.4014
 3.81225  32.0468
 3.83525  31.9605
 3.85825  32.5446
 3.88125  33.0456
 3.90425  32.9942
 3.92725  32.8014
 3.95025  33.0836
 3.97325  33.5038
 3.99625  33.4615
 4.01925  33.1715
 4.04225  33.1613
 4.06525  33.2413
 4.08825  32.8866
 4.11125  32.6939
 4.13425  32.6542
 4.15725  32.8046
 4.18025  32.3301
 4.20325  32.1764
 4.22625  32.1705
 4.24925  32.3194
 4.27225  32.3475
 4.29525  32.573
 4.31825  32.6208
 4.34125  32.5023
 4.36425  32.2759
 4.38725  32.2708
 4.41025  32.4697
 4.43325  32.7035
 4.45625  32.5456
 4.47925  32.5673
 4.50225  32.6118
 4.52525  32.6626
 4.54825  32.7564
 4.57125  32.9011
 4.59425  32.7596
 4.61725  32.6507
 4.64025  32.6084
 4.66325  32.7893
 4.68625  33.1454
 4.70925  33.2058
 4.73225  32.7919
 4.75525  32.638
 4.77825  32.7246
 4.80125  32.7873
 4.82425  32.6676
 4.84725  32.6114
 4.87025  32.7413
 4.89325  32.9114
 4.91625  33.0867
 4.93925  33.1887
 4.96225  33.2795
 4.98525  33.4505
 5.00825  33.4758
 5.03125  33.6093
 5.05425  33.4814
 5.07725  33.2754
 5.10025  33.2687
 5.12325  33.6621
 5.14625  33.707
 5.16925  33.8203
 5.19225  33.9531
 5.21525  33.9256
 5.23825  34.1551
 5.26125  34.4111
 5.28425  34.4222
 5.30725  34.2238
 5.33025  34.2875
 5.35325  34.4197
 5.37625  34.5101
 5.39925  34.6626
 5.42225  34.5603
 5.44525  34.6456
 5.46825  34.6647
 5.49125  34.6845
 5.51425  34.8762
 5.53725  34.816
 5.56025  34.7872
 5.58325  34.789
 5.60625  35.0848
 5.62925  35.361
 5.65225  35.5999
 5.67525  35.7623
 5.69825  35.5816
 5.72125  35.6737
 5.74425  35.7964
 5.76725  35.6897
 5.79025  35.8189
 5.81325  35.9288
 5.83625  35.865
 5.85925  35.8572
 5.88225  36.0599
 5.90525  36.4227
 5.92825  36.7268
 5.95125  37.7436
 5.97425  39.0756
 5.99725  39.3467
 6.02025  38.1004
 6.04325  36.9655
 6.06625  36.5008
 6.08925  36.6372
 6.11225  36.9345
 6.13525  36.8509
 6.15825  36.857
 6.18125  36.9056
 6.20425  37.0606
 6.22725  37.1054
 6.25025  37.1368
 6.27325  37.307
 6.29625  37.4935
 6.31925  37.6626
 6.34225  37.9596
 6.36525  38.0976
 6.38825  38.2593
 6.41125  38.3648
 6.43425  38.5801
 6.45725  38.591
 6.48025  38.5573
 6.50325  38.8156
 6.52625  39.1807
 6.54925  39.3728
 6.57225  39.5542
 6.59525  39.6867
 6.61825  39.7133
 6.64125  39.8386
 6.66425  40.036
 6.68725  40.2876
 6.71025  40.5095
 6.73325  40.6396
 6.75625  40.8972
 6.77925  41.1446
 6.80225  41.2592
 6.82525  41.3758
 6.84825  41.5966
 6.87125  41.6676
 6.89425  41.8173
 6.91725  42.1536
 6.94025  42.1305
 6.96325  42.0627
 6.98625  42.2341
 7.00925  42.2757
 7.03225  42.4044
 7.05525  42.6277
 7.07825  42.7205
 7.10125  42.877
 7.12425  42.9983
 7.14725  43.0553
 7.17025  43.0191
 7.19325  43.0247
 7.21625  43.2779
 7.23925  43.7023
 7.26225  43.7948
 7.28525  43.73
 7.30825  43.891
 7.33125  44.0533
 7.35425  44.1151
 7.37725  43.9863
 7.40025  44.0127
 7.42325  44.1852
 7.44625  44.3092
 7.46925  44.3809
 7.49225  44.5818
 7.51525  44.6905
 7.53825  44.5855
 7.56125  44.3896
 7.58425  44.1836
 7.60725  44.1936
 7.63025  44.2724
 7.65325  44.4106
 7.67625  44.5268
 7.69925  44.7008
 7.72225  44.6582
 7.74525  44.5892
 7.76825  44.454
 7.79125  44.2906
 7.81425  44.2275
 7.83725  44.2047
 7.86025  44.2009
 7.88325  44.0127
 7.90625  43.992
 7.92925  44.0936
 7.95225  43.9918
 7.97525  43.7118
 7.99825  43.4941
 8.02125  43.5432
 8.04425  43.6221
 8.06725  43.3359
 8.09025  43.0333
 8.11325  42.7949
 8.13625  42.4912
 8.15925  42.2641
 8.18225  42.1943
 8.20525  41.9738
 8.22825  41.6858
 8.25125  41.3897
 8.27425  41.0513
 8.29725  40.9445
 8.32025  40.797
 8.34325  40.5648
 8.36625  40.3138
 8.38925  40.1469
 8.41225  39.8327
 8.43525  39.4177
 8.45825  39.0392
 8.48125  38.675
 8.50425  38.341
 8.52725  38.0496
 8.55025  37.6257
 8.57325  37.1103
 8.59625  36.7388
 8.61925  36.4398
 8.64225  36.0916
 8.66525  35.5635
 8.68825  35.3412
 8.71125  35.0702
 8.73425  34.8266
 8.75725  34.4077
 8.78025  33.9983
 8.80325  33.6651
 8.82625  33.1728
 8.84925  32.7618
 8.87225  32.4449
 8.89525  32.1874
 8.91825  31.822
 8.94125  31.5451
 8.96425  31.2819
 8.98725  31.0354
 9.01025  30.6949
 9.03325  30.4283
 9.05625  30.2279
 9.07925  30.0364
 9.10225  29.5944
 9.12525  29.4193
 9.14825  29.1704
 9.17125  28.8839
 9.19425  28.6604
 9.21725  28.4619
 9.24025  28.2507
 9.26325  28.0375
 9.28625  27.7881
 9.30925  27.5376
 9.33225  27.537
 9.35525  27.5221
 9.37825  27.4304
 9.40125  27.1851
 9.42425  26.9936
 9.44725  26.8412
 9.47025  26.767
 9.49325  26.6487
 9.51625  26.4633
 9.53925  26.2837
 9.56225  26.1518
 9.58525  25.9701
 9.60825  25.8768
 9.63125  25.6676
 9.65425  25.4837
 9.67725  25.3154
 9.70025  25.1547
 9.72325  25.2115
 9.74625  25.2358
 9.76925  25.0951
 9.79225  25.0586
 9.81525  25.0274
 9.83825  24.8444
 9.86125  24.7887
 9.88425  24.7282
 9.90725  24.5537
 9.93025  24.4519
 9.95325  24.5338
 9.97625  24.4473
 9.99925  24.278
 10.0222  24.1683
 10.0453  24.0985
 10.0683  24.039
 10.0913  23.9983
 10.1143  23.9478
 10.1373  23.8529
 10.1603  23.7544
 10.1832  23.7374
 10.2063  23.734
 10.2293  23.8258
 10.2523  23.7707
 10.2752  23.6238
 10.2982  23.6225
 10.3213  23.4951
 10.3443  23.3578
 10.3673  23.2913
 10.3902  23.3809
 10.4133  23.4273
 10.4363  23.3458
 10.4593  23.2222
 10.4823  23.2142
 10.5053  23.2612
 10.5283  23.2503
 10.5512  23.1708
 10.5742  23.0598
 10.5973  22.8984
 10.6203  22.8402
 10.6433  22.9934
 10.6662  23.0979
 10.6893  22.9774
 10.7123  22.9416
 10.7353  22.915
 10.7583  22.835
 10.7813  22.776
 10.8043  22.6941
 10.8272  22.5938
 10.8503  22.5721
 10.8733  22.6194
 10.8963  22.6123
 10.9192  22.5678
 10.9422  22.5721
 10.9653  22.6488
 10.9883  22.6447
 11.0113  22.5921
 11.0343  22.5726
 11.0573  22.406
 11.0803  22.2598
 11.1033  22.315
 11.1263  22.4932
 11.1493  22.5121
 11.1723  22.502
 11.1953  22.3917
 11.2182  22.2886
 11.2413  22.2399
 11.2643  22.2555
 11.2873  22.2856
 11.3102  22.2844
 11.3333  22.2877
 11.3563  22.3922
 11.3793  22.497
 11.4023  22.6602
 11.4253  22.525
 11.4483  22.4295
 11.4713  22.5256
 11.4942  22.5481
 11.5173  22.6059
 11.5403  23.0986
 11.5633  23.6944
 11.5862  24.2455
 11.6093  24.187
 11.6323  23.6653
 11.6553  23.0636
 11.6783  22.701
 11.7013  22.4253
 11.7243  22.3838
 11.7473  22.3578
 11.7703  22.3322
 11.7933  22.3834
 11.8163  22.4586
 11.8393  22.4164
 11.8622  22.3851
 11.8853  22.2977
 11.9083  22.2901
 11.9313  22.2978
 11.9543  22.3549
 11.9773  22.3934
 12.0003  22.5351
 12.0233  22.5529
 12.0463  22.6571
 12.0693  22.6809
 12.0923  22.8574
 12.1153  22.9384
 12.1382  22.8158
 12.1613  22.6857
 12.1843  22.5894
 12.2073  22.4737
 12.2302  22.4384
 12.2533  22.3178
 12.2763  22.2598
 12.2993  22.3151
 12.3223  22.3973
 12.3453  22.4074
 12.3683  22.4635
 12.3913  22.4493
 12.4142  22.4882
 12.4373  22.5878
 12.4603  22.5366
 12.4833  22.3864
 12.5062  22.3043
 12.5292  22.3101
 12.5523  22.4652
 12.5753  22.544
 12.5983  22.6644
 12.6212  22.8082
 12.6443  22.8104
 12.6673  22.7858
 12.6903  22.771
 12.7133  22.8746
 12.7363  22.9148
 12.7593  22.9681
 12.7822  23.0772
 12.8052  23.0812
 12.8283  23.2429
 12.8513  23.3426
 12.8742  23.3356
 12.8972  23.3443
 12.9203  23.4854
 12.9433  23.5518
 12.9663  23.679
 12.9893  23.7626
 13.0123  23.8973
 13.0353  24.0701
 13.0582  24.2113
 13.0813  24.3649
 13.1043  24.6762
 13.1273  24.9397
 13.1502  25.1395
 13.1732  25.3436
 13.1963  25.5934
 13.2193  25.8256
 13.2423  26.2123
 13.2652  26.4458
 13.2883  26.7681
 13.3113  27.0699
 13.3343  27.3899
 13.3573  27.7028
 13.3803  28.0266
 13.4033  28.2723
 13.4262  28.3841
 13.4492  28.5134
 13.4723  28.7791
 13.4953  28.9795
 13.5183  29.1815
 13.5412  29.4438
 13.5643  29.5391
 13.5873  29.6825
 13.6103  29.7875
 13.6333  29.7281
 13.6563  29.718
 13.6793  29.6586
 13.7022  29.4861
 13.7253  29.3994
 13.7483  29.3803
 13.7713  29.3849
 13.7942  29.2554
 13.8172  29.1361
 13.8403  29.0329
 13.8633  28.9635
 13.8863  29.1133
 13.9093  29.4728
 13.9323  30.1447
 13.9553  30.631
 13.9783  30.157
 14.0013  29.0798
 14.0243  28.2201
 14.0473  27.7171
 14.0703  27.4646
 14.0932  27.369
 14.1163  27.2461
 14.1393  27.0377
 14.1623  26.9131
 14.1852  26.7708
 14.2083  26.5258
 14.2313  26.4699
 14.2543  26.5111
 14.2773  26.475
 14.3003  26.2591
 14.3233  26.0864
 14.3463  26.1118
 14.3692  26.0339
 14.3923  25.9432
 14.4153  25.911
 14.4383  25.9087
 14.4612  25.7727
 14.4843  25.5766
 14.5073  25.4393
 14.5303  25.3479
 14.5533  25.3226
 14.5763  25.3823
 14.5993  25.3506
 14.6223  25.1707
 14.6453  25.1061
 14.6683  25.0398
 14.6913  25.075
 14.7143  25.0996
 14.7372  24.9356
 14.7603  24.8887
 14.7833  24.9069
 14.8063  24.9095
 14.8293  24.9278
 14.8523  24.9539
 14.8753  24.9013
 14.8983  24.9217
 14.9213  24.9491
 14.9443  24.8636
 14.9673  24.771
 14.9903  24.6668
 15.0132  24.6145
 15.0363  24.5654
 15.0593  24.5826
 15.0823  24.6277
 15.1052  24.6462
 15.1283  24.6421
 15.1513  24.9503
 15.1743  25.3832
 15.1973  25.6021
 15.2203  25.512
 15.2433  25.0746
 15.2663  24.644
 15.2892  24.5806
 15.3123  24.668
 15.3353  24.6677
 15.3583  24.5328
 15.3812  24.3704
 15.4043  24.2696
 15.4273  24.3413
 15.4503  24.4955
 15.4733  24.41
 15.4963  24.2956
 15.5193  24.311
 15.5423  24.3631
 15.5653  24.3192
 15.5883  24.3463
 15.6113  24.3462
 15.6343  24.4025
 15.6572  24.5368
 15.6803  24.4819
 15.7033  24.5547
 15.7263  24.5804
 15.7492  24.5211
 15.7723  24.5025
 15.7953  24.4924
 15.8183  24.5148
 15.8413  24.5269
 15.8643  24.4774
 15.8873  24.5018
 15.9103  24.6586
 15.9332  24.7224
 15.9563  24.5328
 15.9793  24.4331
 16.0023  24.486
 16.0253  24.5312
 16.0482  24.6052
 16.0713  24.6466
 16.0943  24.6283
 16.1172  24.6547
 16.1403  24.6934
 16.1633  24.7129
 16.1863  24.7497
 16.2093  24.8057
 16.2323  24.9952
 16.2553  25.1352
 16.2783  25.1799
 16.3012  24.9634
 16.3243  24.7238
 16.3472  24.5275
 16.3703  24.4575
 16.3933  24.4726
 16.4163  24.5932
 16.4393  24.6353
 16.4623  24.7033
 16.4853  24.5741
 16.5083  24.5217
 16.5312  24.4596
 16.5543  24.5456
 16.5773  24.4524
 16.6002  24.3588
 16.6233  24.3749
 16.6463  24.3901
 16.6693  24.3581
 16.6923  24.3262
 16.7153  24.3535
 16.7383  24.3188
 16.7613  24.2631
 16.7843  24.3553
 16.8073  24.3852
 16.8303  24.3274
 16.8533  24.2185
 16.8763  24.3004
 16.8992  24.3269
 16.9223  24.2614
 16.9453  24.1585
 16.9683  24.1153
 16.9913  24.0999
 17.0143  24.0872
 17.0373  24.1783
 17.0603  24.1856
 17.0832  24.1864
 17.1063  24.0429
 17.1293  23.9149
 17.1522  23.9657
 17.1753  23.9285
 17.1983  23.9937
 17.2213  24.0047
 17.2443  24.0016
 17.2673  24.0561
 17.2903  24.0795
 17.3133  24.0906
 17.3362  24.0413
 17.3593  24.0156
 17.3823  23.9408
 17.4053  23.8976
 17.4283  23.9188
 17.4513  24.0048
 17.4743  23.9521
 17.4973  23.8866
 17.5203  23.7848
 17.5433  23.7287
 17.5663  23.6571
 17.5893  23.6438
 17.6123  23.757
 17.6352  23.7787
 17.6583  23.5967
 17.6813  23.5787
 17.7042  23.6611
 17.7273  23.63
 17.7503  23.5205
 17.7733  23.5055
 17.7963  23.5172
 17.8193  23.5228
 17.8423  23.465
 17.8653  23.5308
 17.8882  23.564
 17.9113  23.5827
 17.9343  23.5168
 17.9573  23.4965
 17.9803  23.5643
 18.0033  23.6291
 18.0263  23.6635
 18.0493  23.8129
 18.0723  23.8255
 18.0953  23.8017
 18.1183  23.8044
 18.1413  23.765
 18.1643  23.6705
 18.1872  23.5162
 18.2103  23.4672
 18.2333  23.4268
 18.2563  23.4063
 18.2793  23.4156
 18.3023  23.4662
 18.3253  23.4457
 18.3483  23.4664
 18.3712  23.4835
 18.3943  23.4828
 18.4173  23.433
 18.4402  23.3226
 18.4633  23.2881
 18.4863  23.3191
 18.5093  23.4005
 18.5323  23.415
 18.5553  23.3867
 18.5783  23.376
 18.6013  23.379
 18.6242  23.3156
 18.6473  23.2499
 18.6703  23.2442
 18.6933  23.3473
 18.7163  23.4044
 18.7392  23.3264
 18.7623  23.2811
 18.7853  23.2362
 18.8083  23.2876
 18.8313  23.2493
 18.8543  23.2858
 18.8773  23.2594
 18.9003  23.2442
 18.9232  23.3087
 18.9463  23.3847
 18.9693  23.4297
 18.9922  23.3831
 19.0153  23.4291
 19.0383  23.4351
 19.0613  23.4035
 19.0843  23.4482
 19.1073  23.376
 19.1303  23.275
 19.1533  23.3047
 19.1762  23.2658
 19.1993  23.2715
 19.2223  23.2938
 19.2453  23.2327
 19.2683  23.3197
 19.2913  23.3203
 19.3143  23.3702
 19.3373  23.2828
 19.3603  23.2206
 19.3833  23.3277
 19.4062  23.4622
 19.4293  23.4891
 19.4523  23.5036
 19.4752  23.4243
 19.4983  23.3806
 19.5213  23.3602
 19.5443  23.4323
 19.5673  23.3747
 19.5903  23.4688
 19.6133  23.5536
 19.6363  23.6739
 19.6593  23.8373
 19.6823  23.9237
 19.7053  24.141
 19.7283  24.2143
 19.7513  24.1115
 19.7742  23.9803
 19.7973  23.924
 19.8203  24.0252
 19.8433  24.2346
 19.8663  24.2572
 19.8893  24.0574
 19.9123  23.8101
 19.9353  23.6006
 19.9582  23.5315
 19.9813  23.4602
 20.0043  23.4535
 20.0272  23.4867
 20.0503  23.5464
 20.0733  23.5165
 20.0963  23.5488
 20.1193  23.5695
 20.1423  23.5666
 20.1653  23.5991
 20.1883  23.574
 20.2112  23.4995
 20.2343  23.5507
 20.2573  23.5749
 20.2803  23.5272
 20.3033  23.566
 20.3263  23.5456
 20.3493  23.5141
 20.3723  23.4742
 20.3953  23.5427
 20.4183  23.5937
 20.4413  23.5773
 20.4643  23.5583
 20.4873  23.5268
 20.5102  23.4831
 20.5333  23.3867
 20.5563  23.4608
 20.5792  23.5624
 20.6023  23.6516
 20.6253  23.6791
 20.6483  23.648
 20.6713  23.6737
 20.6943  23.6773
 20.7173  23.8465
 20.7403  24.0693
 20.7632  24.2423
 20.7863  24.2671
 20.8093  23.9659
 20.8323  23.7718
 20.8553  23.7416
 20.8783  23.6964
 20.9013  23.6822
 20.9243  23.646
 20.9473  23.6339
 20.9703  23.6213
 20.9933  23.7019
 21.0163  23.6354
 21.0393  23.6078
 21.0622  23.5593
 21.0853  23.6195
 21.1083  23.666
 21.1313  23.7407
 21.1543  23.6424
 21.1773  23.6632
 21.2003  23.6614
 21.2233  23.5622
 21.2462  23.5527
 21.2693  23.6543
 21.2923  23.6693
 21.3152  23.6565
 21.3383  23.6811
 21.3613  23.6514
 21.3843  23.6247
 21.4073  23.6755
 21.4303  23.7242
 21.4533  23.7648
 21.4763  23.7206
 21.4992  23.789
 21.5223  23.7868
 21.5453  23.8205
 21.5683  23.7587
 21.5913  23.7811
 21.6142  23.7978
 21.6373  23.8422
 21.6603  23.8986
 21.6833  23.8457
 21.7063  23.8295
 21.7293  23.9128
 21.7523  23.9242
 21.7753  23.8441
 21.7982  23.8643
 21.8213  23.9047
 21.8443  23.9876
 21.8672  24.0772
 21.8903  24.0654
 21.9133  24.0563
 21.9363  24.0013
 21.9593  24.0088
 21.9823  24.12
 22.0053  24.1131
 22.0283  24.1845
 22.0512  24.2247
 22.0743  24.1214
 22.0973  24.0823
 22.1203  24.1011
 22.1433  24.1188
 22.1663  24.1643
 22.1893  24.1491
 22.2123  24.1972
 22.2353  24.2094
 22.2583  24.2547
 22.2813  24.3429
 22.3043  24.3003
 22.3273  24.2132
 22.3502  24.2643
 22.3733  24.2875
 22.3963  24.2592
 22.4193  24.2873
 22.4423  24.3917
 22.4653  24.3782
 22.4883  24.3713
 22.5113  24.5425
 22.5343  24.7168
 22.5573  24.6653
 22.5803  24.5881
 22.6033  24.5998
 22.6263  24.7026
 22.6493  24.7758
 22.6723  24.8754
 22.6953  24.9866
 22.7183  24.9602
 22.7413  24.8482
 22.7643  24.9899
 22.7873  25.0403
 22.8103  25.1741
 22.8333  25.3932
 22.8563  25.4086
 22.8793  25.3463
 22.9022  25.4567
 22.9253  25.5791
 22.9483  25.6739
 22.9713  25.7499
 22.9943  25.9825