File: test-data-xrd/xrd-map-34-ID-E/Data_0096.chi
F:\20151113_APS_34IDE\\Brian\Particle1\OCV\Data_0096.tif
2-Theta Angle (Degrees)
Intensity
       2000
 0.01725  0.0000000E+00
 0.04025  0.0000000E+00
 0.06325  0.0000000E+00
 0.08625  0.0000000E+00
 0.10925  0.0000000E+00
 0.13225  0.0000000E+00
 0.15525  0.0000000E+00
 0.17825  0.0000000E+00
 0.20125  0.0000000E+00
 0.22425  0.0000000E+00
 0.24725  0.0000000E+00
 0.27025  0.0000000E+00
 0.29325  0.0000000E+00
 0.31625  0.0000000E+00
 0.33925  0.0000000E+00
 0.36225  0.0000000E+00
 0.38525  0.0000000E+00
 0.40825  0.0000000E+00
 0.43125  0.0000000E+00
 0.45425  0.0000000E+00
 0.47725  0.0000000E+00
 0.50025  0.0000000E+00
 0.52325  0.0000000E+00
 0.54625  0.0000000E+00
 0.56925  0.0000000E+00
 0.59225  0.0000000E+00
 0.61525  0.0000000E+00
 0.63825  0.0000000E+00
 0.66125  0.0000000E+00
 0.68425  0.0000000E+00
 0.70725  0.0000000E+00
 0.73025  0.0000000E+00
 0.75325  0.0000000E+00
 0.77625  0.0000000E+00
 0.79925  0.0000000E+00
 0.82225  0.0000000E+00
 0.84525  0.0000000E+00
 0.86825  0.0000000E+00
 0.89125  0.0000000E+00
 0.91425  0.0000000E+00
 0.93725  0.0000000E+00
 0.96025  0.0000000E+00
 0.98325  0.0000000E+00
 1.00625  0.0000000E+00
 1.02925  0.0000000E+00
 1.05225  0.0000000E+00
 1.07525  0.0000000E+00
 1.09825  0.0000000E+00
 1.12125  0.0000000E+00
 1.14425  0.0000000E+00
 1.16725  0.0000000E+00
 1.19025  0.0000000E+00
 1.21325  0.0000000E+00
 1.23625  0.0000000E+00
 1.25925  0.0000000E+00
 1.28225  0.0000000E+00
 1.30525  0.0000000E+00
 1.32825  0.0000000E+00
 1.35125  0.0000000E+00
 1.37425  0.0000000E+00
 1.39725  0.0000000E+00
 1.42025  0.0000000E+00
 1.44325  0.0000000E+00
 1.46625  0.0000000E+00
 1.48925  0.0000000E+00
 1.51225  0.0000000E+00
 1.53525  0.0000000E+00
 1.55825  0.0000000E+00
 1.58125  0.0000000E+00
 1.60425  0.0000000E+00
 1.62725  0.0000000E+00
 1.65025  0.0000000E+00
 1.67325  0.0000000E+00
 1.69625  0.0000000E+00
 1.71925  0.0000000E+00
 1.74225  0.0000000E+00
 1.76525  0.0000000E+00
 1.78825  0.0000000E+00
 1.81125  0.0000000E+00
 1.83425  0.0000000E+00
 1.85725  0.0000000E+00
 1.88025  0.0000000E+00
 1.90325  0.0000000E+00
 1.92625  0.0000000E+00
 1.94925  0.0000000E+00
 1.97225  0.0000000E+00
 1.99525  0.0000000E+00
 2.01825  0.0000000E+00
 2.04125  0.0000000E+00
 2.06425  0.0000000E+00
 2.08725  0.0000000E+00
 2.11025  0.0000000E+00
 2.13325  0.0000000E+00
 2.15625  0.0000000E+00
 2.17925  0.0000000E+00
 2.20225  0.0000000E+00
 2.22525  0.0000000E+00
 2.24825  0.0000000E+00
 2.27125  0.0000000E+00
 2.29425  0.0000000E+00
 2.31725  0.0000000E+00
 2.34025  0.0000000E+00
 2.36325  0.0000000E+00
 2.38625  0.0000000E+00
 2.40925  0.0000000E+00
 2.43225  0.0000000E+00
 2.45525  0.0000000E+00
 2.47825  0.0000000E+00
 2.50125  0.0000000E+00
 2.52425  0.0000000E+00
 2.54725  0.0000000E+00
 2.57025  0.0000000E+00
 2.59325  0.0000000E+00
 2.61625  0.0000000E+00
 2.63925  0.0000000E+00
 2.66225  0.0000000E+00
 2.68525  0.0000000E+00
 2.70825  0.0000000E+00
 2.73125  0.0000000E+00
 2.75425  0.0000000E+00
 2.77725  0.0000000E+00
 2.80025  0.0000000E+00
 2.82325  41.1889
 2.84625  35.1882
 2.86925  34.2077
 2.89225  35.0285
 2.91525  35.6377
 2.93825  35.8378
 2.96125  35.6737
 2.98425  35.4803
 3.00725  36.1407
 3.03025  36.2202
 3.05325  35.9821
 3.07625  35.4826
 3.09925  35.3432
 3.12225  35.3245
 3.14525  34.9809
 3.16825  34.8872
 3.19125  34.8179
 3.21425  34.8435
 3.23725  34.7223
 3.26025  34.3534
 3.28325  34.472
 3.30625  34.7983
 3.32925  34.9434
 3.35225  35.0211
 3.37525  35.0165
 3.39825  34.9397
 3.42125  34.6642
 3.44425  34.3533
 3.46725  34.15
 3.49025  34.2972
 3.51325  34.3582
 3.53625  34.4096
 3.55925  34.0341
 3.58225  33.4546
 3.60525  33.3825
 3.62825  33.7234
 3.65125  33.6779
 3.67425  33.6111
 3.69725  33.6632
 3.72025  33.492
 3.74325  33.3181
 3.76625  33.351
 3.78925  33.4433
 3.81225  33.3163
 3.83525  33.1439
 3.85825  33.0071
 3.88125  33.2306
 3.90425  33.6046
 3.92725  33.383
 3.95025  33.0638
 3.97325  32.8798
 3.99625  32.8849
 4.01925  33.0103
 4.04225  33.067
 4.06525  33.0482
 4.08825  32.8936
 4.11125  33.0367
 4.13425  32.8981
 4.15725  32.979
 4.18025  32.6568
 4.20325  32.6209
 4.22625  32.6822
 4.24925  32.1149
 4.27225  32.0314
 4.29525  32.0691
 4.31825  32.2341
 4.34125  32.3103
 4.36425  32.4083
 4.38725  32.5789
 4.41025  32.5344
 4.43325  32.502
 4.45625  32.8317
 4.47925  32.9683
 4.50225  32.9872
 4.52525  32.8675
 4.54825  32.9428
 4.57125  33.0435
 4.59425  33.2415
 4.61725  33.294
 4.64025  33.0993
 4.66325  33.0172
 4.68625  32.9514
 4.70925  32.9326
 4.73225  32.9265
 4.75525  32.9395
 4.77825  33.0284
 4.80125  32.947
 4.82425  32.8358
 4.84725  32.9991
 4.87025  33.301
 4.89325  33.3215
 4.91625  33.5232
 4.93925  33.446
 4.96225  33.1024
 4.98525  33.2399
 5.00825  33.3858
 5.03125  33.6292
 5.05425  33.5998
 5.07725  33.6767
 5.10025  33.6948
 5.12325  33.6607
 5.14625  33.8911
 5.16925  34.0537
 5.19225  34.3634
 5.21525  34.3436
 5.23825  34.4141
 5.26125  34.5184
 5.28425  34.4899
 5.30725  34.53
 5.33025  34.517
 5.35325  34.613
 5.37625  34.6935
 5.39925  34.8049
 5.42225  34.5773
 5.44525  34.6646
 5.46825  34.9223
 5.49125  35.0173
 5.51425  34.9624
 5.53725  35.0626
 5.56025  35.3813
 5.58325  35.6285
 5.60625  35.6834
 5.62925  35.6722
 5.65225  35.6896
 5.67525  35.8654
 5.69825  36.0962
 5.72125  36.0163
 5.74425  36.1883
 5.76725  36.4706
 5.79025  36.5748
 5.81325  36.5664
 5.83625  36.5512
 5.85925  36.5694
 5.88225  37.0465
 5.90525  37.9581
 5.92825  39.848
 5.95125  45.4408
 5.97425  52.3102
 5.99725  55.7964
 6.02025  52.9419
 6.04325  46.5846
 6.06625  39.3601
 6.08925  38.0085
 6.11225  37.6632
 6.13525  37.6884
 6.15825  37.6796
 6.18125  37.7122
 6.20425  37.6913
 6.22725  37.8885
 6.25025  37.9145
 6.27325  37.9712
 6.29625  38.2099
 6.31925  38.2628
 6.34225  38.3745
 6.36525  38.54
 6.38825  38.7499
 6.41125  38.953
 6.43425  39.0354
 6.45725  39.0887
 6.48025  39.3091
 6.50325  39.5506
 6.52625  39.7121
 6.54925  39.9115
 6.57225  40.2198
 6.59525  40.4374
 6.61825  40.4605
 6.64125  40.4182
 6.66425  40.5558
 6.68725  40.7617
 6.71025  40.7947
 6.73325  40.8949
 6.75625  41.1884
 6.77925  41.5104
 6.80225  41.7184
 6.82525  41.7914
 6.84825  41.8241
 6.87125  41.9393
 6.89425  42.088
 6.91725  42.2093
 6.94025  42.2881
 6.96325  42.5483
 6.98625  42.8009
 7.00925  42.9288
 7.03225  43.0132
 7.05525  43.0297
 7.07825  42.9484
 7.10125  42.9244
 7.12425  43.3218
 7.14725  43.544
 7.17025  43.7239
 7.19325  44.0177
 7.21625  44.2389
 7.23925  44.1456
 7.26225  44.0849
 7.28525  44.1236
 7.30825  44.1552
 7.33125  44.2686
 7.35425  44.3882
 7.37725  44.3931
 7.40025  44.3695
 7.42325  44.6493
 7.44625  44.6992
 7.46925  44.7616
 7.49225  44.8364
 7.51525  44.7983
 7.53825  44.7894
 7.56125  44.8637
 7.58425  45.0643
 7.60725  45.0544
 7.63025  44.8192
 7.65325  44.7856
 7.67625  44.7543
 7.69925  44.6163
 7.72225  44.6086
 7.74525  44.6413
 7.76825  44.7064
 7.79125  44.8412
 7.81425  44.8893
 7.83725  44.97
 7.86025  44.7442
 7.88325  44.3337
 7.90625  44.1029
 7.92925  44.0263
 7.95225  43.9956
 7.97525  44.0273
 7.99825  44.0635
 8.02125  43.8372
 8.04425  43.6236
 8.06725  43.4362
 8.09025  43.2847
 8.11325  43.1256
 8.13625  42.9282
 8.15925  42.7496
 8.18225  42.4313
 8.20525  42.3192
 8.22825  42.0052
 8.25125  41.6648
 8.27425  41.3018
 8.29725  41.1663
 8.32025  41.058
 8.34325  40.8143
 8.36625  40.452
 8.38925  39.984
 8.41225  39.6172
 8.43525  39.3027
 8.45825  39.1235
 8.48125  38.694
 8.50425  38.2675
 8.52725  37.9924
 8.55025  37.7109
 8.57325  37.2747
 8.59625  36.8861
 8.61925  36.3961
 8.64225  36.1249
 8.66525  35.7751
 8.68825  35.4083
 8.71125  35.0795
 8.73425  34.6242
 8.75725  34.2991
 8.78025  34.0099
 8.80325  33.831
 8.82625  33.5983
 8.84925  33.2078
 8.87225  32.8695
 8.89525  32.4834
 8.91825  32.1408
 8.94125  31.8003
 8.96425  31.5625
 8.98725  31.2719
 9.01025  30.9638
 9.03325  30.6134
 9.05625  30.3312
 9.07925  30.1207
 9.10225  29.8413
 9.12525  29.6077
 9.14825  29.3999
 9.17125  29.1359
 9.19425  28.887
 9.21725  28.6874
 9.24025  28.4961
 9.26325  28.3993
 9.28625  28.1418
 9.30925  27.8857
 9.33225  27.6962
 9.35525  27.5616
 9.37825  27.5345
 9.40125  27.3185
 9.42425  27.0791
 9.44725  26.9774
 9.47025  26.899
 9.49325  26.782
 9.51625  26.5458
 9.53925  26.352
 9.56225  26.136
 9.58525  26.0408
 9.60825  26.0302
 9.63125  25.9193
 9.65425  25.7399
 9.67725  25.592
 9.70025  25.4992
 9.72325  25.3933
 9.74625  25.2765
 9.76925  25.2869
 9.79225  25.2125
 9.81525  24.9922
 9.83825  24.8364
 9.86125  24.8145
 9.88425  24.8088
 9.90725  24.7612
 9.93025  24.7047
 9.95325  24.5147
 9.97625  24.3776
 9.99925  24.4
 10.0222  24.3684
 10.0453  24.3908
 10.0683  24.4425
 10.0913  24.3052
 10.1143  24.1933
 10.1373  24.1397
 10.1603  24.0621
 10.1832  24.0105
 10.2063  23.9544
 10.2293  23.8015
 10.2523  23.5919
 10.2752  23.5095
 10.2982  23.5191
 10.3213  23.5407
 10.3443  23.54
 10.3673  23.5169
 10.3902  23.4997
 10.4133  23.5352
 10.4363  23.4868
 10.4593  23.458
 10.4823  23.4535
 10.5053  23.2955
 10.5283  23.1499
 10.5512  23.0756
 10.5742  23.1364
 10.5973  23.0183
 10.6203  22.9943
 10.6433  23.0493
 10.6662  23.0766
 10.6893  22.9941
 10.7123  22.9527
 10.7353  22.8833
 10.7583  22.8712
 10.7813  22.8703
 10.8043  22.8502
 10.8272  22.9039
 10.8503  22.9495
 10.8733  22.9556
 10.8963  22.7903
 10.9192  22.8317
 10.9422  22.7791
 10.9653  22.7419
 10.9883  22.799
 11.0113  22.7353
 11.0343  22.6506
 11.0573  22.5371
 11.0803  22.5699
 11.1033  22.6907
 11.1263  22.751
 11.1493  22.7318
 11.1723  22.7052
 11.1953  22.7159
 11.2182  22.619
 11.2413  22.6542
 11.2643  22.6823
 11.2873  22.6542
 11.3102  22.649
 11.3333  22.7572
 11.3563  22.8315
 11.3793  22.9558
 11.4023  23.142
 11.4253  23.1295
 11.4483  23.2471
 11.4713  23.4332
 11.4942  23.7463
 11.5173  24.581
 11.5403  27.0501
 11.5633  30.7149
 11.5862  33.6584
 11.6093  32.6011
 11.6323  29.1631
 11.6553  25.6013
 11.6783  23.8459
 11.7013  23.2185
 11.7243  22.9077
 11.7473  22.8299
 11.7703  22.7298
 11.7933  22.6787
 11.8163  22.6941
 11.8393  22.6634
 11.8622  22.5811
 11.8853  22.6383
 11.9083  22.8461
 11.9313  22.9067
 11.9543  22.931
 11.9773  23.041
 12.0003  23.1018
 12.0233  23.0981
 12.0463  23.2642
 12.0693  23.9046
 12.0923  24.7792
 12.1153  25.1378
 12.1382  24.4577
 12.1613  23.4246
 12.1843  22.8711
 12.2073  22.7232
 12.2302  22.7206
 12.2533  22.702
 12.2763  22.735
 12.2993  22.7893
 12.3223  22.7961
 12.3453  22.679
 12.3683  22.6326
 12.3913  22.5993
 12.4142  22.6355
 12.4373  22.7422
 12.4603  22.7708
 12.4833  22.833
 12.5062  22.7437
 12.5292  22.6987
 12.5523  22.8206
 12.5753  22.8384
 12.5983  22.846
 12.6212  22.9089
 12.6443  22.9653
 12.6673  22.9451
 12.6903  22.996
 12.7133  23.0099
 12.7363  23.0305
 12.7593  23.0759
 12.7822  23.2663
 12.8052  23.4656
 12.8283  23.5821
 12.8513  23.5456
 12.8742  23.482
 12.8972  23.5134
 12.9203  23.6866
 12.9433  23.8483
 12.9663  23.9346
 12.9893  24.0431
 13.0123  24.1934
 13.0353  24.2849
 13.0582  24.4308
 13.0813  24.6241
 13.1043  24.9246
 13.1273  25.1713
 13.1502  25.34
 13.1732  25.5478
 13.1963  25.7366
 13.2193  25.9331
 13.2423  26.3222
 13.2652  26.6296
 13.2883  27.0114
 13.3113  27.2893
 13.3343  27.621
 13.3573  27.928
 13.3803  28.1716
 13.4033  28.4354
 13.4262  28.66
 13.4492  28.9461
 13.4723  29.0994
 13.4953  29.3919
 13.5183  29.6946
 13.5412  29.9397
 13.5643  30.0221
 13.5873  30.0778
 13.6103  30.042
 13.6333  30.0465
 13.6563  30.0228
 13.6793  30.0687
 13.7022  30.067
 13.7253  30.0469
 13.7483  29.9699
 13.7713  29.9204
 13.7942  30.0058
 13.8172  30.0858
 13.8403  30.3563
 13.8633  30.8595
 13.8863  32.2515
 13.9093  36.5609
 13.9323  43.522
 13.9553  50.5616
 13.9783  53.6972
 14.0013  48.3111
 14.0243  38.7127
 14.0473  31.8322
 14.0703  29.3835
 14.0932  28.626
 14.1163  28.2204
 14.1393  27.9274
 14.1623  27.6395
 14.1852  27.3206
 14.2083  27.1594
 14.2313  26.9862
 14.2543  26.8865
 14.2773  26.6535
 14.3003  26.5212
 14.3233  26.3584
 14.3463  26.3267
 14.3692  26.3291
 14.3923  26.2571
 14.4153  26.1739
 14.4383  26.1776
 14.4612  26.048
 14.4843  25.7807
 14.5073  25.7459
 14.5303  25.7336
 14.5533  25.7333
 14.5763  25.7246
 14.5993  25.6354
 14.6223  25.5469
 14.6453  25.5118
 14.6683  25.4416
 14.6913  25.5175
 14.7143  25.56
 14.7372  25.4249
 14.7603  25.3116
 14.7833  25.2993
 14.8063  25.2227
 14.8293  25.1337
 14.8523  25.2223
 14.8753  25.1595
 14.8983  25.1361
 14.9213  25.1272
 14.9443  24.9824
 14.9673  24.9797
 14.9903  25.0494
 15.0132  25.1083
 15.0363  25.1046
 15.0593  25.087
 15.0823  25.168
 15.1052  25.2538
 15.1283  25.4561
 15.1513  26.0168
 15.1743  27.2066
 15.1973  28.3813
 15.2203  28.2968
 15.2433  26.9887
 15.2663  25.8614
 15.2892  25.2626
 15.3123  25.0164
 15.3353  24.9505
 15.3583  24.8293
 15.3812  24.7431
 15.4043  24.8327
 15.4273  24.8582
 15.4503  24.8787
 15.4733  24.8553
 15.4963  24.7973
 15.5193  24.6603
 15.5423  24.6003
 15.5653  24.5301
 15.5883  24.5271
 15.6113  24.5936
 15.6343  24.6648
 15.6572  24.7528
 15.6803  24.6605
 15.7033  24.6331
 15.7263  24.6705
 15.7492  24.6746
 15.7723  24.6545
 15.7953  24.7009
 15.8183  24.7754
 15.8413  24.7199
 15.8643  24.6727
 15.8873  24.7564
 15.9103  24.855
 15.9332  24.8596
 15.9563  24.8096
 15.9793  24.7624
 16.0023  24.713
 16.0253  24.7368
 16.0482  24.7294
 16.0713  24.7348
 16.0943  24.7831
 16.1172  24.83
 16.1403  24.9425
 16.1633  25.0508
 16.1863  25.1517
 16.2093  25.297
 16.2323  25.5249
 16.2553  25.7532
 16.2783  25.6909
 16.3012  25.3989
 16.3243  25.114
 16.3472  24.9732
 16.3703  24.8263
 16.3933  24.8228
 16.4163  24.896
 16.4393  24.9235
 16.4623  24.8633
 16.4853  24.8336
 16.5083  24.8292
 16.5312  24.8281
 16.5543  24.8443
 16.5773  24.7815
 16.6002  24.7302
 16.6233  24.6765
 16.6463  24.6229
 16.6693  24.6849
 16.6923  24.6304
 16.7153  24.6124
 16.7383  24.6308
 16.7613  24.6716
 16.7843  24.5227
 16.8073  24.5463
 16.8303  24.6485
 16.8533  24.6282
 16.8763  24.563
 16.8992  24.5115
 16.9223  24.535
 16.9453  24.4534
 16.9683  24.4791
 16.9913  24.4595
 17.0143  24.3944
 17.0373  24.3847
 17.0603  24.3554
 17.0832  24.3961
 17.1063  24.3578
 17.1293  24.2722
 17.1522  24.2577
 17.1753  24.292
 17.1983  24.2818
 17.2213  24.3294
 17.2443  24.2507
 17.2673  24.0926
 17.2903  24.1375
 17.3133  24.2057
 17.3362  24.2526
 17.3593  24.2949
 17.3823  24.2777
 17.4053  24.2684
 17.4283  24.2202
 17.4513  24.0584
 17.4743  24.0792
 17.4973  24.1133
 17.5203  24.0317
 17.5433  24.0481
 17.5663  24.06
 17.5893  23.9174
 17.6123  23.9016
 17.6352  24.0002
 17.6583  24.0117
 17.6813  23.9569
 17.7042  23.9512
 17.7273  23.9518
 17.7503  23.9122
 17.7733  23.9518
 17.7963  23.9837
 17.8193  23.945
 17.8423  23.8792
 17.8653  23.8908
 17.8882  23.886
 17.9113  23.9173
 17.9343  23.9311
 17.9573  23.9267
 17.9803  24.0901
 18.0033  24.356
 18.0263  24.5681
 18.0493  24.8192
 18.0723  24.9939
 18.0953  25.2036
 18.1183  25.1788
 18.1413  24.8952
 18.1643  24.4506
 18.1872  24.111
 18.2103  24.0306
 18.2333  23.9268
 18.2563  23.8574
 18.2793  23.8367
 18.3023  23.8115
 18.3253  23.7198
 18.3483  23.7947
 18.3712  23.7537
 18.3943  23.795
 18.4173  23.7444
 18.4402  23.5389
 18.4633  23.5581
 18.4863  23.6279
 18.5093  23.6765
 18.5323  23.6728
 18.5553  23.6579
 18.5783  23.6752
 18.6013  23.6091
 18.6242  23.5512
 18.6473  23.5821
 18.6703  23.6587
 18.6933  23.6782
 18.7163  23.6779
 18.7392  23.67
 18.7623  23.5686
 18.7853  23.5397
 18.8083  23.6451
 18.8313  23.6696
 18.8543  23.627
 18.8773  23.5437
 18.9003  23.5939
 18.9232  23.6658
 18.9463  23.7081
 18.9693  23.6421
 18.9922  23.6065
 19.0153  23.5954
 19.0383  23.6395
 19.0613  23.7154
 19.0843  23.7739
 19.1073  23.6639
 19.1303  23.5619
 19.1533  23.6238
 19.1762  23.6302
 19.1993  23.7573
 19.2223  23.7376
 19.2453  23.7172
 19.2683  23.8311
 19.2913  23.9002
 19.3143  23.9508
 19.3373  24.0326
 19.3603  23.9764
 19.3833  23.9675
 19.4062  24.0108
 19.4293  23.9548
 19.4523  23.8366
 19.4752  23.8428
 19.4983  23.8412
 19.5213  23.8629
 19.5443  23.9046
 19.5673  23.8804
 19.5903  23.9617
 19.6133  24.0824
 19.6363  24.4908
 19.6593  25.109
 19.6823  26.1709
 19.7053  27.5355
 19.7283  28.2489
 19.7513  27.5573
 19.7742  26.3412
 19.7973  26.1488
 19.8203  27.1182
 19.8433  28.3004
 19.8663  28.5344
 19.8893  27.4188
 19.9123  25.9319
 19.9353  24.7153
 19.9582  24.281
 19.9813  24.1002
 20.0043  24.0006
 20.0272  23.9267
 20.0503  23.9461
 20.0733  23.9119
 20.0963  24.0292
 20.1193  24.1808
 20.1423  24.0551
 20.1653  23.8992
 20.1883  23.7773
 20.2112  23.7744
 20.2343  23.9135
 20.2573  23.8556
 20.2803  23.7428
 20.3033  23.675
 20.3263  23.7188
 20.3493  23.861
 20.3723  23.8553
 20.3953  23.8008
 20.4183  23.8121
 20.4413  23.7619
 20.4643  23.7516
 20.4873  23.8237
 20.5102  23.8551
 20.5333  23.7197
 20.5563  23.7131
 20.5792  23.7795
 20.6023  23.9312
 20.6253  23.9676
 20.6483  24.0242
 20.6713  24.1585
 20.6943  24.5927
 20.7173  25.2048
 20.7403  25.8243
 20.7632  26.2301
 20.7863  25.9828
 20.8093  25.2773
 20.8323  24.5598
 20.8553  24.1941
 20.8783  24.0337
 20.9013  24.0595
 20.9243  24.1167
 20.9473  24.1157
 20.9703  23.9848
 20.9933  24.0172
 21.0163  24.0628
 21.0393  24.0666
 21.0622  23.9592
 21.0853  24.0435
 21.1083  23.9495
 21.1313  23.9445
 21.1543  23.9191
 21.1773  23.9278
 21.2003  23.9594
 21.2233  23.9122
 21.2462  23.9414
 21.2693  23.9195
 21.2923  23.9112
 21.3152  23.9002
 21.3383  23.9788
 21.3613  24.0259
 21.3843  24.0315
 21.4073  23.9451
 21.4303  24.0104
 21.4533  24.0728
 21.4763  24.0565
 21.4992  24.1432
 21.5223  24.1895
 21.5453  24.1475
 21.5683  24.1251
 21.5913  24.1368
 21.6142  24.1447
 21.6373  24.1818
 21.6603  24.2476
 21.6833  24.1922
 21.7063  24.1709
 21.7293  24.1989
 21.7523  24.1892
 21.7753  24.1695
 21.7982  24.2373
 21.8213  24.2683
 21.8443  24.1662
 21.8672  24.2258
 21.8903  24.157
 21.9133  24.1313
 21.9363  24.1555
 21.9593  24.1654
 21.9823  24.2741
 22.0053  24.3029
 22.0283  24.3598
 22.0512  24.3792
 22.0743  24.4392
 22.0973  24.3945
 22.1203  24.4011
 22.1433  24.4429
 22.1663  24.4476
 22.1893  24.3333
 22.2123  24.2874
 22.2353  24.4546
 22.2583  24.6127
 22.2813  24.5581
 22.3043  24.6641
 22.3273  24.6655
 22.3502  24.6909
 22.3733  24.6987
 22.3963  24.6645
 22.4193  24.6586
 22.4423  24.6653
 22.4653  24.7237
 22.4883  24.7822
 22.5113  24.8771
 22.5343  24.9537
 22.5573  24.8708
 22.5803  24.827
 22.6033  24.9185
 22.6263  25.0574
 22.6493  25.0262
 22.6723  24.9894
 22.6953  25.2226
 22.7183  25.236
 22.7413  25.3083
 22.7643  25.3529
 22.7873  25.4508
 22.8103  25.6546
 22.8333  25.7165
 22.8563  25.6471
 22.8793  25.7361
 22.9022  25.8153
 22.9253  25.9711
 22.9483  26.231
 22.9713  26.4646
 22.9943  26.8489