File: test-data-xrd/xrd-map-34-ID-E/Data_0087.chi
F:\20151113_APS_34IDE\\Brian\Particle1\OCV\Data_0087.tif
2-Theta Angle (Degrees)
Intensity
       2000
 0.01725  0.0000000E+00
 0.04025  0.0000000E+00
 0.06325  0.0000000E+00
 0.08625  0.0000000E+00
 0.10925  0.0000000E+00
 0.13225  0.0000000E+00
 0.15525  0.0000000E+00
 0.17825  0.0000000E+00
 0.20125  0.0000000E+00
 0.22425  0.0000000E+00
 0.24725  0.0000000E+00
 0.27025  0.0000000E+00
 0.29325  0.0000000E+00
 0.31625  0.0000000E+00
 0.33925  0.0000000E+00
 0.36225  0.0000000E+00
 0.38525  0.0000000E+00
 0.40825  0.0000000E+00
 0.43125  0.0000000E+00
 0.45425  0.0000000E+00
 0.47725  0.0000000E+00
 0.50025  0.0000000E+00
 0.52325  0.0000000E+00
 0.54625  0.0000000E+00
 0.56925  0.0000000E+00
 0.59225  0.0000000E+00
 0.61525  0.0000000E+00
 0.63825  0.0000000E+00
 0.66125  0.0000000E+00
 0.68425  0.0000000E+00
 0.70725  0.0000000E+00
 0.73025  0.0000000E+00
 0.75325  0.0000000E+00
 0.77625  0.0000000E+00
 0.79925  0.0000000E+00
 0.82225  0.0000000E+00
 0.84525  0.0000000E+00
 0.86825  0.0000000E+00
 0.89125  0.0000000E+00
 0.91425  0.0000000E+00
 0.93725  0.0000000E+00
 0.96025  0.0000000E+00
 0.98325  0.0000000E+00
 1.00625  0.0000000E+00
 1.02925  0.0000000E+00
 1.05225  0.0000000E+00
 1.07525  0.0000000E+00
 1.09825  0.0000000E+00
 1.12125  0.0000000E+00
 1.14425  0.0000000E+00
 1.16725  0.0000000E+00
 1.19025  0.0000000E+00
 1.21325  0.0000000E+00
 1.23625  0.0000000E+00
 1.25925  0.0000000E+00
 1.28225  0.0000000E+00
 1.30525  0.0000000E+00
 1.32825  0.0000000E+00
 1.35125  0.0000000E+00
 1.37425  0.0000000E+00
 1.39725  0.0000000E+00
 1.42025  0.0000000E+00
 1.44325  0.0000000E+00
 1.46625  0.0000000E+00
 1.48925  0.0000000E+00
 1.51225  0.0000000E+00
 1.53525  0.0000000E+00
 1.55825  0.0000000E+00
 1.58125  0.0000000E+00
 1.60425  0.0000000E+00
 1.62725  0.0000000E+00
 1.65025  0.0000000E+00
 1.67325  0.0000000E+00
 1.69625  0.0000000E+00
 1.71925  0.0000000E+00
 1.74225  0.0000000E+00
 1.76525  0.0000000E+00
 1.78825  0.0000000E+00
 1.81125  0.0000000E+00
 1.83425  0.0000000E+00
 1.85725  0.0000000E+00
 1.88025  0.0000000E+00
 1.90325  0.0000000E+00
 1.92625  0.0000000E+00
 1.94925  0.0000000E+00
 1.97225  0.0000000E+00
 1.99525  0.0000000E+00
 2.01825  0.0000000E+00
 2.04125  0.0000000E+00
 2.06425  0.0000000E+00
 2.08725  0.0000000E+00
 2.11025  0.0000000E+00
 2.13325  0.0000000E+00
 2.15625  0.0000000E+00
 2.17925  0.0000000E+00
 2.20225  0.0000000E+00
 2.22525  0.0000000E+00
 2.24825  0.0000000E+00
 2.27125  0.0000000E+00
 2.29425  0.0000000E+00
 2.31725  0.0000000E+00
 2.34025  0.0000000E+00
 2.36325  0.0000000E+00
 2.38625  0.0000000E+00
 2.40925  0.0000000E+00
 2.43225  0.0000000E+00
 2.45525  0.0000000E+00
 2.47825  0.0000000E+00
 2.50125  0.0000000E+00
 2.52425  0.0000000E+00
 2.54725  0.0000000E+00
 2.57025  0.0000000E+00
 2.59325  0.0000000E+00
 2.61625  0.0000000E+00
 2.63925  0.0000000E+00
 2.66225  0.0000000E+00
 2.68525  0.0000000E+00
 2.70825  0.0000000E+00
 2.73125  0.0000000E+00
 2.75425  0.0000000E+00
 2.77725  0.0000000E+00
 2.80025  0.0000000E+00
 2.82325  31.0354
 2.84625  32.361
 2.86925  33.4084
 2.89225  33.7365
 2.91525  34.4048
 2.93825  34.0372
 2.96125  34.0102
 2.98425  35.1341
 3.00725  36.6224
 3.03025  36.6202
 3.05325  36.2384
 3.07625  36.4991
 3.09925  36.1694
 3.12225  36.3585
 3.14525  36.368
 3.16825  36.4544
 3.19125  36.32
 3.21425  36.372
 3.23725  36.0219
 3.26025  35.6515
 3.28325  35.0851
 3.30625  34.9095
 3.32925  35.0033
 3.35225  35.2392
 3.37525  35.4838
 3.39825  35.2622
 3.42125  34.4154
 3.44425  33.8565
 3.46725  33.9175
 3.49025  34.4117
 3.51325  34.0801
 3.53625  33.9839
 3.55925  34.0241
 3.58225  33.8529
 3.60525  33.5982
 3.62825  33.6676
 3.65125  33.7167
 3.67425  33.7829
 3.69725  33.6955
 3.72025  33.5092
 3.74325  33.1371
 3.76625  32.8866
 3.78925  32.5633
 3.81225  32.4743
 3.83525  32.8707
 3.85825  32.773
 3.88125  32.8738
 3.90425  32.4198
 3.92725  32.491
 3.95025  32.4587
 3.97325  32.2999
 3.99625  32.3988
 4.01925  32.4433
 4.04225  32.3635
 4.06525  32.2217
 4.08825  32.1747
 4.11125  32.113
 4.13425  32.1801
 4.15725  32.3079
 4.18025  32.2161
 4.20325  32.1632
 4.22625  32.0809
 4.24925  31.9702
 4.27225  32.0151
 4.29525  32.102
 4.31825  32.2363
 4.34125  32.2441
 4.36425  32.1795
 4.38725  32.3378
 4.41025  32.4371
 4.43325  32.2018
 4.45625  32.1278
 4.47925  32.0617
 4.50225  32.0678
 4.52525  32.2385
 4.54825  32.3768
 4.57125  32.6127
 4.59425  32.5618
 4.61725  32.6768
 4.64025  32.7399
 4.66325  32.932
 4.68625  32.7103
 4.70925  32.7545
 4.73225  32.5016
 4.75525  32.5094
 4.77825  32.6941
 4.80125  32.6345
 4.82425  32.6325
 4.84725  32.592
 4.87025  32.5561
 4.89325  32.6258
 4.91625  32.9236
 4.93925  32.9688
 4.96225  32.9444
 4.98525  32.9622
 5.00825  32.9411
 5.03125  33.0954
 5.05425  33.197
 5.07725  33.2465
 5.10025  33.3497
 5.12325  33.4977
 5.14625  33.6753
 5.16925  33.9919
 5.19225  34.1146
 5.21525  34.2376
 5.23825  34.4186
 5.26125  34.3325
 5.28425  34.1591
 5.30725  33.9334
 5.33025  34.0815
 5.35325  34.2551
 5.37625  34.5163
 5.39925  34.7326
 5.42225  34.6398
 5.44525  34.4367
 5.46825  34.488
 5.49125  34.3985
 5.51425  34.3976
 5.53725  34.6923
 5.56025  34.9997
 5.58325  35.2954
 5.60625  35.281
 5.62925  35.2313
 5.65225  35.0814
 5.67525  35.3481
 5.69825  35.4211
 5.72125  35.516
 5.74425  35.3626
 5.76725  35.3617
 5.79025  35.6202
 5.81325  35.7889
 5.83625  35.8003
 5.85925  35.7163
 5.88225  36.0238
 5.90525  36.5241
 5.92825  36.891
 5.95125  37.9262
 5.97425  39.3738
 5.99725  39.4285
 6.02025  38.0036
 6.04325  36.8876
 6.06625  36.515
 6.08925  36.6122
 6.11225  36.8587
 6.13525  36.9618
 6.15825  36.8867
 6.18125  37.0396
 6.20425  36.9593
 6.22725  36.9811
 6.25025  37.1906
 6.27325  37.539
 6.29625  37.7369
 6.31925  37.804
 6.34225  38.1113
 6.36525  38.3563
 6.38825  38.533
 6.41125  38.6407
 6.43425  38.7136
 6.45725  38.7139
 6.48025  38.7529
 6.50325  38.9787
 6.52625  39.1365
 6.54925  39.3272
 6.57225  39.4066
 6.59525  39.5438
 6.61825  39.7488
 6.64125  39.8342
 6.66425  40.0059
 6.68725  40.2765
 6.71025  40.4852
 6.73325  40.4787
 6.75625  40.4671
 6.77925  40.8098
 6.80225  41.221
 6.82525  41.4616
 6.84825  41.6204
 6.87125  41.8037
 6.89425  41.9395
 6.91725  41.8761
 6.94025  41.8915
 6.96325  41.9449
 6.98625  42.1013
 7.00925  42.4281
 7.03225  42.7713
 7.05525  42.8458
 7.07825  42.9902
 7.10125  43.1399
 7.12425  43.3262
 7.14725  43.4763
 7.17025  43.5748
 7.19325  43.6155
 7.21625  43.575
 7.23925  43.6741
 7.26225  43.7185
 7.28525  43.7641
 7.30825  43.8833
 7.33125  43.9898
 7.35425  43.9994
 7.37725  44.1386
 7.40025  44.3173
 7.42325  44.4255
 7.44625  44.4067
 7.46925  44.4441
 7.49225  44.335
 7.51525  44.3209
 7.53825  44.265
 7.56125  44.2491
 7.58425  44.4093
 7.60725  44.4286
 7.63025  44.3036
 7.65325  44.2724
 7.67625  44.3422
 7.69925  44.5318
 7.72225  44.5199
 7.74525  44.4179
 7.76825  44.3527
 7.79125  44.3605
 7.81425  44.2904
 7.83725  44.3235
 7.86025  44.4355
 7.88325  44.31
 7.90625  44.3179
 7.92925  44.294
 7.95225  44.1571
 7.97525  44.1308
 7.99825  44.1653
 8.02125  44.054
 8.04425  43.904
 8.06725  43.6446
 8.09025  43.0621
 8.11325  42.8176
 8.13625  42.6488
 8.15925  42.5713
 8.18225  42.2992
 8.20525  42.1651
 8.22825  42.0266
 8.25125  41.8236
 8.27425  41.4476
 8.29725  41.0148
 8.32025  40.7172
 8.34325  40.5659
 8.36625  40.4183
 8.38925  40.0871
 8.41225  39.6024
 8.43525  39.1575
 8.45825  38.9563
 8.48125  38.5258
 8.50425  38.0896
 8.52725  37.8618
 8.55025  37.5673
 8.57325  37.2261
 8.59625  36.8249
 8.61925  36.3543
 8.64225  35.9831
 8.66525  35.646
 8.68825  35.3102
 8.71125  34.7646
 8.73425  34.337
 8.75725  34.146
 8.78025  33.859
 8.80325  33.5454
 8.82625  33.262
 8.84925  32.8975
 8.87225  32.5603
 8.89525  32.1462
 8.91825  31.7186
 8.94125  31.4524
 8.96425  31.2026
 8.98725  30.9123
 9.01025  30.6427
 9.03325  30.339
 9.05625  30.0436
 9.07925  29.7972
 9.10225  29.5999
 9.12525  29.4435
 9.14825  29.2761
 9.17125  28.9819
 9.19425  28.6715
 9.21725  28.4946
 9.24025  28.3977
 9.26325  28.2593
 9.28625  28.0405
 9.30925  27.7399
 9.33225  27.4897
 9.35525  27.3121
 9.37825  27.085
 9.40125  26.9175
 9.42425  26.8626
 9.44725  26.678
 9.47025  26.485
 9.49325  26.3116
 9.51625  26.0928
 9.53925  25.9305
 9.56225  25.7692
 9.58525  25.6452
 9.60825  25.5279
 9.63125  25.5031
 9.65425  25.4888
 9.67725  25.3393
 9.70025  25.2113
 9.72325  25.2269
 9.74625  25.1316
 9.76925  24.9767
 9.79225  24.8876
 9.81525  24.7981
 9.83825  24.8025
 9.86125  24.6669
 9.88425  24.4502
 9.90725  24.3166
 9.93025  24.3281
 9.95325  24.2408
 9.97625  24.187
 9.99925  24.2276
 10.0222  24.1462
 10.0453  24.0623
 10.0683  24.029
 10.0913  23.9672
 10.1143  23.8203
 10.1373  23.78
 10.1603  23.7063
 10.1832  23.6519
 10.2063  23.6466
 10.2293  23.6319
 10.2523  23.4742
 10.2752  23.4945
 10.2982  23.507
 10.3213  23.5636
 10.3443  23.5163
 10.3673  23.5506
 10.3902  23.5859
 10.4133  23.5608
 10.4363  23.3512
 10.4593  23.2485
 10.4823  23.2188
 10.5053  23.2186
 10.5283  23.0853
 10.5512  23.0207
 10.5742  23.1235
 10.5973  23.0428
 10.6203  23.0108
 10.6433  23.1461
 10.6662  23.102
 10.6893  22.9583
 10.7123  22.7995
 10.7353  22.7564
 10.7583  22.7199
 10.7813  22.6545
 10.8043  22.5519
 10.8272  22.4576
 10.8503  22.4701
 10.8733  22.5697
 10.8963  22.4578
 10.9192  22.5056
 10.9422  22.5748
 10.9653  22.5305
 10.9883  22.4918
 11.0113  22.4638
 11.0343  22.4406
 11.0573  22.3856
 11.0803  22.3628
 11.1033  22.3632
 11.1263  22.4043
 11.1493  22.3853
 11.1723  22.4268
 11.1953  22.4673
 11.2182  22.4563
 11.2413  22.4566
 11.2643  22.4181
 11.2873  22.2731
 11.3102  22.3298
 11.3333  22.3568
 11.3563  22.3543
 11.3793  22.4726
 11.4023  22.7075
 11.4253  22.6497
 11.4483  22.4334
 11.4713  22.3626
 11.4942  22.4124
 11.5173  22.5114
 11.5403  22.7769
 11.5633  23.2014
 11.5862  23.7677
 11.6093  23.9291
 11.6323  23.4288
 11.6553  22.8782
 11.6783  22.52
 11.7013  22.3274
 11.7243  22.3645
 11.7473  22.3584
 11.7703  22.3068
 11.7933  22.3049
 11.8163  22.3192
 11.8393  22.3373
 11.8622  22.2918
 11.8853  22.2492
 11.9083  22.2538
 11.9313  22.3237
 11.9543  22.4565
 11.9773  22.5282
 12.0003  22.3311
 12.0233  22.1921
 12.0463  22.2773
 12.0693  22.4018
 12.0923  22.6054
 12.1153  22.6732
 12.1382  22.6995
 12.1613  22.6532
 12.1843  22.4813
 12.2073  22.3927
 12.2302  22.329
 12.2533  22.2822
 12.2763  22.2872
 12.2993  22.3397
 12.3223  22.4026
 12.3453  22.4461
 12.3683  22.5351
 12.3913  22.4987
 12.4142  22.4054
 12.4373  22.385
 12.4603  22.4331
 12.4833  22.5848
 12.5062  22.6198
 12.5292  22.6415
 12.5523  22.7918
 12.5753  22.8407
 12.5983  22.8024
 12.6212  22.7868
 12.6443  22.8115
 12.6673  22.712
 12.6903  22.7321
 12.7133  22.8467
 12.7363  22.8272
 12.7593  22.8604
 12.7822  22.9937
 12.8052  23.0364
 12.8283  23.1807
 12.8513  23.2328
 12.8742  23.2698
 12.8972  23.2665
 12.9203  23.257
 12.9433  23.4109
 12.9663  23.5993
 12.9893  23.7287
 13.0123  23.8463
 13.0353  23.981
 13.0582  24.2162
 13.0813  24.4043
 13.1043  24.6545
 13.1273  24.9119
 13.1502  25.2018
 13.1732  25.4901
 13.1963  25.6165
 13.2193  25.7472
 13.2423  26.1043
 13.2652  26.403
 13.2883  26.7773
 13.3113  27.0528
 13.3343  27.3396
 13.3573  27.6918
 13.3803  27.9298
 13.4033  28.2561
 13.4262  28.4954
 13.4492  28.5488
 13.4723  28.8143
 13.4953  29.0992
 13.5183  29.2579
 13.5412  29.2984
 13.5643  29.4532
 13.5873  29.6569
 13.6103  29.7713
 13.6333  29.7948
 13.6563  29.7717
 13.6793  29.6852
 13.7022  29.4366
 13.7253  29.2939
 13.7483  29.2418
 13.7713  29.1326
 13.7942  29.0132
 13.8172  28.8227
 13.8403  28.7585
 13.8633  28.9248
 13.8863  29.0914
 13.9093  29.4637
 13.9323  30.0491
 13.9553  30.3672
 13.9783  29.935
 14.0013  28.9248
 14.0243  28.0537
 14.0473  27.6836
 14.0703  27.4825
 14.0932  27.22
 14.1163  26.9788
 14.1393  26.8331
 14.1623  26.6882
 14.1852  26.5442
 14.2083  26.565
 14.2313  26.4879
 14.2543  26.2948
 14.2773  26.1364
 14.3003  26.0477
 14.3233  25.9433
 14.3463  25.8498
 14.3692  25.8471
 14.3923  25.8034
 14.4153  25.7003
 14.4383  25.5352
 14.4612  25.4169
 14.4843  25.338
 14.5073  25.3488
 14.5303  25.3784
 14.5533  25.4338
 14.5763  25.4202
 14.5993  25.3171
 14.6223  25.2465
 14.6453  25.2422
 14.6683  25.1932
 14.6913  25.1911
 14.7143  25.0433
 14.7372  24.8772
 14.7603  24.8306
 14.7833  24.7725
 14.8063  24.7907
 14.8293  24.7894
 14.8523  24.8398
 14.8753  24.725
 14.8983  24.702
 14.9213  24.7426
 14.9443  24.6809
 14.9673  24.5947
 14.9903  24.6146
 15.0132  24.7077
 15.0363  24.8098
 15.0593  24.7647
 15.0823  24.7259
 15.1052  24.7155
 15.1283  24.7688
 15.1513  25.0487
 15.1743  25.6027
 15.1973  26.2778
 15.2203  26.3753
 15.2433  25.7665
 15.2663  24.9665
 15.2892  24.5758
 15.3123  24.4845
 15.3353  24.5205
 15.3583  24.4136
 15.3812  24.2728
 15.4043  24.3494
 15.4273  24.3579
 15.4503  24.2697
 15.4733  24.3303
 15.4963  24.2998
 15.5193  24.3178
 15.5423  24.2447
 15.5653  24.3293
 15.5883  24.4389
 15.6113  24.4938
 15.6343  24.7813
 15.6572  24.4028
 15.6803  24.4116
 15.7033  24.358
 15.7263  24.3326
 15.7492  24.3145
 15.7723  24.458
 15.7953  24.4967
 15.8183  24.5448
 15.8413  24.4271
 15.8643  24.3767
 15.8873  24.4842
 15.9103  24.4904
 15.9332  24.4497
 15.9563  24.3673
 15.9793  24.4322
 16.0023  24.37
 16.0253  24.2056
 16.0482  24.3297
 16.0713  24.4587
 16.0943  24.5688
 16.1172  24.6768
 16.1403  24.6734
 16.1633  24.6863
 16.1863  24.7277
 16.2093  24.8639
 16.2323  25.0277
 16.2553  25.0813
 16.2783  25.0742
 16.3012  24.8747
 16.3243  24.7013
 16.3472  24.5163
 16.3703  24.4756
 16.3933  24.5103
 16.4163  24.6144
 16.4393  24.5909
 16.4623  24.4574
 16.4853  24.4244
 16.5083  24.5085
 16.5312  24.4978
 16.5543  24.5004
 16.5773  24.5385
 16.6002  24.4988
 16.6233  24.3784
 16.6463  24.3364
 16.6693  24.3572
 16.6923  24.2962
 16.7153  24.2394
 16.7383  24.2217
 16.7613  24.2646
 16.7843  24.3125
 16.8073  24.3353
 16.8303  24.2856
 16.8533  24.2925
 16.8763  24.3383
 16.8992  24.311
 16.9223  24.2398
 16.9453  24.1858
 16.9683  24.0714
 16.9913  24.0555
 17.0143  24.1411
 17.0373  24.0736
 17.0603  23.9456
 17.0832  23.9533
 17.1063  24.1171
 17.1293  24.18
 17.1522  24.0226
 17.1753  23.9503
 17.1983  24.0125
 17.2213  24.0706
 17.2443  24.0043
 17.2673  23.8658
 17.2903  23.8598
 17.3133  23.8641
 17.3362  23.8377
 17.3593  23.8251
 17.3823  23.8477
 17.4053  23.8532
 17.4283  23.9216
 17.4513  24.0015
 17.4743  23.866
 17.4973  23.83
 17.5203  23.7682
 17.5433  23.7622
 17.5663  23.6977
 17.5893  23.7008
 17.6123  23.7126
 17.6352  23.6638
 17.6583  23.6459
 17.6813  23.6662
 17.7042  23.7405
 17.7273  23.6166
 17.7503  23.4564
 17.7733  23.4682
 17.7963  23.5886
 17.8193  23.6164
 17.8423  23.621
 17.8653  23.5769
 17.8882  23.5561
 17.9113  23.4513
 17.9343  23.5038
 17.9573  23.5144
 17.9803  23.578
 18.0033  23.6369
 18.0263  23.6543
 18.0493  23.667
 18.0723  23.6249
 18.0953  23.6654
 18.1183  23.7521
 18.1413  23.747
 18.1643  23.6146
 18.1872  23.4724
 18.2103  23.4554
 18.2333  23.4501
 18.2563  23.4348
 18.2793  23.4055
 18.3023  23.4155
 18.3253  23.5204
 18.3483  23.4305
 18.3712  23.3942
 18.3943  23.4474
 18.4173  23.5411
 18.4402  23.5128
 18.4633  23.492
 18.4863  23.4138
 18.5093  23.3406
 18.5323  23.2609
 18.5553  23.2244
 18.5783  23.2143
 18.6013  23.335
 18.6242  23.5761
 18.6473  23.6748
 18.6703  23.3268
 18.6933  23.2946
 18.7163  23.2159
 18.7392  23.1774
 18.7623  23.1579
 18.7853  23.1567
 18.8083  23.2347
 18.8313  23.273
 18.8543  23.2477
 18.8773  23.2288
 18.9003  23.2757
 18.9232  23.3322
 18.9463  23.295
 18.9693  23.1925
 18.9922  23.1599
 19.0153  23.2769
 19.0383  23.3144
 19.0613  23.2773
 19.0843  23.3268
 19.1073  23.1683
 19.1303  23.1335
 19.1533  23.1544
 19.1762  23.0855
 19.1993  23.2017
 19.2223  23.3137
 19.2453  23.2999
 19.2683  23.293
 19.2913  23.2446
 19.3143  23.2507
 19.3373  23.2911
 19.3603  23.2914
 19.3833  23.3039
 19.4062  23.3775
 19.4293  23.3771
 19.4523  23.4006
 19.4752  23.4488
 19.4983  23.4142
 19.5213  23.3859
 19.5443  23.3402
 19.5673  23.3817
 19.5903  23.3877
 19.6133  23.3392
 19.6363  23.4412
 19.6593  23.6391
 19.6823  23.9024
 19.7053  24.1501
 19.7283  24.2416
 19.7513  24.1247
 19.7742  23.939
 19.7973  23.8555
 19.8203  23.9252
 19.8433  24.0284
 19.8663  24.0364
 19.8893  23.883
 19.9123  23.7025
 19.9353  23.4714
 19.9582  23.3686
 19.9813  23.3402
 20.0043  23.3797
 20.0272  23.4236
 20.0503  23.4197
 20.0733  23.3248
 20.0963  23.3355
 20.1193  23.3849
 20.1423  23.5001
 20.1653  23.4958
 20.1883  23.4347
 20.2112  23.4411
 20.2343  23.4947
 20.2573  23.4165
 20.2803  23.3558
 20.3033  23.4038
 20.3263  23.3945
 20.3493  23.3667
 20.3723  23.3988
 20.3953  23.4391
 20.4183  23.5433
 20.4413  23.5825
 20.4643  23.4858
 20.4873  23.4037
 20.5102  23.4571
 20.5333  23.4031
 20.5563  23.4719
 20.5792  23.4858
 20.6023  23.5435
 20.6253  23.4793
 20.6483  23.4633
 20.6713  23.4823
 20.6943  23.6226
 20.7173  23.7537
 20.7403  23.8937
 20.7632  24.0508
 20.7863  24.0097
 20.8093  23.8703
 20.8323  23.6998
 20.8553  23.6511
 20.8783  23.6481
 20.9013  23.582
 20.9243  23.6347
 20.9473  23.6058
 20.9703  23.4573
 20.9933  23.4323
 21.0163  23.5469
 21.0393  23.7052
 21.0622  23.7412
 21.0853  23.6205
 21.1083  23.4744
 21.1313  23.4714
 21.1543  23.4863
 21.1773  23.6319
 21.2003  23.5801
 21.2233  23.5228
 21.2462  23.6219
 21.2693  23.6982
 21.2923  23.6884
 21.3152  23.6535
 21.3383  23.5729
 21.3613  23.5766
 21.3843  23.602
 21.4073  23.6596
 21.4303  23.7527
 21.4533  23.7794
 21.4763  23.8026
 21.4992  23.8531
 21.5223  23.8386
 21.5453  23.7855
 21.5683  23.6525
 21.5913  23.7303
 21.6142  23.8861
 21.6373  23.7979
 21.6603  23.737
 21.6833  23.7908
 21.7063  23.7409
 21.7293  23.8335
 21.7523  23.8318
 21.7753  23.7366
 21.7982  23.7758
 21.8213  23.9133
 21.8443  23.8578
 21.8672  23.9023
 21.8903  23.8931
 21.9133  23.9761
 21.9363  24.0301
 21.9593  23.9295
 21.9823  23.9156
 22.0053  23.9961
 22.0283  24.0088
 22.0512  23.9458
 22.0743  23.9632
 22.0973  24.0123
 22.1203  24.0145
 22.1433  24.0718
 22.1663  24.0573
 22.1893  23.9974
 22.2123  23.9944
 22.2353  24.0766
 22.2583  24.161
 22.2813  24.1386
 22.3043  24.163
 22.3273  24.1797
 22.3502  24.211
 22.3733  24.3147
 22.3963  24.2833
 22.4193  24.2356
 22.4423  24.3676
 22.4653  24.4019
 22.4883  24.3948
 22.5113  24.5072
 22.5343  24.5485
 22.5573  24.5275
 22.5803  24.5537
 22.6033  24.611
 22.6263  24.7157
 22.6493  24.8371
 22.6723  25.2052
 22.6953  25.102
 22.7183  24.8788
 22.7413  24.9153
 22.7643  24.9339
 22.7873  24.8935
 22.8103  24.9956
 22.8333  25.1213
 22.8563  25.2047
 22.8793  25.3269
 22.9022  25.4068
 22.9253  25.48
 22.9483  25.5851
 22.9713  25.7472
 22.9943  25.913