File: test-data-xrd/xrd-map-34-ID-E/Data_0066.chi
F:\20151113_APS_34IDE\\Brian\Particle1\OCV\Data_0066.tif
2-Theta Angle (Degrees)
Intensity
       2000
 0.01725  0.0000000E+00
 0.04025  0.0000000E+00
 0.06325  0.0000000E+00
 0.08625  0.0000000E+00
 0.10925  0.0000000E+00
 0.13225  0.0000000E+00
 0.15525  0.0000000E+00
 0.17825  0.0000000E+00
 0.20125  0.0000000E+00
 0.22425  0.0000000E+00
 0.24725  0.0000000E+00
 0.27025  0.0000000E+00
 0.29325  0.0000000E+00
 0.31625  0.0000000E+00
 0.33925  0.0000000E+00
 0.36225  0.0000000E+00
 0.38525  0.0000000E+00
 0.40825  0.0000000E+00
 0.43125  0.0000000E+00
 0.45425  0.0000000E+00
 0.47725  0.0000000E+00
 0.50025  0.0000000E+00
 0.52325  0.0000000E+00
 0.54625  0.0000000E+00
 0.56925  0.0000000E+00
 0.59225  0.0000000E+00
 0.61525  0.0000000E+00
 0.63825  0.0000000E+00
 0.66125  0.0000000E+00
 0.68425  0.0000000E+00
 0.70725  0.0000000E+00
 0.73025  0.0000000E+00
 0.75325  0.0000000E+00
 0.77625  0.0000000E+00
 0.79925  0.0000000E+00
 0.82225  0.0000000E+00
 0.84525  0.0000000E+00
 0.86825  0.0000000E+00
 0.89125  0.0000000E+00
 0.91425  0.0000000E+00
 0.93725  0.0000000E+00
 0.96025  0.0000000E+00
 0.98325  0.0000000E+00
 1.00625  0.0000000E+00
 1.02925  0.0000000E+00
 1.05225  0.0000000E+00
 1.07525  0.0000000E+00
 1.09825  0.0000000E+00
 1.12125  0.0000000E+00
 1.14425  0.0000000E+00
 1.16725  0.0000000E+00
 1.19025  0.0000000E+00
 1.21325  0.0000000E+00
 1.23625  0.0000000E+00
 1.25925  0.0000000E+00
 1.28225  0.0000000E+00
 1.30525  0.0000000E+00
 1.32825  0.0000000E+00
 1.35125  0.0000000E+00
 1.37425  0.0000000E+00
 1.39725  0.0000000E+00
 1.42025  0.0000000E+00
 1.44325  0.0000000E+00
 1.46625  0.0000000E+00
 1.48925  0.0000000E+00
 1.51225  0.0000000E+00
 1.53525  0.0000000E+00
 1.55825  0.0000000E+00
 1.58125  0.0000000E+00
 1.60425  0.0000000E+00
 1.62725  0.0000000E+00
 1.65025  0.0000000E+00
 1.67325  0.0000000E+00
 1.69625  0.0000000E+00
 1.71925  0.0000000E+00
 1.74225  0.0000000E+00
 1.76525  0.0000000E+00
 1.78825  0.0000000E+00
 1.81125  0.0000000E+00
 1.83425  0.0000000E+00
 1.85725  0.0000000E+00
 1.88025  0.0000000E+00
 1.90325  0.0000000E+00
 1.92625  0.0000000E+00
 1.94925  0.0000000E+00
 1.97225  0.0000000E+00
 1.99525  0.0000000E+00
 2.01825  0.0000000E+00
 2.04125  0.0000000E+00
 2.06425  0.0000000E+00
 2.08725  0.0000000E+00
 2.11025  0.0000000E+00
 2.13325  0.0000000E+00
 2.15625  0.0000000E+00
 2.17925  0.0000000E+00
 2.20225  0.0000000E+00
 2.22525  0.0000000E+00
 2.24825  0.0000000E+00
 2.27125  0.0000000E+00
 2.29425  0.0000000E+00
 2.31725  0.0000000E+00
 2.34025  0.0000000E+00
 2.36325  0.0000000E+00
 2.38625  0.0000000E+00
 2.40925  0.0000000E+00
 2.43225  0.0000000E+00
 2.45525  0.0000000E+00
 2.47825  0.0000000E+00
 2.50125  0.0000000E+00
 2.52425  0.0000000E+00
 2.54725  0.0000000E+00
 2.57025  0.0000000E+00
 2.59325  0.0000000E+00
 2.61625  0.0000000E+00
 2.63925  0.0000000E+00
 2.66225  0.0000000E+00
 2.68525  0.0000000E+00
 2.70825  0.0000000E+00
 2.73125  0.0000000E+00
 2.75425  0.0000000E+00
 2.77725  0.0000000E+00
 2.80025  0.0000000E+00
 2.82325  34.7134
 2.84625  34.8291
 2.86925  34.6635
 2.89225  35.4635
 2.91525  36.1157
 2.93825  35.9911
 2.96125  35.8441
 2.98425  35.4772
 3.00725  35.8364
 3.03025  35.7264
 3.05325  34.8706
 3.07625  34.4738
 3.09925  34.8325
 3.12225  35.0622
 3.14525  34.9122
 3.16825  35.4452
 3.19125  35.4336
 3.21425  34.754
 3.23725  34.1322
 3.26025  34.1497
 3.28325  33.6289
 3.30625  33.4803
 3.32925  33.8422
 3.35225  34.4647
 3.37525  34.5626
 3.39825  34.478
 3.42125  34.3918
 3.44425  34.5284
 3.46725  34.7975
 3.49025  35.0778
 3.51325  34.5867
 3.53625  34.4259
 3.55925  34.4607
 3.58225  33.5424
 3.60525  32.8463
 3.62825  32.8882
 3.65125  33.2914
 3.67425  33.373
 3.69725  33.241
 3.72025  32.9105
 3.74325  32.9212
 3.76625  32.9357
 3.78925  32.7296
 3.81225  32.51
 3.83525  32.236
 3.85825  31.9729
 3.88125  32.0186
 3.90425  32.1051
 3.92725  32.2946
 3.95025  32.203
 3.97325  32.3768
 3.99625  32.5852
 4.01925  32.5905
 4.04225  32.1504
 4.06525  31.9527
 4.08825  32.051
 4.11125  32.12
 4.13425  32.1283
 4.15725  32.3721
 4.18025  32.1608
 4.20325  31.8715
 4.22625  32.0234
 4.24925  32.0847
 4.27225  32.0787
 4.29525  31.8984
 4.31825  31.9019
 4.34125  32.0881
 4.36425  31.8482
 4.38725  31.9047
 4.41025  32.1906
 4.43325  32.1014
 4.45625  31.9589
 4.47925  32.1006
 4.50225  32.1409
 4.52525  32.422
 4.54825  32.3425
 4.57125  32.2656
 4.59425  32.5492
 4.61725  32.7957
 4.64025  32.6725
 4.66325  32.5052
 4.68625  32.5742
 4.70925  32.5937
 4.73225  32.3261
 4.75525  32.0014
 4.77825  32.0143
 4.80125  32.1454
 4.82425  32.3381
 4.84725  32.4095
 4.87025  32.6429
 4.89325  32.544
 4.91625  32.5101
 4.93925  32.6631
 4.96225  32.5215
 4.98525  32.658
 5.00825  32.9354
 5.03125  33.1349
 5.05425  32.9994
 5.07725  32.9561
 5.10025  32.9856
 5.12325  33.0527
 5.14625  33.2312
 5.16925  33.2134
 5.19225  33.2762
 5.21525  33.488
 5.23825  33.722
 5.26125  33.8815
 5.28425  33.6143
 5.30725  33.4769
 5.33025  33.6459
 5.35325  33.8827
 5.37625  33.9493
 5.39925  34.0675
 5.42225  34.0015
 5.44525  33.9737
 5.46825  34.2476
 5.49125  34.3548
 5.51425  34.5658
 5.53725  34.8195
 5.56025  34.7737
 5.58325  34.6045
 5.60625  34.5078
 5.62925  34.411
 5.65225  34.5937
 5.67525  34.7894
 5.69825  34.8364
 5.72125  34.9745
 5.74425  35.1278
 5.76725  35.2313
 5.79025  35.3346
 5.81325  35.2735
 5.83625  35.1811
 5.85925  35.1405
 5.88225  35.3753
 5.90525  35.9047
 5.92825  36.2
 5.95125  37.3444
 5.97425  39.0191
 5.99725  39.1809
 6.02025  37.8427
 6.04325  36.7225
 6.06625  36.3967
 6.08925  36.4127
 6.11225  36.4396
 6.13525  36.4425
 6.15825  36.5162
 6.18125  36.7096
 6.20425  36.8959
 6.22725  36.8839
 6.25025  36.9135
 6.27325  37.1076
 6.29625  37.2635
 6.31925  37.3761
 6.34225  37.6178
 6.36525  37.6868
 6.38825  37.6249
 6.41125  37.8003
 6.43425  38.1735
 6.45725  38.2712
 6.48025  38.353
 6.50325  38.5396
 6.52625  38.7449
 6.54925  38.8431
 6.57225  38.8459
 6.59525  39.1345
 6.61825  39.4569
 6.64125  39.6817
 6.66425  39.7023
 6.68725  39.6436
 6.71025  39.6297
 6.73325  39.917
 6.75625  40.2698
 6.77925  40.4897
 6.80225  40.6638
 6.82525  40.9662
 6.84825  41.0832
 6.87125  41.2345
 6.89425  41.2281
 6.91725  41.3586
 6.94025  41.3906
 6.96325  41.7083
 6.98625  41.6848
 7.00925  41.7653
 7.03225  42.0123
 7.05525  42.3406
 7.07825  42.4749
 7.10125  42.4625
 7.12425  42.6205
 7.14725  42.6354
 7.17025  42.6408
 7.19325  42.8934
 7.21625  43.0125
 7.23925  43.1152
 7.26225  43.1263
 7.28525  43.082
 7.30825  43.0577
 7.33125  43.2052
 7.35425  43.1793
 7.37725  43.1517
 7.40025  43.2714
 7.42325  43.5759
 7.44625  43.5135
 7.46925  43.5748
 7.49225  43.6107
 7.51525  43.7134
 7.53825  43.8312
 7.56125  43.9802
 7.58425  44.0109
 7.60725  43.9313
 7.63025  43.76
 7.65325  43.7071
 7.67625  43.7966
 7.69925  43.9153
 7.72225  43.9188
 7.74525  43.766
 7.76825  43.6665
 7.79125  43.8223
 7.81425  43.9186
 7.83725  43.8263
 7.86025  43.8473
 7.88325  43.6793
 7.90625  43.5494
 7.92925  43.4379
 7.95225  43.3797
 7.97525  43.3271
 7.99825  43.1626
 8.02125  42.9118
 8.04425  42.767
 8.06725  42.6195
 8.09025  42.6362
 8.11325  42.5537
 8.13625  42.227
 8.15925  41.8479
 8.18225  41.578
 8.20525  41.2963
 8.22825  40.9677
 8.25125  40.8528
 8.27425  40.661
 8.29725  40.3359
 8.32025  40.0753
 8.34325  39.5528
 8.36625  39.2008
 8.38925  38.89
 8.41225  38.6672
 8.43525  38.3779
 8.45825  38.036
 8.48125  37.8101
 8.50425  37.5841
 8.52725  37.3016
 8.55025  36.8451
 8.57325  36.3956
 8.59625  35.9766
 8.61925  35.6466
 8.64225  35.4322
 8.66525  35.0544
 8.68825  34.735
 8.71125  34.4187
 8.73425  34.0225
 8.75725  33.4964
 8.78025  33.1902
 8.80325  32.8721
 8.82625  32.605
 8.84925  32.3108
 8.87225  32.0694
 8.89525  31.7917
 8.91825  31.5397
 8.94125  31.1949
 8.96425  30.8974
 8.98725  30.7125
 9.01025  30.4374
 9.03325  30.1725
 9.05625  29.8239
 9.07925  29.5068
 9.10225  29.2384
 9.12525  29.0725
 9.14825  28.9904
 9.17125  28.6829
 9.19425  28.4305
 9.21725  28.1654
 9.24025  28.0165
 9.26325  27.7915
 9.28625  27.5538
 9.30925  27.2688
 9.33225  27.0789
 9.35525  26.8051
 9.37825  26.6719
 9.40125  26.5809
 9.42425  26.4406
 9.44725  26.2638
 9.47025  26.2203
 9.49325  26.1875
 9.51625  26.0788
 9.53925  25.9476
 9.56225  25.6874
 9.58525  25.4599
 9.60825  25.3926
 9.63125  25.2932
 9.65425  25.2015
 9.67725  25.0426
 9.70025  24.8699
 9.72325  24.8309
 9.74625  24.7574
 9.76925  24.6829
 9.79225  24.561
 9.81525  24.4483
 9.83825  24.375
 9.86125  24.3429
 9.88425  24.3381
 9.90725  24.3566
 9.93025  24.1759
 9.95325  23.9449
 9.97625  23.8802
 9.99925  23.8025
 10.0222  23.7958
 10.0453  23.8021
 10.0683  23.6814
 10.0913  23.5706
 10.1143  23.532
 10.1373  23.6276
 10.1603  23.6421
 10.1832  23.6174
 10.2063  23.5907
 10.2293  23.5826
 10.2523  23.4752
 10.2752  23.3798
 10.2982  23.3527
 10.3213  23.2173
 10.3443  23.1448
 10.3673  23.0935
 10.3902  23.2075
 10.4133  23.2176
 10.4363  23.0808
 10.4593  22.9901
 10.4823  22.989
 10.5053  22.8662
 10.5283  22.7494
 10.5512  22.6511
 10.5742  22.6682
 10.5973  22.6
 10.6203  22.6778
 10.6433  22.783
 10.6662  22.7358
 10.6893  22.6168
 10.7123  22.5744
 10.7353  22.4603
 10.7583  22.433
 10.7813  22.444
 10.8043  22.419
 10.8272  22.3701
 10.8503  22.3609
 10.8733  22.4097
 10.8963  22.3853
 10.9192  22.3343
 10.9422  22.2927
 10.9653  22.3235
 10.9883  22.2717
 11.0113  22.125
 11.0343  22.1514
 11.0573  22.1395
 11.0803  22.195
 11.1033  22.1677
 11.1263  22.2409
 11.1493  22.2732
 11.1723  22.2592
 11.1953  22.1687
 11.2182  22.1991
 11.2413  22.159
 11.2643  22.1939
 11.2873  22.1523
 11.3102  22.1745
 11.3333  22.131
 11.3563  22.0392
 11.3793  22.0691
 11.4023  22.2744
 11.4253  22.2847
 11.4483  22.2878
 11.4713  22.2498
 11.4942  22.2065
 11.5173  22.2938
 11.5403  22.459
 11.5633  22.829
 11.5862  23.201
 11.6093  23.302
 11.6323  22.9689
 11.6553  22.6117
 11.6783  22.3376
 11.7013  22.1857
 11.7243  22.0469
 11.7473  22.1313
 11.7703  22.2464
 11.7933  22.1807
 11.8163  22.1378
 11.8393  22.1388
 11.8622  22.0663
 11.8853  21.9689
 11.9083  22.0531
 11.9313  22.1888
 11.9543  22.3302
 11.9773  22.3603
 12.0003  22.3019
 12.0233  22.2569
 12.0463  22.2327
 12.0693  22.3445
 12.0923  22.4785
 12.1153  22.5988
 12.1382  22.5765
 12.1613  22.413
 12.1843  22.2454
 12.2073  22.147
 12.2302  22.0646
 12.2533  22.1368
 12.2763  22.2697
 12.2993  22.6643
 12.3223  22.6211
 12.3453  22.3203
 12.3683  22.3144
 12.3913  22.2481
 12.4142  22.1163
 12.4373  22.1221
 12.4603  22.206
 12.4833  22.3093
 12.5062  22.3558
 12.5292  22.3481
 12.5523  22.4042
 12.5753  22.3107
 12.5983  22.3056
 12.6212  22.4584
 12.6443  22.5009
 12.6673  22.4848
 12.6903  22.5996
 12.7133  22.7577
 12.7363  22.7777
 12.7593  22.7204
 12.7822  22.8443
 12.8052  22.9104
 12.8283  22.9627
 12.8513  23.0681
 12.8742  23.1985
 12.8972  23.1773
 12.9203  23.2326
 12.9433  23.3245
 12.9663  23.5105
 12.9893  23.6558
 13.0123  23.7194
 13.0353  23.8695
 13.0582  24.0394
 13.0813  24.1991
 13.1043  24.4993
 13.1273  24.652
 13.1502  24.7498
 13.1732  24.9845
 13.1963  25.2019
 13.2193  25.5289
 13.2423  25.8941
 13.2652  26.2272
 13.2883  26.5441
 13.3113  26.7994
 13.3343  27.0953
 13.3573  27.4501
 13.3803  27.6283
 13.4033  27.904
 13.4262  28.1897
 13.4492  28.3948
 13.4723  28.5829
 13.4953  28.7658
 13.5183  28.8399
 13.5412  28.9687
 13.5643  29.0527
 13.5873  29.1327
 13.6103  29.2286
 13.6333  29.301
 13.6563  29.2784
 13.6793  29.3347
 13.7022  29.1636
 13.7253  28.9293
 13.7483  28.856
 13.7713  28.8719
 13.7942  28.814
 13.8172  28.6111
 13.8403  28.3767
 13.8633  28.3763
 13.8863  28.4056
 13.9093  28.8385
 13.9323  29.8241
 13.9553  30.7423
 13.9783  30.4322
 14.0013  28.8463
 14.0243  27.6337
 14.0473  27.2482
 14.0703  27.2301
 14.0932  27.0001
 14.1163  26.7022
 14.1393  26.6243
 14.1623  26.5465
 14.1852  26.4715
 14.2083  26.3761
 14.2313  26.1643
 14.2543  25.9784
 14.2773  25.9543
 14.3003  25.979
 14.3233  25.8741
 14.3463  25.8384
 14.3692  25.7401
 14.3923  25.6737
 14.4153  25.5352
 14.4383  25.4481
 14.4612  25.24
 14.4843  25.192
 14.5073  25.2343
 14.5303  25.1583
 14.5533  25.3322
 14.5763  25.5771
 14.5993  25.3291
 14.6223  24.9573
 14.6453  24.925
 14.6683  24.8997
 14.6913  24.9232
 14.7143  24.8857
 14.7372  24.7243
 14.7603  24.6491
 14.7833  24.6759
 14.8063  24.6738
 14.8293  24.5449
 14.8523  24.5645
 14.8753  24.5343
 14.8983  24.7139
 14.9213  24.8118
 14.9443  24.6814
 14.9673  24.5238
 14.9903  24.4225
 15.0132  24.3623
 15.0363  24.3701
 15.0593  24.4126
 15.0823  24.4262
 15.1052  24.4849
 15.1283  24.5143
 15.1513  24.681
 15.1743  24.8819
 15.1973  24.8358
 15.2203  24.6184
 15.2433  24.3294
 15.2663  24.0499
 15.2892  23.9841
 15.3123  24.1023
 15.3353  24.1199
 15.3583  24.0759
 15.3812  24.1381
 15.4043  24.1935
 15.4273  24.1375
 15.4503  24.1384
 15.4733  24.1166
 15.4963  24.12
 15.5193  24.0847
 15.5423  24.0947
 15.5653  24.1073
 15.5883  24.1753
 15.6113  24.1624
 15.6343  24.1356
 15.6572  24.2014
 15.6803  24.3355
 15.7033  24.3425
 15.7263  24.2325
 15.7492  24.1664
 15.7723  24.2395
 15.7953  24.1886
 15.8183  24.1578
 15.8413  24.123
 15.8643  24.1611
 15.8873  24.3637
 15.9103  24.3226
 15.9332  24.2071
 15.9563  24.0666
 15.9793  24.0881
 16.0023  24.1556
 16.0253  24.1608
 16.0482  24.258
 16.0713  24.4369
 16.0943  24.3925
 16.1172  24.4377
 16.1403  24.4779
 16.1633  24.5977
 16.1863  24.5449
 16.2093  24.6001
 16.2323  24.5937
 16.2553  24.6637
 16.2783  24.8264
 16.3012  24.6776
 16.3243  24.5318
 16.3472  24.4159
 16.3703  24.3771
 16.3933  24.3646
 16.4163  24.3473
 16.4393  24.3528
 16.4623  24.3627
 16.4853  24.4516
 16.5083  24.4999
 16.5312  24.3625
 16.5543  24.2533
 16.5773  24.2437
 16.6002  24.3034
 16.6233  24.2814
 16.6463  24.199
 16.6693  24.1472
 16.6923  24.2626
 16.7153  24.2626
 16.7383  24.2147
 16.7613  24.1869
 16.7843  24.1049
 16.8073  24.0849
 16.8303  24.107
 16.8533  24.0661
 16.8763  23.952
 16.8992  23.9583
 16.9223  23.921
 16.9453  23.8743
 16.9683  23.9098
 16.9913  23.9568
 17.0143  23.9227
 17.0373  23.8845
 17.0603  23.8151
 17.0832  23.8614
 17.1063  23.7997
 17.1293  23.8497
 17.1522  23.8087
 17.1753  23.7923
 17.1983  23.8707
 17.2213  23.8618
 17.2443  23.7562
 17.2673  23.7685
 17.2903  23.7132
 17.3133  23.6454
 17.3362  23.6228
 17.3593  23.739
 17.3823  23.6451
 17.4053  23.5573
 17.4283  23.4817
 17.4513  23.5241
 17.4743  23.6192
 17.4973  23.6929
 17.5203  23.662
 17.5433  23.5888
 17.5663  23.5107
 17.5893  23.4942
 17.6123  23.4667
 17.6352  23.4971
 17.6583  23.4446
 17.6813  23.4868
 17.7042  23.4837
 17.7273  23.4125
 17.7503  23.437
 17.7733  23.5417
 17.7963  23.4776
 17.8193  23.475
 17.8423  23.46
 17.8653  23.4458
 17.8882  23.4034
 17.9113  23.3637
 17.9343  23.3554
 17.9573  23.3654
 17.9803  23.3792
 18.0033  23.5006
 18.0263  23.5329
 18.0493  23.5296
 18.0723  23.62
 18.0953  23.8348
 18.1183  23.8404
 18.1413  23.5907
 18.1643  23.3379
 18.1872  23.2016
 18.2103  23.1741
 18.2333  23.109
 18.2563  23.1245
 18.2793  23.1917
 18.3023  23.2567
 18.3253  23.2016
 18.3483  23.2025
 18.3712  23.2376
 18.3943  23.2269
 18.4173  23.2488
 18.4402  23.237
 18.4633  23.2285
 18.4863  23.2686
 18.5093  23.2482
 18.5323  23.1996
 18.5553  23.182
 18.5783  23.1718
 18.6013  23.1511
 18.6242  23.1813
 18.6473  23.2262
 18.6703  23.1258
 18.6933  23.1588
 18.7163  23.1254
 18.7392  23.0706
 18.7623  23.0562
 18.7853  23.1735
 18.8083  23.2091
 18.8313  23.1696
 18.8543  23.0825
 18.8773  23.0807
 18.9003  23.0951
 18.9232  23.1765
 18.9463  23.2372
 18.9693  23.2116
 18.9922  23.0574
 19.0153  23.0687
 19.0383  23.0936
 19.0613  23.1516
 19.0843  23.2045
 19.1073  23.1464
 19.1303  23.1534
 19.1533  23.1379
 19.1762  23.0509
 19.1993  23.0712
 19.2223  23.0747
 19.2453  23.0972
 19.2683  23.1453
 19.2913  23.0853
 19.3143  23.1118
 19.3373  23.0674
 19.3603  23.1116
 19.3833  23.1656
 19.4062  23.1848
 19.4293  23.1275
 19.4523  23.2458
 19.4752  23.4495
 19.4983  23.2138
 19.5213  23.1852
 19.5443  23.2513
 19.5673  23.2709
 19.5903  23.2456
 19.6133  23.1833
 19.6363  23.244
 19.6593  23.4636
 19.6823  23.629
 19.7053  23.8085
 19.7283  23.7446
 19.7513  23.6175
 19.7742  23.5784
 19.7973  23.4836
 19.8203  23.5059
 19.8433  23.6644
 19.8663  23.7322
 19.8893  23.6059
 19.9123  23.5593
 19.9353  23.3782
 19.9582  23.2849
 19.9813  23.2985
 20.0043  23.2636
 20.0272  23.2382
 20.0503  23.3433
 20.0733  23.2989
 20.0963  23.2669
 20.1193  23.1718
 20.1423  23.1938
 20.1653  23.2421
 20.1883  23.3228
 20.2112  23.3202
 20.2343  23.3077
 20.2573  23.1939
 20.2803  23.2174
 20.3033  23.2104
 20.3263  23.1366
 20.3493  23.1896
 20.3723  23.3263
 20.3953  23.3664
 20.4183  23.4936
 20.4413  23.5399
 20.4643  23.4136
 20.4873  23.3473
 20.5102  23.3242
 20.5333  23.3308
 20.5563  23.5008
 20.5792  23.463
 20.6023  23.4141
 20.6253  23.4262
 20.6483  23.4089
 20.6713  23.4309
 20.6943  23.5506
 20.7173  23.7448
 20.7403  23.7385
 20.7632  23.8524
 20.7863  23.7778
 20.8093  23.6203
 20.8323  23.5506
 20.8553  23.536
 20.8783  23.5002
 20.9013  23.5342
 20.9243  23.5482
 20.9473  23.4992
 20.9703  23.4924
 20.9933  23.5278
 21.0163  23.4447
 21.0393  23.3972
 21.0622  23.4024
 21.0853  23.4576
 21.1083  23.4472
 21.1313  23.5839
 21.1543  23.5148
 21.1773  23.4888
 21.2003  23.5713
 21.2233  23.5821
 21.2462  23.6101
 21.2693  23.6195
 21.2923  23.5593
 21.3152  23.5189
 21.3383  23.5918
 21.3613  23.4904
 21.3843  23.5088
 21.4073  23.6137
 21.4303  23.6288
 21.4533  23.5805
 21.4763  23.5207
 21.4992  23.6181
 21.5223  23.6676
 21.5453  23.7339
 21.5683  23.7499
 21.5913  23.7488
 21.6142  23.7186
 21.6373  23.7743
 21.6603  23.8082
 21.6833  23.7389
 21.7063  23.7184
 21.7293  23.7113
 21.7523  23.7184
 21.7753  23.6683
 21.7982  23.7011
 21.8213  23.7988
 21.8443  23.7355
 21.8672  23.7822
 21.8903  23.7905
 21.9133  23.8463
 21.9363  23.9427
 21.9593  23.8867
 21.9823  23.7965
 22.0053  23.7621
 22.0283  23.9189
 22.0512  23.8627
 22.0743  23.9357
 22.0973  23.9872
 22.1203  24.0058
 22.1433  23.9493
 22.1663  23.9722
 22.1893  23.9424
 22.2123  24.083
 22.2353  24.1443
 22.2583  24.1235
 22.2813  24.1488
 22.3043  24.1376
 22.3273  24.1942
 22.3502  24.2001
 22.3733  24.1557
 22.3963  24.2192
 22.4193  24.2363
 22.4423  24.2934
 22.4653  24.31
 22.4883  24.3273
 22.5113  24.5269
 22.5343  24.5771
 22.5573  24.5209
 22.5803  24.5571
 22.6033  24.6113
 22.6263  24.6669
 22.6493  24.6637
 22.6723  24.692
 22.6953  24.7481
 22.7183  24.7496
 22.7413  24.7515
 22.7643  24.969
 22.7873  24.9452
 22.8103  24.9679
 22.8333  25.0624
 22.8563  25.1345
 22.8793  25.2953
 22.9022  25.349
 22.9253  25.4824
 22.9483  25.5114
 22.9713  25.6553
 22.9943  25.885