File: test-data-xrd/xrd-map-34-ID-E/Data_0058.chi
F:\20151113_APS_34IDE\\Brian\Particle1\OCV\Data_0058.tif
2-Theta Angle (Degrees)
Intensity
       2000
 0.01725  0.0000000E+00
 0.04025  0.0000000E+00
 0.06325  0.0000000E+00
 0.08625  0.0000000E+00
 0.10925  0.0000000E+00
 0.13225  0.0000000E+00
 0.15525  0.0000000E+00
 0.17825  0.0000000E+00
 0.20125  0.0000000E+00
 0.22425  0.0000000E+00
 0.24725  0.0000000E+00
 0.27025  0.0000000E+00
 0.29325  0.0000000E+00
 0.31625  0.0000000E+00
 0.33925  0.0000000E+00
 0.36225  0.0000000E+00
 0.38525  0.0000000E+00
 0.40825  0.0000000E+00
 0.43125  0.0000000E+00
 0.45425  0.0000000E+00
 0.47725  0.0000000E+00
 0.50025  0.0000000E+00
 0.52325  0.0000000E+00
 0.54625  0.0000000E+00
 0.56925  0.0000000E+00
 0.59225  0.0000000E+00
 0.61525  0.0000000E+00
 0.63825  0.0000000E+00
 0.66125  0.0000000E+00
 0.68425  0.0000000E+00
 0.70725  0.0000000E+00
 0.73025  0.0000000E+00
 0.75325  0.0000000E+00
 0.77625  0.0000000E+00
 0.79925  0.0000000E+00
 0.82225  0.0000000E+00
 0.84525  0.0000000E+00
 0.86825  0.0000000E+00
 0.89125  0.0000000E+00
 0.91425  0.0000000E+00
 0.93725  0.0000000E+00
 0.96025  0.0000000E+00
 0.98325  0.0000000E+00
 1.00625  0.0000000E+00
 1.02925  0.0000000E+00
 1.05225  0.0000000E+00
 1.07525  0.0000000E+00
 1.09825  0.0000000E+00
 1.12125  0.0000000E+00
 1.14425  0.0000000E+00
 1.16725  0.0000000E+00
 1.19025  0.0000000E+00
 1.21325  0.0000000E+00
 1.23625  0.0000000E+00
 1.25925  0.0000000E+00
 1.28225  0.0000000E+00
 1.30525  0.0000000E+00
 1.32825  0.0000000E+00
 1.35125  0.0000000E+00
 1.37425  0.0000000E+00
 1.39725  0.0000000E+00
 1.42025  0.0000000E+00
 1.44325  0.0000000E+00
 1.46625  0.0000000E+00
 1.48925  0.0000000E+00
 1.51225  0.0000000E+00
 1.53525  0.0000000E+00
 1.55825  0.0000000E+00
 1.58125  0.0000000E+00
 1.60425  0.0000000E+00
 1.62725  0.0000000E+00
 1.65025  0.0000000E+00
 1.67325  0.0000000E+00
 1.69625  0.0000000E+00
 1.71925  0.0000000E+00
 1.74225  0.0000000E+00
 1.76525  0.0000000E+00
 1.78825  0.0000000E+00
 1.81125  0.0000000E+00
 1.83425  0.0000000E+00
 1.85725  0.0000000E+00
 1.88025  0.0000000E+00
 1.90325  0.0000000E+00
 1.92625  0.0000000E+00
 1.94925  0.0000000E+00
 1.97225  0.0000000E+00
 1.99525  0.0000000E+00
 2.01825  0.0000000E+00
 2.04125  0.0000000E+00
 2.06425  0.0000000E+00
 2.08725  0.0000000E+00
 2.11025  0.0000000E+00
 2.13325  0.0000000E+00
 2.15625  0.0000000E+00
 2.17925  0.0000000E+00
 2.20225  0.0000000E+00
 2.22525  0.0000000E+00
 2.24825  0.0000000E+00
 2.27125  0.0000000E+00
 2.29425  0.0000000E+00
 2.31725  0.0000000E+00
 2.34025  0.0000000E+00
 2.36325  0.0000000E+00
 2.38625  0.0000000E+00
 2.40925  0.0000000E+00
 2.43225  0.0000000E+00
 2.45525  0.0000000E+00
 2.47825  0.0000000E+00
 2.50125  0.0000000E+00
 2.52425  0.0000000E+00
 2.54725  0.0000000E+00
 2.57025  0.0000000E+00
 2.59325  0.0000000E+00
 2.61625  0.0000000E+00
 2.63925  0.0000000E+00
 2.66225  0.0000000E+00
 2.68525  0.0000000E+00
 2.70825  0.0000000E+00
 2.73125  0.0000000E+00
 2.75425  0.0000000E+00
 2.77725  0.0000000E+00
 2.80025  0.0000000E+00
 2.82325  33.2174
 2.84625  33.3203
 2.86925  34.1019
 2.89225  35.5107
 2.91525  36.4283
 2.93825  35.9247
 2.96125  35.5784
 2.98425  35.8403
 3.00725  36.7361
 3.03025  36.9344
 3.05325  36.6462
 3.07625  36.17
 3.09925  36.2139
 3.12225  36.1993
 3.14525  36.1019
 3.16825  36.0697
 3.19125  36.1996
 3.21425  36.0174
 3.23725  35.5611
 3.26025  35.0989
 3.28325  34.7387
 3.30625  34.6347
 3.32925  35.1
 3.35225  35.4646
 3.37525  35.4744
 3.39825  34.9317
 3.42125  34.6758
 3.44425  34.1366
 3.46725  33.8869
 3.49025  34.3316
 3.51325  34.1263
 3.53625  34.1452
 3.55925  33.9519
 3.58225  33.3314
 3.60525  32.893
 3.62825  32.9316
 3.65125  33.1957
 3.67425  33.2812
 3.69725  33.175
 3.72025  32.7208
 3.74325  32.8641
 3.76625  33.6543
 3.78925  34.3872
 3.81225  33.2478
 3.83525  32.6608
 3.85825  32.5624
 3.88125  32.8858
 3.90425  32.7365
 3.92725  32.6216
 3.95025  32.6148
 3.97325  32.7196
 3.99625  32.4516
 4.01925  32.3188
 4.04225  32.1132
 4.06525  32.1517
 4.08825  32.1963
 4.11125  32.5559
 4.13425  32.4671
 4.15725  32.3787
 4.18025  32.3412
 4.20325  32.4236
 4.22625  32.7102
 4.24925  32.7143
 4.27225  32.646
 4.29525  32.3018
 4.31825  32.1487
 4.34125  32.2704
 4.36425  32.1118
 4.38725  32.16
 4.41025  32.2702
 4.43325  32.4138
 4.45625  32.4924
 4.47925  32.5248
 4.50225  32.4405
 4.52525  32.4643
 4.54825  32.346
 4.57125  32.3952
 4.59425  32.5025
 4.61725  32.7122
 4.64025  32.9909
 4.66325  33.1087
 4.68625  33.1212
 4.70925  33.1139
 4.73225  33.0515
 4.75525  32.9053
 4.77825  32.8002
 4.80125  32.5855
 4.82425  32.4973
 4.84725  32.6427
 4.87025  32.7996
 4.89325  32.6062
 4.91625  32.6593
 4.93925  32.6765
 4.96225  32.6245
 4.98525  32.6199
 5.00825  32.6378
 5.03125  32.678
 5.05425  32.878
 5.07725  33.0864
 5.10025  33.3128
 5.12325  33.3033
 5.14625  33.4661
 5.16925  33.806
 5.19225  34.3761
 5.21525  34.4799
 5.23825  34.203
 5.26125  34.121
 5.28425  34.0954
 5.30725  34.3203
 5.33025  34.2632
 5.35325  34.2314
 5.37625  34.3806
 5.39925  34.771
 5.42225  34.9498
 5.44525  34.8948
 5.46825  34.9013
 5.49125  34.8631
 5.51425  35.0284
 5.53725  35.0942
 5.56025  34.9854
 5.58325  35.1935
 5.60625  35.4161
 5.62925  35.5393
 5.65225  35.6357
 5.67525  35.9453
 5.69825  35.9644
 5.72125  35.8691
 5.74425  35.8811
 5.76725  35.9112
 5.79025  36.021
 5.81325  36.0966
 5.83625  36.3426
 5.85925  36.7243
 5.88225  37.346
 5.90525  38.7734
 5.92825  42.0382
 5.95125  51.5817
 5.97425  68.6549
 5.99725  70.5299
 6.02025  55.1059
 6.04325  43.882
 6.06625  39.6543
 6.08925  38.1286
 6.11225  37.669
 6.13525  37.5112
 6.15825  37.4193
 6.18125  37.5038
 6.20425  37.4989
 6.22725  37.5905
 6.25025  37.523
 6.27325  37.4398
 6.29625  37.52
 6.31925  37.791
 6.34225  38.0366
 6.36525  38.1603
 6.38825  38.1559
 6.41125  38.3422
 6.43425  38.6689
 6.45725  38.6728
 6.48025  38.8876
 6.50325  39.2588
 6.52625  39.4237
 6.54925  39.4255
 6.57225  39.558
 6.59525  39.6094
 6.61825  39.7441
 6.64125  39.8768
 6.66425  40.0866
 6.68725  40.2427
 6.71025  40.4993
 6.73325  40.711
 6.75625  40.8252
 6.77925  40.8738
 6.80225  41.0228
 6.82525  41.3914
 6.84825  41.5351
 6.87125  41.5875
 6.89425  41.5954
 6.91725  41.77
 6.94025  41.9195
 6.96325  41.9926
 6.98625  42.1584
 7.00925  42.286
 7.03225  42.5756
 7.05525  42.7276
 7.07825  42.9757
 7.10125  43.1921
 7.12425  43.3997
 7.14725  43.3721
 7.17025  43.2988
 7.19325  43.3591
 7.21625  43.6063
 7.23925  43.663
 7.26225  43.6135
 7.28525  43.6595
 7.30825  43.6496
 7.33125  43.7983
 7.35425  43.7476
 7.37725  43.6678
 7.40025  43.6488
 7.42325  43.774
 7.44625  43.9879
 7.46925  44.1574
 7.49225  44.3875
 7.51525  44.4747
 7.53825  44.3739
 7.56125  44.3437
 7.58425  44.3806
 7.60725  44.446
 7.63025  44.4386
 7.65325  44.2929
 7.67625  44.1052
 7.69925  44.2364
 7.72225  44.3639
 7.74525  44.3722
 7.76825  44.343
 7.79125  44.4044
 7.81425  44.372
 7.83725  44.353
 7.86025  44.2488
 7.88325  43.9851
 7.90625  43.811
 7.92925  43.7228
 7.95225  43.7476
 7.97525  43.4955
 7.99825  43.4342
 8.02125  43.4929
 8.04425  43.5687
 8.06725  43.3944
 8.09025  42.9618
 8.11325  42.8285
 8.13625  42.6479
 8.15925  42.5109
 8.18225  42.153
 8.20525  41.721
 8.22825  41.4768
 8.25125  41.4805
 8.27425  41.2904
 8.29725  40.8007
 8.32025  40.3554
 8.34325  40.0595
 8.36625  39.8981
 8.38925  39.6421
 8.41225  39.4156
 8.43525  39.0114
 8.45825  38.6706
 8.48125  38.2227
 8.50425  37.8219
 8.52725  37.5093
 8.55025  37.2153
 8.57325  36.9171
 8.59625  36.4965
 8.61925  36.2442
 8.64225  35.9669
 8.66525  35.6037
 8.68825  35.4021
 8.71125  35.1585
 8.73425  34.7343
 8.75725  34.1888
 8.78025  33.8363
 8.80325  33.5368
 8.82625  33.149
 8.84925  32.8935
 8.87225  32.5418
 8.89525  32.2283
 8.91825  31.8404
 8.94125  31.5843
 8.96425  31.2945
 8.98725  30.9747
 9.01025  30.6326
 9.03325  30.4048
 9.05625  30.1548
 9.07925  29.9087
 9.10225  29.708
 9.12525  29.4528
 9.14825  29.2649
 9.17125  28.9979
 9.19425  28.8328
 9.21725  28.5691
 9.24025  28.3055
 9.26325  28.0999
 9.28625  27.9015
 9.30925  27.8894
 9.33225  27.5661
 9.35525  27.2363
 9.37825  27.0354
 9.40125  26.9001
 9.42425  26.7911
 9.44725  26.6267
 9.47025  26.5669
 9.49325  26.5118
 9.51625  26.498
 9.53925  26.5121
 9.56225  26.2248
 9.58525  25.9511
 9.60825  25.7937
 9.63125  25.7178
 9.65425  25.6946
 9.67725  25.5017
 9.70025  25.2445
 9.72325  25.1939
 9.74625  25.1959
 9.76925  25.181
 9.79225  25.243
 9.81525  25.1747
 9.83825  25.0491
 9.86125  24.7463
 9.88425  24.5141
 9.90725  24.4651
 9.93025  24.4912
 9.95325  24.3347
 9.97625  24.2379
 9.99925  24.319
 10.0222  24.3806
 10.0453  24.3942
 10.0683  24.3402
 10.0913  24.1459
 10.1143  24.0253
 10.1373  24.0006
 10.1603  24.2928
 10.1832  24.574
 10.2063  24.4337
 10.2293  24.0863
 10.2523  23.7292
 10.2752  23.6423
 10.2982  23.6812
 10.3213  23.5778
 10.3443  23.5527
 10.3673  23.5473
 10.3902  23.6612
 10.4133  23.6461
 10.4363  23.5188
 10.4593  23.4516
 10.4823  23.3566
 10.5053  23.3584
 10.5283  23.212
 10.5512  23.1278
 10.5742  23.2029
 10.5973  23.1154
 10.6203  23.1067
 10.6433  23.2094
 10.6662  23.1497
 10.6893  23.0736
 10.7123  23.0596
 10.7353  23.0147
 10.7583  22.9244
 10.7813  22.9906
 10.8043  22.9513
 10.8272  22.9012
 10.8503  22.884
 10.8733  22.822
 10.8963  22.7022
 10.9192  22.6733
 10.9422  22.82
 10.9653  22.8437
 10.9883  22.7841
 11.0113  22.7546
 11.0343  22.8057
 11.0573  22.7828
 11.0803  22.7763
 11.1033  22.807
 11.1263  22.8207
 11.1493  22.6971
 11.1723  22.7149
 11.1953  22.7128
 11.2182  22.7549
 11.2413  22.7635
 11.2643  22.7763
 11.2873  22.6537
 11.3102  22.5983
 11.3333  22.7013
 11.3563  22.7873
 11.3793  22.8932
 11.4023  23.0312
 11.4253  23.0478
 11.4483  22.9794
 11.4713  22.9638
 11.4942  23.0765
 11.5173  23.4069
 11.5403  24.4132
 11.5633  26.1061
 11.5862  28.4132
 11.6093  29.0778
 11.6323  27.1258
 11.6553  24.919
 11.6783  23.5881
 11.7013  23.0984
 11.7243  22.8884
 11.7473  22.8112
 11.7703  22.7058
 11.7933  22.7118
 11.8163  22.7433
 11.8393  22.7537
 11.8622  22.6347
 11.8853  22.672
 11.9083  22.7697
 11.9313  22.9493
 11.9543  23.3609
 11.9773  24.0013
 12.0003  24.3352
 12.0233  24.1179
 12.0463  24.063
 12.0693  24.5441
 12.0923  25.5001
 12.1153  25.7873
 12.1382  24.9216
 12.1613  23.7378
 12.1843  23.0832
 12.2073  22.8988
 12.2302  22.819
 12.2533  22.7632
 12.2763  22.6404
 12.2993  22.6562
 12.3223  22.6802
 12.3453  22.5765
 12.3683  22.5923
 12.3913  22.7046
 12.4142  22.753
 12.4373  22.6913
 12.4603  22.6343
 12.4833  22.7502
 12.5062  22.7358
 12.5292  22.6606
 12.5523  22.6875
 12.5753  22.7517
 12.5983  22.8253
 12.6212  22.8849
 12.6443  22.8853
 12.6673  22.878
 12.6903  22.9668
 12.7133  23.1257
 12.7363  23.1574
 12.7593  23.2166
 12.7822  23.1526
 12.8052  23.226
 12.8283  23.383
 12.8513  23.4833
 12.8742  23.5626
 12.8972  23.6113
 12.9203  23.6839
 12.9433  23.6964
 12.9663  23.8051
 12.9893  23.9498
 13.0123  24.1655
 13.0353  24.3358
 13.0582  24.5087
 13.0813  24.6957
 13.1043  24.9295
 13.1273  25.0894
 13.1502  25.2233
 13.1732  25.4477
 13.1963  25.6488
 13.2193  26.004
 13.2423  26.4478
 13.2652  26.8175
 13.2883  26.9703
 13.3113  27.1656
 13.3343  27.469
 13.3573  27.9051
 13.3803  28.0941
 13.4033  28.3511
 13.4262  28.4604
 13.4492  28.6483
 13.4723  28.9006
 13.4953  29.2295
 13.5183  29.4957
 13.5412  29.68
 13.5643  29.8109
 13.5873  29.8868
 13.6103  29.9067
 13.6333  29.8932
 13.6563  29.862
 13.6793  29.8582
 13.7022  29.7944
 13.7253  29.7594
 13.7483  29.8275
 13.7713  29.7064
 13.7942  29.5165
 13.8172  29.332
 13.8403  29.4128
 13.8633  29.7028
 13.8863  30.3435
 13.9093  31.995
 13.9323  34.5727
 13.9553  36.2888
 13.9783  34.9492
 14.0013  32.1282
 14.0243  29.7985
 14.0473  28.6909
 14.0703  28.1948
 14.0932  27.8047
 14.1163  27.4517
 14.1393  27.3555
 14.1623  27.2466
 14.1852  26.9947
 14.2083  26.8809
 14.2313  26.7009
 14.2543  26.5165
 14.2773  26.3629
 14.3003  26.2899
 14.3233  26.3029
 14.3463  26.3101
 14.3692  26.3637
 14.3923  26.2248
 14.4153  26.0943
 14.4383  26.0352
 14.4612  25.9614
 14.4843  26.0095
 14.5073  26.0175
 14.5303  26.1397
 14.5533  25.8649
 14.5763  25.7386
 14.5993  25.5984
 14.6223  25.5088
 14.6453  25.5125
 14.6683  25.5016
 14.6913  25.4969
 14.7143  25.4433
 14.7372  25.2681
 14.7603  25.2493
 14.7833  25.1279
 14.8063  25.0423
 14.8293  25.0698
 14.8523  25.109
 14.8753  25.1171
 14.8983  25.1592
 14.9213  25.0982
 14.9443  25.0451
 14.9673  25.0746
 14.9903  25.0973
 15.0132  25.1279
 15.0363  25.1831
 15.0593  25.2981
 15.0823  25.348
 15.1052  25.533
 15.1283  26.1934
 15.1513  27.486
 15.1743  29.4986
 15.1973  31.0829
 15.2203  30.0281
 15.2433  27.8671
 15.2663  25.842
 15.2892  25.2436
 15.3123  25.0945
 15.3353  25.028
 15.3583  25.0174
 15.3812  24.9118
 15.4043  24.7475
 15.4273  24.803
 15.4503  24.7751
 15.4733  24.7394
 15.4963  24.7266
 15.5193  24.6772
 15.5423  24.6421
 15.5653  24.6044
 15.5883  24.6465
 15.6113  24.6757
 15.6343  24.696
 15.6572  24.7482
 15.6803  24.713
 15.7033  24.7446
 15.7263  24.7974
 15.7492  24.7247
 15.7723  24.6724
 15.7953  24.6931
 15.8183  24.7203
 15.8413  24.6888
 15.8643  24.7424
 15.8873  24.779
 15.9103  24.8109
 15.9332  24.8786
 15.9563  24.8895
 15.9793  24.8919
 16.0023  24.8953
 16.0253  24.8916
 16.0482  25.0416
 16.0713  25.0373
 16.0943  24.9681
 16.1172  24.9941
 16.1403  25.0001
 16.1633  25.1026
 16.1863  25.402
 16.2093  25.8838
 16.2323  26.5993
 16.2553  27.1475
 16.2783  26.7622
 16.3012  25.7317
 16.3243  25.2304
 16.3472  25.0856
 16.3703  24.9786
 16.3933  24.9633
 16.4163  25.0338
 16.4393  24.9832
 16.4623  24.8917
 16.4853  24.7924
 16.5083  24.8192
 16.5312  24.8059
 16.5543  24.7581
 16.5773  24.6804
 16.6002  24.7547
 16.6233  24.7316
 16.6463  24.6612
 16.6693  24.6506
 16.6923  24.6257
 16.7153  24.5771
 16.7383  24.5932
 16.7613  24.6138
 16.7843  24.5796
 16.8073  24.5553
 16.8303  24.5168
 16.8533  24.4906
 16.8763  24.447
 16.8992  24.439
 16.9223  24.3683
 16.9453  24.2857
 16.9683  24.3355
 16.9913  24.4874
 17.0143  24.4286
 17.0373  24.2489
 17.0603  24.168
 17.0832  24.3107
 17.1063  24.3984
 17.1293  24.3348
 17.1522  24.3538
 17.1753  24.4218
 17.1983  24.3188
 17.2213  24.2257
 17.2443  24.1865
 17.2673  24.2106
 17.2903  24.2666
 17.3133  24.2328
 17.3362  24.2168
 17.3593  24.2425
 17.3823  24.1531
 17.4053  24.0946
 17.4283  24.1266
 17.4513  24.1164
 17.4743  24.0737
 17.4973  24.0972
 17.5203  24.0946
 17.5433  24.1678
 17.5663  24.114
 17.5893  23.9946
 17.6123  24.1228
 17.6352  24.1637
 17.6583  23.9797
 17.6813  23.9761
 17.7042  24.0409
 17.7273  24.0505
 17.7503  24.0002
 17.7733  24.0548
 17.7963  24.0395
 17.8193  24.0443
 17.8423  24.0011
 17.8653  24.0096
 17.8882  23.9477
 17.9113  24.0236
 17.9343  24.084
 17.9573  24.1503
 17.9803  24.3537
 18.0033  24.7703
 18.0263  25.3081
 18.0493  26.1295
 18.0723  27.1934
 18.0953  28.0057
 18.1183  27.8133
 18.1413  26.6746
 18.1643  25.3673
 18.1872  24.5744
 18.2103  24.3395
 18.2333  24.2092
 18.2563  24.0478
 18.2793  23.8763
 18.3023  23.8169
 18.3253  23.8465
 18.3483  23.8937
 18.3712  23.8919
 18.3943  23.8149
 18.4173  23.8308
 18.4402  23.8859
 18.4633  23.8462
 18.4863  23.8025
 18.5093  23.7778
 18.5323  23.7466
 18.5553  23.8276
 18.5783  23.823
 18.6013  23.811
 18.6242  23.6998
 18.6473  23.7374
 18.6703  23.7387
 18.6933  23.7672
 18.7163  23.8166
 18.7392  24.1013
 18.7623  24.4533
 18.7853  24.3012
 18.8083  23.7334
 18.8313  23.6169
 18.8543  23.6615
 18.8773  23.7047
 18.9003  23.763
 18.9232  23.7872
 18.9463  23.7855
 18.9693  23.6694
 18.9922  23.5392
 19.0153  23.5792
 19.0383  23.7339
 19.0613  23.7619
 19.0843  23.7856
 19.1073  23.7951
 19.1303  23.7865
 19.1533  23.8329
 19.1762  23.8094
 19.1993  23.7497
 19.2223  23.7217
 19.2453  23.7204
 19.2683  23.8497
 19.2913  23.8714
 19.3143  23.921
 19.3373  23.8371
 19.3603  23.8165
 19.3833  23.8334
 19.4062  23.8004
 19.4293  23.8762
 19.4523  23.9226
 19.4752  23.9863
 19.4983  23.9533
 19.5213  24.0079
 19.5443  24.1114
 19.5673  24.0892
 19.5903  24.0698
 19.6133  24.1752
 19.6363  24.502
 19.6593  25.1392
 19.6823  26.3346
 19.7053  27.7918
 19.7283  28.5031
 19.7513  28.0265
 19.7742  27.2313
 19.7973  27.183
 19.8203  29.0521
 19.8433  32.8289
 19.8663  35.0007
 19.8893  33.2429
 19.9123  29.7019
 19.9353  26.7788
 19.9582  25.1657
 19.9813  24.5393
 20.0043  24.373
 20.0272  24.2525
 20.0503  24.2298
 20.0733  24.0844
 20.0963  24.0949
 20.1193  24.0833
 20.1423  24.004
 20.1653  23.9704
 20.1883  24.0095
 20.2112  24.0245
 20.2343  24.0461
 20.2573  23.9325
 20.2803  23.9196
 20.3033  24.0101
 20.3263  24.0057
 20.3493  23.9791
 20.3723  23.9434
 20.3953  23.9113
 20.4183  23.959
 20.4413  24.0237
 20.4643  24.0081
 20.4873  23.9698
 20.5102  23.8242
 20.5333  23.7909
 20.5563  23.9362
 20.5792  24.046
 20.6023  24.0987
 20.6253  24.2492
 20.6483  24.2873
 20.6713  24.4331
 20.6943  24.7701
 20.7173  25.3258
 20.7403  26.0986
 20.7632  26.7137
 20.7863  26.4544
 20.8093  25.6903
 20.8323  24.9183
 20.8553  24.4936
 20.8783  24.3152
 20.9013  24.2119
 20.9243  24.2061
 20.9473  24.2183
 20.9703  24.1817
 20.9933  24.184
 21.0163  24.1668
 21.0393  24.069
 21.0622  24.0512
 21.0853  24.0601
 21.1083  24.0034
 21.1313  24.069
 21.1543  24.0007
 21.1773  24.0879
 21.2003  24.2408
 21.2233  24.1871
 21.2462  24.1485
 21.2693  24.1823
 21.2923  24.0953
 21.3152  24.0719
 21.3383  24.1187
 21.3613  24.1986
 21.3843  24.2169
 21.4073  24.1845
 21.4303  24.2416
 21.4533  24.2702
 21.4763  24.2375
 21.4992  24.2759
 21.5223  24.2668
 21.5453  24.1341
 21.5683  24.0568
 21.5913  24.2196
 21.6142  24.3645
 21.6373  24.3839
 21.6603  24.405
 21.6833  24.4341
 21.7063  24.4164
 21.7293  24.4398
 21.7523  24.4108
 21.7753  24.3936
 21.7982  24.3893
 21.8213  24.3552
 21.8443  24.3343
 21.8672  24.3594
 21.8903  24.3763
 21.9133  24.4742
 21.9363  24.5436
 21.9593  24.5282
 21.9823  24.5006
 22.0053  24.4996
 22.0283  24.5435
 22.0512  24.461
 22.0743  24.449
 22.0973  24.48
 22.1203  24.4215
 22.1433  24.463
 22.1663  24.5026
 22.1893  24.5582
 22.2123  24.6905
 22.2353  24.7199
 22.2583  24.7778
 22.2813  24.7985
 22.3043  24.8257
 22.3273  24.7862
 22.3502  24.7758
 22.3733  24.7089
 22.3963  24.6591
 22.4193  24.7149
 22.4423  24.956
 22.4653  25.0081
 22.4883  24.9293
 22.5113  24.9771
 22.5343  25.0657
 22.5573  25.0557
 22.5803  25.0822
 22.6033  25.1781
 22.6263  25.3064
 22.6493  25.3861
 22.6723  25.4616
 22.6953  25.6346
 22.7183  25.461
 22.7413  25.4839
 22.7643  25.579
 22.7873  25.6068
 22.8103  25.7368
 22.8333  25.8967
 22.8563  26.035
 22.8793  26.1554
 22.9022  26.2449
 22.9253  26.4781
 22.9483  26.6863
 22.9713  27.3036
 22.9943  28.1002