File: test-data-xrd/xrd-map-34-ID-E/Data_0052.chi
F:\20151113_APS_34IDE\\Brian\Particle1\OCV\Data_0052.tif
2-Theta Angle (Degrees)
Intensity
       2000
 0.01725  0.0000000E+00
 0.04025  0.0000000E+00
 0.06325  0.0000000E+00
 0.08625  0.0000000E+00
 0.10925  0.0000000E+00
 0.13225  0.0000000E+00
 0.15525  0.0000000E+00
 0.17825  0.0000000E+00
 0.20125  0.0000000E+00
 0.22425  0.0000000E+00
 0.24725  0.0000000E+00
 0.27025  0.0000000E+00
 0.29325  0.0000000E+00
 0.31625  0.0000000E+00
 0.33925  0.0000000E+00
 0.36225  0.0000000E+00
 0.38525  0.0000000E+00
 0.40825  0.0000000E+00
 0.43125  0.0000000E+00
 0.45425  0.0000000E+00
 0.47725  0.0000000E+00
 0.50025  0.0000000E+00
 0.52325  0.0000000E+00
 0.54625  0.0000000E+00
 0.56925  0.0000000E+00
 0.59225  0.0000000E+00
 0.61525  0.0000000E+00
 0.63825  0.0000000E+00
 0.66125  0.0000000E+00
 0.68425  0.0000000E+00
 0.70725  0.0000000E+00
 0.73025  0.0000000E+00
 0.75325  0.0000000E+00
 0.77625  0.0000000E+00
 0.79925  0.0000000E+00
 0.82225  0.0000000E+00
 0.84525  0.0000000E+00
 0.86825  0.0000000E+00
 0.89125  0.0000000E+00
 0.91425  0.0000000E+00
 0.93725  0.0000000E+00
 0.96025  0.0000000E+00
 0.98325  0.0000000E+00
 1.00625  0.0000000E+00
 1.02925  0.0000000E+00
 1.05225  0.0000000E+00
 1.07525  0.0000000E+00
 1.09825  0.0000000E+00
 1.12125  0.0000000E+00
 1.14425  0.0000000E+00
 1.16725  0.0000000E+00
 1.19025  0.0000000E+00
 1.21325  0.0000000E+00
 1.23625  0.0000000E+00
 1.25925  0.0000000E+00
 1.28225  0.0000000E+00
 1.30525  0.0000000E+00
 1.32825  0.0000000E+00
 1.35125  0.0000000E+00
 1.37425  0.0000000E+00
 1.39725  0.0000000E+00
 1.42025  0.0000000E+00
 1.44325  0.0000000E+00
 1.46625  0.0000000E+00
 1.48925  0.0000000E+00
 1.51225  0.0000000E+00
 1.53525  0.0000000E+00
 1.55825  0.0000000E+00
 1.58125  0.0000000E+00
 1.60425  0.0000000E+00
 1.62725  0.0000000E+00
 1.65025  0.0000000E+00
 1.67325  0.0000000E+00
 1.69625  0.0000000E+00
 1.71925  0.0000000E+00
 1.74225  0.0000000E+00
 1.76525  0.0000000E+00
 1.78825  0.0000000E+00
 1.81125  0.0000000E+00
 1.83425  0.0000000E+00
 1.85725  0.0000000E+00
 1.88025  0.0000000E+00
 1.90325  0.0000000E+00
 1.92625  0.0000000E+00
 1.94925  0.0000000E+00
 1.97225  0.0000000E+00
 1.99525  0.0000000E+00
 2.01825  0.0000000E+00
 2.04125  0.0000000E+00
 2.06425  0.0000000E+00
 2.08725  0.0000000E+00
 2.11025  0.0000000E+00
 2.13325  0.0000000E+00
 2.15625  0.0000000E+00
 2.17925  0.0000000E+00
 2.20225  0.0000000E+00
 2.22525  0.0000000E+00
 2.24825  0.0000000E+00
 2.27125  0.0000000E+00
 2.29425  0.0000000E+00
 2.31725  0.0000000E+00
 2.34025  0.0000000E+00
 2.36325  0.0000000E+00
 2.38625  0.0000000E+00
 2.40925  0.0000000E+00
 2.43225  0.0000000E+00
 2.45525  0.0000000E+00
 2.47825  0.0000000E+00
 2.50125  0.0000000E+00
 2.52425  0.0000000E+00
 2.54725  0.0000000E+00
 2.57025  0.0000000E+00
 2.59325  0.0000000E+00
 2.61625  0.0000000E+00
 2.63925  0.0000000E+00
 2.66225  0.0000000E+00
 2.68525  0.0000000E+00
 2.70825  0.0000000E+00
 2.73125  0.0000000E+00
 2.75425  0.0000000E+00
 2.77725  0.0000000E+00
 2.80025  0.0000000E+00
 2.82325  33.2263
 2.84625  35.0569
 2.86925  35.813
 2.89225  36.4492
 2.91525  36.1703
 2.93825  35.232
 2.96125  35.4377
 2.98425  35.4805
 3.00725  36.095
 3.03025  36.0364
 3.05325  36.1945
 3.07625  36.2257
 3.09925  35.688
 3.12225  35.4162
 3.14525  35.4303
 3.16825  35.5958
 3.19125  35.4539
 3.21425  35.3731
 3.23725  34.9622
 3.26025  34.9756
 3.28325  34.8891
 3.30625  34.4469
 3.32925  34.6864
 3.35225  35.259
 3.37525  34.7497
 3.39825  34.709
 3.42125  35.0756
 3.44425  34.7696
 3.46725  34.5579
 3.49025  34.6477
 3.51325  34.3434
 3.53625  33.8766
 3.55925  33.7221
 3.58225  33.4024
 3.60525  33.42
 3.62825  33.5121
 3.65125  33.1745
 3.67425  33.0338
 3.69725  32.7668
 3.72025  32.8247
 3.74325  33.1638
 3.76625  33.122
 3.78925  32.8558
 3.81225  32.8798
 3.83525  32.7638
 3.85825  32.5148
 3.88125  32.4797
 3.90425  32.658
 3.92725  32.6861
 3.95025  32.6287
 3.97325  32.7118
 3.99625  32.89
 4.01925  33.2319
 4.04225  33.1776
 4.06525  33.1357
 4.08825  33.2013
 4.11125  32.9481
 4.13425  32.6379
 4.15725  32.4347
 4.18025  32.2405
 4.20325  32.4724
 4.22625  32.7128
 4.24925  32.5729
 4.27225  32.5053
 4.29525  32.2729
 4.31825  32.2597
 4.34125  32.4212
 4.36425  32.4835
 4.38725  32.4068
 4.41025  32.502
 4.43325  32.7095
 4.45625  32.7154
 4.47925  32.7182
 4.50225  32.5401
 4.52525  32.4684
 4.54825  32.6032
 4.57125  32.7439
 4.59425  32.8252
 4.61725  32.7554
 4.64025  32.9472
 4.66325  33.1796
 4.68625  33.1394
 4.70925  32.7242
 4.73225  32.2594
 4.75525  32.3001
 4.77825  32.661
 4.80125  32.8564
 4.82425  32.9034
 4.84725  32.9231
 4.87025  33.0768
 4.89325  32.9066
 4.91625  32.8758
 4.93925  32.9024
 4.96225  32.9054
 4.98525  33.0371
 5.00825  33.0921
 5.03125  33.0749
 5.05425  33.2211
 5.07725  33.37
 5.10025  33.3499
 5.12325  33.0891
 5.14625  33.337
 5.16925  33.662
 5.19225  33.9656
 5.21525  34.1417
 5.23825  34.3421
 5.26125  34.4269
 5.28425  34.4023
 5.30725  34.2947
 5.33025  34.0811
 5.35325  34.0758
 5.37625  34.2972
 5.39925  34.6672
 5.42225  34.6724
 5.44525  34.5661
 5.46825  34.6377
 5.49125  34.6248
 5.51425  34.7815
 5.53725  35.0598
 5.56025  34.9764
 5.58325  34.8284
 5.60625  34.9435
 5.62925  35.2544
 5.65225  35.6105
 5.67525  35.8999
 5.69825  35.8536
 5.72125  35.9002
 5.74425  35.8989
 5.76725  35.8685
 5.79025  36.1717
 5.81325  36.4986
 5.83625  36.7032
 5.85925  37.0008
 5.88225  37.4603
 5.90525  38.7791
 5.92825  41.4459
 5.95125  48.1223
 5.97425  59.213
 5.99725  73.9151
 6.02025  64.1031
 6.04325  47.2129
 6.06625  40.9189
 6.08925  38.8136
 6.11225  38.1289
 6.13525  37.6073
 6.15825  37.4358
 6.18125  37.4719
 6.20425  37.3827
 6.22725  37.3383
 6.25025  37.3647
 6.27325  37.6319
 6.29625  37.999
 6.31925  38.2438
 6.34225  38.3894
 6.36525  38.5976
 6.38825  38.6636
 6.41125  38.625
 6.43425  38.6342
 6.45725  38.6039
 6.48025  38.7929
 6.50325  39.236
 6.52625  39.5965
 6.54925  39.519
 6.57225  39.3364
 6.59525  39.5086
 6.61825  39.8609
 6.64125  40.2317
 6.66425  40.5512
 6.68725  40.6164
 6.71025  40.5043
 6.73325  40.626
 6.75625  40.907
 6.77925  41.124
 6.80225  41.2568
 6.82525  41.4802
 6.84825  41.8008
 6.87125  42.0578
 6.89425  42.0837
 6.91725  42.1042
 6.94025  42.1697
 6.96325  42.1607
 6.98625  42.2865
 7.00925  42.4076
 7.03225  42.481
 7.05525  42.6537
 7.07825  42.7346
 7.10125  42.9249
 7.12425  43.1275
 7.14725  43.1913
 7.17025  43.2584
 7.19325  43.3285
 7.21625  43.5126
 7.23925  43.6305
 7.26225  43.6696
 7.28525  43.7138
 7.30825  43.6714
 7.33125  43.7234
 7.35425  43.7893
 7.37725  43.9363
 7.40025  44.1931
 7.42325  44.3441
 7.44625  44.5899
 7.46925  44.568
 7.49225  44.448
 7.51525  44.3688
 7.53825  44.2632
 7.56125  44.2849
 7.58425  44.3648
 7.60725  44.4862
 7.63025  44.6768
 7.65325  44.7616
 7.67625  44.7662
 7.69925  44.5702
 7.72225  44.5193
 7.74525  44.5237
 7.76825  44.4436
 7.79125  44.444
 7.81425  44.241
 7.83725  44.1646
 7.86025  44.1375
 7.88325  44.2028
 7.90625  44.034
 7.92925  43.8541
 7.95225  43.8435
 7.97525  43.8535
 7.99825  43.9016
 8.02125  43.7811
 8.04425  43.6171
 8.06725  43.345
 8.09025  43.1261
 8.11325  43.0465
 8.13625  42.8018
 8.15925  42.5592
 8.18225  42.2749
 8.20525  41.9684
 8.22825  41.6444
 8.25125  41.5271
 8.27425  41.3137
 8.29725  40.9814
 8.32025  40.7739
 8.34325  40.5594
 8.36625  40.3435
 8.38925  39.9942
 8.41225  39.5301
 8.43525  38.9945
 8.45825  38.6551
 8.48125  38.3902
 8.50425  38.1074
 8.52725  37.8355
 8.55025  37.4177
 8.57325  37.1967
 8.59625  36.8001
 8.61925  36.4133
 8.64225  36.0184
 8.66525  35.6331
 8.68825  35.3769
 8.71125  35.0651
 8.73425  34.6573
 8.75725  34.3535
 8.78025  34.0342
 8.80325  33.6485
 8.82625  33.4133
 8.84925  33.1283
 8.87225  32.9434
 8.89525  32.6358
 8.91825  32.277
 8.94125  31.8804
 8.96425  31.6915
 8.98725  31.3881
 9.01025  31.16
 9.03325  30.9109
 9.05625  30.7103
 9.07925  30.4776
 9.10225  30.1011
 9.12525  29.7875
 9.14825  29.6712
 9.17125  29.4701
 9.19425  29.109
 9.21725  28.8617
 9.24025  28.7195
 9.26325  28.4674
 9.28625  28.1808
 9.30925  27.9764
 9.33225  27.8053
 9.35525  27.6015
 9.37825  27.425
 9.40125  27.1629
 9.42425  27.0089
 9.44725  26.8942
 9.47025  26.8646
 9.49325  26.8408
 9.51625  26.5767
 9.53925  26.2777
 9.56225  26.1767
 9.58525  26.0425
 9.60825  26.029
 9.63125  25.9108
 9.65425  25.7655
 9.67725  25.5932
 9.70025  25.6095
 9.72325  25.6824
 9.74625  25.6086
 9.76925  25.5247
 9.79225  25.4119
 9.81525  25.2466
 9.83825  25.1596
 9.86125  25.1247
 9.88425  24.9902
 9.90725  24.9079
 9.93025  24.9267
 9.95325  24.8741
 9.97625  24.8084
 9.99925  24.6232
 10.0222  24.5447
 10.0453  24.509
 10.0683  24.429
 10.0913  24.2703
 10.1143  24.2639
 10.1373  24.3157
 10.1603  24.4306
 10.1832  24.325
 10.2063  24.129
 10.2293  24.0843
 10.2523  24.0449
 10.2752  23.9201
 10.2982  23.8719
 10.3213  23.8293
 10.3443  23.8028
 10.3673  23.7034
 10.3902  23.6785
 10.4133  23.7236
 10.4363  23.626
 10.4593  23.5746
 10.4823  23.5902
 10.5053  23.5331
 10.5283  23.3887
 10.5512  23.4098
 10.5742  23.4509
 10.5973  23.391
 10.6203  23.393
 10.6433  23.3992
 10.6662  23.3459
 10.6893  23.2481
 10.7123  23.2384
 10.7353  23.2221
 10.7583  23.0952
 10.7813  23.0785
 10.8043  23.0227
 10.8272  23.0005
 10.8503  23.0432
 10.8733  23.0641
 10.8963  22.9299
 10.9192  22.8448
 10.9422  22.803
 10.9653  22.8765
 10.9883  22.8908
 11.0113  22.8292
 11.0343  22.7224
 11.0573  22.579
 11.0803  22.5939
 11.1033  22.7424
 11.1263  22.7954
 11.1493  22.7301
 11.1723  22.6652
 11.1953  22.6012
 11.2182  22.5904
 11.2413  22.6266
 11.2643  22.7649
 11.2873  22.8303
 11.3102  22.8704
 11.3333  22.9645
 11.3563  23.0301
 11.3793  23.1369
 11.4023  23.2573
 11.4253  23.3258
 11.4483  23.3143
 11.4713  23.3841
 11.4942  23.6103
 11.5173  24.4025
 11.5403  26.6826
 11.5633  31.2794
 11.5862  36.1456
 11.6093  36.2872
 11.6323  30.6288
 11.6553  25.8279
 11.6783  24.0589
 11.7013  23.4213
 11.7243  23.2392
 11.7473  23.014
 11.7703  22.7782
 11.7933  22.7254
 11.8163  22.7658
 11.8393  22.7433
 11.8622  22.7326
 11.8853  22.7351
 11.9083  22.7632
 11.9313  23.0484
 11.9543  23.5077
 11.9773  24.245
 12.0003  25.1212
 12.0233  25.2596
 12.0463  24.9098
 12.0693  24.9996
 12.0923  25.6831
 12.1153  25.5426
 12.1382  24.4264
 12.1613  23.5225
 12.1843  23.1168
 12.2073  22.9093
 12.2302  22.8209
 12.2533  22.7618
 12.2763  22.7163
 12.2993  22.6511
 12.3223  22.6704
 12.3453  22.7519
 12.3683  22.8764
 12.3913  22.9423
 12.4142  22.9518
 12.4373  22.9908
 12.4603  23.0299
 12.4833  23.0753
 12.5062  22.9733
 12.5292  22.9636
 12.5523  22.9943
 12.5753  22.9438
 12.5983  22.933
 12.6212  22.8795
 12.6443  22.9019
 12.6673  22.9716
 12.6903  23.1072
 12.7133  23.223
 12.7363  23.1434
 12.7593  23.263
 12.7822  23.3772
 12.8052  23.3877
 12.8283  23.448
 12.8513  23.4767
 12.8742  23.6355
 12.8972  23.6267
 12.9203  23.7172
 12.9433  23.8614
 12.9663  24.0307
 12.9893  24.1409
 13.0123  24.2761
 13.0353  24.377
 13.0582  24.4953
 13.0813  24.6374
 13.1043  24.8894
 13.1273  25.1474
 13.1502  25.2728
 13.1732  25.5201
 13.1963  25.853
 13.2193  26.111
 13.2423  26.5264
 13.2652  26.8197
 13.2883  27.0525
 13.3113  27.29
 13.3343  27.5709
 13.3573  27.897
 13.3803  28.1167
 13.4033  28.3458
 13.4262  28.5067
 13.4492  28.7606
 13.4723  28.9579
 13.4953  29.2955
 13.5183  29.5127
 13.5412  29.6992
 13.5643  29.9073
 13.5873  29.9823
 13.6103  29.9312
 13.6333  29.9647
 13.6563  29.9595
 13.6793  30.0102
 13.7022  29.978
 13.7253  29.914
 13.7483  29.9145
 13.7713  29.9893
 13.7942  30.0023
 13.8172  29.9992
 13.8403  30.2346
 13.8633  31.0955
 13.8863  33.3721
 13.9093  38.126
 13.9323  43.8531
 13.9553  47.5569
 13.9783  43.4087
 14.0013  36.2014
 14.0243  31.2146
 14.0473  29.4708
 14.0703  28.8504
 14.0932  28.4578
 14.1163  28.069
 14.1393  27.8362
 14.1623  27.5374
 14.1852  27.2332
 14.2083  27.1333
 14.2313  27.0079
 14.2543  26.8394
 14.2773  26.7027
 14.3003  26.6121
 14.3233  26.4285
 14.3463  26.3483
 14.3692  26.3092
 14.3923  26.258
 14.4153  26.2319
 14.4383  26.2026
 14.4612  26.0781
 14.4843  25.9494
 14.5073  25.9675
 14.5303  25.9442
 14.5533  25.8829
 14.5763  25.8505
 14.5993  25.7257
 14.6223  25.6185
 14.6453  25.5012
 14.6683  25.4821
 14.6913  25.5301
 14.7143  25.4698
 14.7372  25.3497
 14.7603  25.2509
 14.7833  25.2998
 14.8063  25.292
 14.8293  25.146
 14.8523  25.0113
 14.8753  25
 14.8983  25.1123
 14.9213  25.1946
 14.9443  25.1304
 14.9673  25.0928
 14.9903  25.0669
 15.0132  25.0435
 15.0363  25.0531
 15.0593  25.0325
 15.0823  25.0672
 15.1052  25.1326
 15.1283  25.3731
 15.1513  25.8024
 15.1743  26.4191
 15.1973  26.7994
 15.2203  26.6543
 15.2433  25.98
 15.2663  25.3387
 15.2892  24.9495
 15.3123  24.8147
 15.3353  24.789
 15.3583  24.8627
 15.3812  24.7879
 15.4043  24.6671
 15.4273  24.6585
 15.4503  24.7272
 15.4733  24.8296
 15.4963  24.9236
 15.5193  24.8877
 15.5423  24.8294
 15.5653  24.851
 15.5883  24.7778
 15.6113  24.7781
 15.6343  24.7483
 15.6572  24.7477
 15.6803  24.7193
 15.7033  24.8654
 15.7263  24.8847
 15.7492  24.7962
 15.7723  24.812
 15.7953  24.7709
 15.8183  24.7376
 15.8413  24.7486
 15.8643  24.798
 15.8873  24.797
 15.9103  24.8278
 15.9332  24.849
 15.9563  24.8103
 15.9793  24.9094
 16.0023  24.9474
 16.0253  24.9399
 16.0482  24.9793
 16.0713  24.8706
 16.0943  24.8752
 16.1172  24.9833
 16.1403  25.1156
 16.1633  25.1573
 16.1863  25.2755
 16.2093  25.4559
 16.2323  25.5334
 16.2553  25.6619
 16.2783  25.6955
 16.3012  25.4758
 16.3243  25.2736
 16.3472  25.0097
 16.3703  24.8633
 16.3933  24.844
 16.4163  24.885
 16.4393  24.8851
 16.4623  24.9501
 16.4853  24.927
 16.5083  24.9229
 16.5312  24.9282
 16.5543  24.9631
 16.5773  24.9235
 16.6002  24.8468
 16.6233  24.7758
 16.6463  24.7919
 16.6693  24.7457
 16.6923  24.8255
 16.7153  24.8017
 16.7383  24.7191
 16.7613  24.6163
 16.7843  24.4811
 16.8073  24.4685
 16.8303  24.5401
 16.8533  24.5772
 16.8763  24.5524
 16.8992  24.5048
 16.9223  24.5385
 16.9453  24.5378
 16.9683  24.4818
 16.9913  24.4461
 17.0143  24.4324
 17.0373  24.4298
 17.0603  24.3402
 17.0832  24.4056
 17.1063  24.3941
 17.1293  24.3774
 17.1522  24.4412
 17.1753  24.5618
 17.1983  24.5374
 17.2213  24.4145
 17.2443  24.3089
 17.2673  24.2172
 17.2903  24.2623
 17.3133  24.2715
 17.3362  24.2609
 17.3593  24.2685
 17.3823  24.1677
 17.4053  24.0842
 17.4283  24.1077
 17.4513  24.1479
 17.4743  24.1764
 17.4973  24.1478
 17.5203  24.0992
 17.5433  24.1309
 17.5663  24.0883
 17.5893  24.0429
 17.6123  24.0273
 17.6352  24.0471
 17.6583  23.9298
 17.6813  24.0116
 17.7042  24.1172
 17.7273  24.046
 17.7503  23.9501
 17.7733  23.9686
 17.7963  24.0311
 17.8193  24.023
 17.8423  24.0326
 17.8653  24.0111
 17.8882  23.8802
 17.9113  23.9021
 17.9343  24.0459
 17.9573  24.0768
 17.9803  24.254
 18.0033  24.4644
 18.0263  24.566
 18.0493  24.6344
 18.0723  24.7552
 18.0953  24.8902
 18.1183  24.9386
 18.1413  24.7464
 18.1643  24.466
 18.1872  24.1574
 18.2103  23.9596
 18.2333  23.8514
 18.2563  23.7667
 18.2793  23.7876
 18.3023  23.8729
 18.3253  23.9129
 18.3483  23.9039
 18.3712  23.8835
 18.3943  23.8604
 18.4173  23.8795
 18.4402  23.7552
 18.4633  23.8265
 18.4863  23.8136
 18.5093  23.7419
 18.5323  23.7935
 18.5553  23.7865
 18.5783  23.7376
 18.6013  23.7846
 18.6242  23.6535
 18.6473  23.6492
 18.6703  23.7181
 18.6933  23.7824
 18.7163  23.6262
 18.7392  23.6002
 18.7623  23.5839
 18.7853  23.654
 18.8083  23.6655
 18.8313  23.5741
 18.8543  23.5241
 18.8773  23.554
 18.9003  23.6701
 18.9232  23.805
 18.9463  23.8688
 18.9693  23.7042
 18.9922  23.699
 19.0153  23.7885
 19.0383  23.8205
 19.0613  23.7906
 19.0843  23.8011
 19.1073  23.7495
 19.1303  23.7144
 19.1533  23.8412
 19.1762  23.8732
 19.1993  23.8706
 19.2223  23.8011
 19.2453  23.7426
 19.2683  23.7233
 19.2913  23.767
 19.3143  23.8276
 19.3373  23.8713
 19.3603  23.9159
 19.3833  23.9358
 19.4062  23.9799
 19.4293  23.9533
 19.4523  23.9346
 19.4752  23.9528
 19.4983  24.072
 19.5213  24.0879
 19.5443  24.1647
 19.5673  24.1338
 19.5903  24.3095
 19.6133  24.6126
 19.6363  25.2267
 19.6593  26.4482
 19.6823  28.4715
 19.7053  30.6472
 19.7283  31.0452
 19.7513  28.9701
 19.7742  27.0637
 19.7973  26.7637
 19.8203  28.4195
 19.8433  34.6962
 19.8663  36.4478
 19.8893  34.3652
 19.9123  29.0109
 19.9353  25.9485
 19.9582  24.9424
 19.9813  24.5793
 20.0043  24.385
 20.0272  24.3013
 20.0503  24.2955
 20.0733  24.1911
 20.0963  24.1397
 20.1193  24.1225
 20.1423  24.1452
 20.1653  24.086
 20.1883  24.0556
 20.2112  23.9957
 20.2343  23.9779
 20.2573  24.001
 20.2803  23.9596
 20.3033  23.862
 20.3263  23.8435
 20.3493  23.869
 20.3723  23.8312
 20.3953  23.8522
 20.4183  23.9842
 20.4413  23.9843
 20.4643  23.9359
 20.4873  24.0155
 20.5102  23.9866
 20.5333  23.9315
 20.5563  23.9666
 20.5792  23.9687
 20.6023  24.1058
 20.6253  24.3105
 20.6483  24.4314
 20.6713  24.5101
 20.6943  24.8994
 20.7173  25.7439
 20.7403  26.6515
 20.7632  27.0201
 20.7863  26.2231
 20.8093  25.214
 20.8323  24.5919
 20.8553  24.3785
 20.8783  24.333
 20.9013  24.4148
 20.9243  24.3939
 20.9473  24.3062
 20.9703  24.1959
 20.9933  24.1797
 21.0163  24.1303
 21.0393  24.0716
 21.0622  24.0233
 21.0853  24.1151
 21.1083  24.1488
 21.1313  24.3941
 21.1543  24.2891
 21.1773  24.1372
 21.2003  24.2239
 21.2233  24.2901
 21.2462  24.2945
 21.2693  24.2467
 21.2923  24.1661
 21.3152  24.0512
 21.3383  24.0885
 21.3613  24.145
 21.3843  24.1216
 21.4073  24.0782
 21.4303  24.136
 21.4533  24.0942
 21.4763  24.102
 21.4992  24.1599
 21.5223  24.106
 21.5453  24.1712
 21.5683  24.2354
 21.5913  24.3699
 21.6142  24.3669
 21.6373  24.3272
 21.6603  24.2996
 21.6833  24.3075
 21.7063  24.2409
 21.7293  24.2487
 21.7523  24.2392
 21.7753  24.2495
 21.7982  24.3427
 21.8213  24.3748
 21.8443  24.3364
 21.8672  24.4098
 21.8903  24.4026
 21.9133  24.408
 21.9363  24.3993
 21.9593  24.3574
 21.9823  24.3024
 22.0053  24.3723
 22.0283  24.4363
 22.0512  24.4532
 22.0743  24.4935
 22.0973  24.4787
 22.1203  24.5971
 22.1433  24.5637
 22.1663  24.5502
 22.1893  24.6161
 22.2123  24.5917
 22.2353  24.636
 22.2583  24.6493
 22.2813  24.6434
 22.3043  24.7414
 22.3273  24.7067
 22.3502  24.7467
 22.3733  24.7501
 22.3963  24.7128
 22.4193  24.6912
 22.4423  24.8267
 22.4653  24.9917
 22.4883  24.9909
 22.5113  25.0572
 22.5343  25.0769
 22.5573  25.082
 22.5803  25.1293
 22.6033  25.1905
 22.6263  25.193
 22.6493  25.1633
 22.6723  25.1747
 22.6953  25.3727
 22.7183  25.4411
 22.7413  25.5368
 22.7643  25.6489
 22.7873  25.6459
 22.8103  25.7877
 22.8333  25.9105
 22.8563  25.887
 22.8793  26.1298
 22.9022  26.4111
 22.9253  26.6221
 22.9483  26.6551
 22.9713  27.1865
 22.9943  28.3749