File: test-data-xrd/xrd-map-34-ID-E/Data_0070.chi
F:\20151113_APS_34IDE\\Brian\Particle1\OCV\Data_0070.tif
2-Theta Angle (Degrees)
Intensity
       2000
 0.01725  0.0000000E+00
 0.04025  0.0000000E+00
 0.06325  0.0000000E+00
 0.08625  0.0000000E+00
 0.10925  0.0000000E+00
 0.13225  0.0000000E+00
 0.15525  0.0000000E+00
 0.17825  0.0000000E+00
 0.20125  0.0000000E+00
 0.22425  0.0000000E+00
 0.24725  0.0000000E+00
 0.27025  0.0000000E+00
 0.29325  0.0000000E+00
 0.31625  0.0000000E+00
 0.33925  0.0000000E+00
 0.36225  0.0000000E+00
 0.38525  0.0000000E+00
 0.40825  0.0000000E+00
 0.43125  0.0000000E+00
 0.45425  0.0000000E+00
 0.47725  0.0000000E+00
 0.50025  0.0000000E+00
 0.52325  0.0000000E+00
 0.54625  0.0000000E+00
 0.56925  0.0000000E+00
 0.59225  0.0000000E+00
 0.61525  0.0000000E+00
 0.63825  0.0000000E+00
 0.66125  0.0000000E+00
 0.68425  0.0000000E+00
 0.70725  0.0000000E+00
 0.73025  0.0000000E+00
 0.75325  0.0000000E+00
 0.77625  0.0000000E+00
 0.79925  0.0000000E+00
 0.82225  0.0000000E+00
 0.84525  0.0000000E+00
 0.86825  0.0000000E+00
 0.89125  0.0000000E+00
 0.91425  0.0000000E+00
 0.93725  0.0000000E+00
 0.96025  0.0000000E+00
 0.98325  0.0000000E+00
 1.00625  0.0000000E+00
 1.02925  0.0000000E+00
 1.05225  0.0000000E+00
 1.07525  0.0000000E+00
 1.09825  0.0000000E+00
 1.12125  0.0000000E+00
 1.14425  0.0000000E+00
 1.16725  0.0000000E+00
 1.19025  0.0000000E+00
 1.21325  0.0000000E+00
 1.23625  0.0000000E+00
 1.25925  0.0000000E+00
 1.28225  0.0000000E+00
 1.30525  0.0000000E+00
 1.32825  0.0000000E+00
 1.35125  0.0000000E+00
 1.37425  0.0000000E+00
 1.39725  0.0000000E+00
 1.42025  0.0000000E+00
 1.44325  0.0000000E+00
 1.46625  0.0000000E+00
 1.48925  0.0000000E+00
 1.51225  0.0000000E+00
 1.53525  0.0000000E+00
 1.55825  0.0000000E+00
 1.58125  0.0000000E+00
 1.60425  0.0000000E+00
 1.62725  0.0000000E+00
 1.65025  0.0000000E+00
 1.67325  0.0000000E+00
 1.69625  0.0000000E+00
 1.71925  0.0000000E+00
 1.74225  0.0000000E+00
 1.76525  0.0000000E+00
 1.78825  0.0000000E+00
 1.81125  0.0000000E+00
 1.83425  0.0000000E+00
 1.85725  0.0000000E+00
 1.88025  0.0000000E+00
 1.90325  0.0000000E+00
 1.92625  0.0000000E+00
 1.94925  0.0000000E+00
 1.97225  0.0000000E+00
 1.99525  0.0000000E+00
 2.01825  0.0000000E+00
 2.04125  0.0000000E+00
 2.06425  0.0000000E+00
 2.08725  0.0000000E+00
 2.11025  0.0000000E+00
 2.13325  0.0000000E+00
 2.15625  0.0000000E+00
 2.17925  0.0000000E+00
 2.20225  0.0000000E+00
 2.22525  0.0000000E+00
 2.24825  0.0000000E+00
 2.27125  0.0000000E+00
 2.29425  0.0000000E+00
 2.31725  0.0000000E+00
 2.34025  0.0000000E+00
 2.36325  0.0000000E+00
 2.38625  0.0000000E+00
 2.40925  0.0000000E+00
 2.43225  0.0000000E+00
 2.45525  0.0000000E+00
 2.47825  0.0000000E+00
 2.50125  0.0000000E+00
 2.52425  0.0000000E+00
 2.54725  0.0000000E+00
 2.57025  0.0000000E+00
 2.59325  0.0000000E+00
 2.61625  0.0000000E+00
 2.63925  0.0000000E+00
 2.66225  0.0000000E+00
 2.68525  0.0000000E+00
 2.70825  0.0000000E+00
 2.73125  0.0000000E+00
 2.75425  0.0000000E+00
 2.77725  0.0000000E+00
 2.80025  0.0000000E+00
 2.82325  35.9847
 2.84625  34.2099
 2.86925  34.6867
 2.89225  36.0211
 2.91525  35.9043
 2.93825  35.4802
 2.96125  35.4687
 2.98425  35.1204
 3.00725  35.8867
 3.03025  36.5694
 3.05325  35.0273
 3.07625  34.1808
 3.09925  34.5468
 3.12225  34.4822
 3.14525  35.0699
 3.16825  35.8255
 3.19125  35.7975
 3.21425  35.684
 3.23725  35.3659
 3.26025  35.037
 3.28325  34.8404
 3.30625  34.9662
 3.32925  34.8507
 3.35225  34.4773
 3.37525  33.9458
 3.39825  33.5049
 3.42125  33.3143
 3.44425  33.7699
 3.46725  34.0719
 3.49025  33.8164
 3.51325  33.4515
 3.53625  33.5237
 3.55925  33.5814
 3.58225  33.3027
 3.60525  33.0513
 3.62825  32.913
 3.65125  32.8079
 3.67425  32.8049
 3.69725  32.9172
 3.72025  32.5655
 3.74325  32.7262
 3.76625  32.9698
 3.78925  33.0233
 3.81225  32.5559
 3.83525  32.1981
 3.85825  32.029
 3.88125  32.4581
 3.90425  32.1478
 3.92725  32.1678
 3.95025  32.3048
 3.97325  32.6452
 3.99625  32.7617
 4.01925  32.7746
 4.04225  32.4934
 4.06525  32.0157
 4.08825  31.6239
 4.11125  31.9221
 4.13425  31.776
 4.15725  31.3546
 4.18025  31.1341
 4.20325  31.5815
 4.22625  31.9129
 4.24925  31.7802
 4.27225  31.8244
 4.29525  31.8268
 4.31825  31.8523
 4.34125  32.0558
 4.36425  32.149
 4.38725  31.942
 4.41025  31.9706
 4.43325  32.1321
 4.45625  32.202
 4.47925  32.3501
 4.50225  32.2953
 4.52525  32.2584
 4.54825  32.043
 4.57125  32.0794
 4.59425  32.14
 4.61725  32.1595
 4.64025  32.3738
 4.66325  32.5034
 4.68625  32.3787
 4.70925  32.4255
 4.73225  32.3466
 4.75525  32.1129
 4.77825  32.1778
 4.80125  32.3889
 4.82425  32.736
 4.84725  32.6725
 4.87025  32.5225
 4.89325  32.5336
 4.91625  32.7373
 4.93925  32.8112
 4.96225  32.8491
 4.98525  32.8886
 5.00825  32.832
 5.03125  33.074
 5.05425  33.0779
 5.07725  32.8632
 5.10025  32.8971
 5.12325  33.0913
 5.14625  33.4078
 5.16925  33.7394
 5.19225  34.2078
 5.21525  34.2895
 5.23825  34.1361
 5.26125  33.8752
 5.28425  33.5012
 5.30725  33.6681
 5.33025  33.8434
 5.35325  34.0864
 5.37625  34.1551
 5.39925  34.3911
 5.42225  34.3857
 5.44525  34.2822
 5.46825  34.2755
 5.49125  34.379
 5.51425  34.5387
 5.53725  34.759
 5.56025  34.976
 5.58325  35.0356
 5.60625  35.1983
 5.62925  35.1988
 5.65225  35.3911
 5.67525  35.666
 5.69825  35.7195
 5.72125  35.7201
 5.74425  35.743
 5.76725  35.8898
 5.79025  36.1267
 5.81325  36.2364
 5.83625  36.3741
 5.85925  36.7712
 5.88225  37.573
 5.90525  39.6388
 5.92825  45.3199
 5.95125  60.0643
 5.97425  75.4384
 5.99725  76.5919
 6.02025  63.486
 6.04325  47.4672
 6.06625  40.7599
 6.08925  38.3522
 6.11225  37.614
 6.13525  37.3189
 6.15825  37.2614
 6.18125  37.1904
 6.20425  37.1297
 6.22725  37.2576
 6.25025  37.2921
 6.27325  37.3852
 6.29625  37.4331
 6.31925  37.6906
 6.34225  37.8712
 6.36525  37.8863
 6.38825  37.8873
 6.41125  38.0032
 6.43425  38.1001
 6.45725  38.3157
 6.48025  38.532
 6.50325  38.7647
 6.52625  39.0366
 6.54925  39.2207
 6.57225  39.3994
 6.59525  39.5242
 6.61825  39.6191
 6.64125  39.8437
 6.66425  40.1464
 6.68725  40.1586
 6.71025  40.0915
 6.73325  40.204
 6.75625  40.3294
 6.77925  40.6223
 6.80225  40.7387
 6.82525  40.9062
 6.84825  40.9821
 6.87125  41.1485
 6.89425  41.4124
 6.91725  41.7336
 6.94025  41.7935
 6.96325  41.9306
 6.98625  42.0276
 7.00925  42.1716
 7.03225  42.0543
 7.05525  42.2271
 7.07825  42.3062
 7.10125  42.2052
 7.12425  42.4357
 7.14725  42.7978
 7.17025  43.037
 7.19325  43.117
 7.21625  42.9978
 7.23925  42.9462
 7.26225  42.9714
 7.28525  43.1107
 7.30825  43.3162
 7.33125  43.5538
 7.35425  43.7935
 7.37725  43.8341
 7.40025  43.7589
 7.42325  43.6046
 7.44625  43.6836
 7.46925  43.9606
 7.49225  44.0389
 7.51525  43.9469
 7.53825  43.7221
 7.56125  43.8005
 7.58425  43.9697
 7.60725  44.0039
 7.63025  43.8557
 7.65325  43.9512
 7.67625  43.8901
 7.69925  43.9403
 7.72225  44.0127
 7.74525  43.9849
 7.76825  43.8117
 7.79125  43.6741
 7.81425  43.6881
 7.83725  43.7442
 7.86025  43.9064
 7.88325  43.6705
 7.90625  43.601
 7.92925  43.5783
 7.95225  43.4116
 7.97525  43.1072
 7.99825  43.0159
 8.02125  42.8875
 8.04425  42.7202
 8.06725  42.5173
 8.09025  42.3038
 8.11325  42.2329
 8.13625  42.2097
 8.15925  41.8469
 8.18225  41.5542
 8.20525  41.4734
 8.22825  41.2486
 8.25125  41.0272
 8.27425  40.7602
 8.29725  40.2941
 8.32025  40.0761
 8.34325  39.734
 8.36625  39.353
 8.38925  39.1345
 8.41225  38.9371
 8.43525  38.6662
 8.45825  38.3151
 8.48125  38.1338
 8.50425  37.7694
 8.52725  37.3384
 8.55025  37.112
 8.57325  36.7606
 8.59625  36.3251
 8.61925  36.0111
 8.64225  35.9106
 8.66525  35.5421
 8.68825  34.9337
 8.71125  34.4904
 8.73425  34.1599
 8.75725  33.7711
 8.78025  33.4804
 8.80325  33.2676
 8.82625  33.0001
 8.84925  32.5885
 8.87225  32.2946
 8.89525  31.9378
 8.91825  31.6485
 8.94125  31.4531
 8.96425  31.1808
 8.98725  30.8428
 9.01025  30.5962
 9.03325  30.3493
 9.05625  30.0768
 9.07925  29.7691
 9.10225  29.4397
 9.12525  29.1601
 9.14825  29.0877
 9.17125  28.9632
 9.19425  28.6772
 9.21725  28.4611
 9.24025  28.2324
 9.26325  28.0242
 9.28625  27.7635
 9.30925  27.5058
 9.33225  27.3101
 9.35525  27.1664
 9.37825  27.0636
 9.40125  26.8971
 9.42425  26.803
 9.44725  26.706
 9.47025  26.5277
 9.49325  26.3993
 9.51625  26.1671
 9.53925  26.0981
 9.56225  25.9902
 9.58525  25.8566
 9.60825  25.8066
 9.63125  25.5962
 9.65425  25.4049
 9.67725  25.2999
 9.70025  25.2004
 9.72325  25.1953
 9.74625  25.2393
 9.76925  25.2297
 9.79225  25.1817
 9.81525  25.0659
 9.83825  24.8279
 9.86125  24.6771
 9.88425  24.5263
 9.90725  24.4706
 9.93025  24.4941
 9.95325  24.4287
 9.97625  24.3038
 9.99925  24.236
 10.0222  24.1899
 10.0453  24.1548
 10.0683  24.1192
 10.0913  23.9858
 10.1143  23.8449
 10.1373  23.899
 10.1603  23.8952
 10.1832  23.8608
 10.2063  23.819
 10.2293  23.7907
 10.2523  23.6303
 10.2752  23.5204
 10.2982  23.4831
 10.3213  23.4924
 10.3443  23.495
 10.3673  23.3796
 10.3902  23.446
 10.4133  23.4559
 10.4363  23.3732
 10.4593  23.3403
 10.4823  23.3353
 10.5053  23.3217
 10.5283  23.1458
 10.5512  23.102
 10.5742  23.0962
 10.5973  22.9049
 10.6203  22.8721
 10.6433  22.9586
 10.6662  23.0493
 10.6893  23.0194
 10.7123  23.0704
 10.7353  23.0374
 10.7583  22.8954
 10.7813  22.7912
 10.8043  22.6609
 10.8272  22.6117
 10.8503  22.6537
 10.8733  22.7579
 10.8963  22.7065
 10.9192  22.763
 10.9422  22.7094
 10.9653  22.6764
 10.9883  22.7045
 11.0113  22.6509
 11.0343  22.6372
 11.0573  22.4368
 11.0803  22.4375
 11.1033  22.5267
 11.1263  22.5964
 11.1493  22.597
 11.1723  22.5541
 11.1953  22.4803
 11.2182  22.4377
 11.2413  22.4386
 11.2643  22.4604
 11.2873  22.4595
 11.3102  22.4516
 11.3333  22.485
 11.3563  22.5246
 11.3793  22.631
 11.4023  22.8071
 11.4253  22.8071
 11.4483  22.7414
 11.4713  22.7512
 11.4942  22.8132
 11.5173  23.2695
 11.5403  24.3968
 11.5633  26.7754
 11.5862  29.9943
 11.6093  30.0688
 11.6323  27.3997
 11.6553  24.6474
 11.6783  23.3468
 11.7013  22.8878
 11.7243  22.7457
 11.7473  22.7198
 11.7703  22.6129
 11.7933  22.6243
 11.8163  22.6767
 11.8393  22.6563
 11.8622  22.5243
 11.8853  22.4983
 11.9083  22.6319
 11.9313  22.809
 11.9543  23.3841
 11.9773  24.1884
 12.0003  24.2475
 12.0233  23.9144
 12.0463  23.8903
 12.0693  24.4949
 12.0923  26.1831
 12.1153  27.3086
 12.1382  27.1011
 12.1613  25.3833
 12.1843  23.8121
 12.2073  22.9048
 12.2302  22.6
 12.2533  22.5139
 12.2763  22.5772
 12.2993  22.6012
 12.3223  22.5965
 12.3453  22.5786
 12.3683  22.5725
 12.3913  22.6342
 12.4142  22.6236
 12.4373  22.5779
 12.4603  22.5201
 12.4833  22.5785
 12.5062  22.6345
 12.5292  22.6728
 12.5523  22.6739
 12.5753  22.6792
 12.5983  22.7421
 12.6212  22.7605
 12.6443  22.731
 12.6673  22.7116
 12.6903  22.7704
 12.7133  22.9268
 12.7363  23.0807
 12.7593  23.06
 12.7822  23.1669
 12.8052  23.2321
 12.8283  23.2758
 12.8513  23.3332
 12.8742  23.4293
 12.8972  23.5348
 12.9203  23.5549
 12.9433  23.6246
 12.9663  23.7822
 12.9893  23.9378
 13.0123  24.0852
 13.0353  24.2183
 13.0582  24.4408
 13.0813  24.5396
 13.1043  24.7687
 13.1273  24.9918
 13.1502  25.1648
 13.1732  25.2772
 13.1963  25.5174
 13.2193  25.9325
 13.2423  26.3643
 13.2652  26.5954
 13.2883  26.8518
 13.3113  27.1218
 13.3343  27.3307
 13.3573  27.6464
 13.3803  27.9326
 13.4033  28.2218
 13.4262  28.3888
 13.4492  28.6503
 13.4723  28.928
 13.4953  29.2112
 13.5183  29.3416
 13.5412  29.4879
 13.5643  29.6425
 13.5873  29.7419
 13.6103  29.7083
 13.6333  29.669
 13.6563  29.7379
 13.6793  29.8074
 13.7022  29.7499
 13.7253  29.7145
 13.7483  29.6047
 13.7713  29.5971
 13.7942  29.6331
 13.8172  29.7638
 13.8403  30.1436
 13.8633  30.8545
 13.8863  33.1194
 13.9093  39.2337
 13.9323  48.7973
 13.9553  53.8505
 13.9783  49.3083
 14.0013  41.0941
 14.0243  34.099
 14.0473  30.1781
 14.0703  28.742
 14.0932  28.1622
 14.1163  27.8513
 14.1393  27.5612
 14.1623  27.3332
 14.1852  27.1134
 14.2083  26.977
 14.2313  26.7515
 14.2543  26.606
 14.2773  26.4474
 14.3003  26.3224
 14.3233  26.3277
 14.3463  26.3135
 14.3692  26.2919
 14.3923  26.125
 14.4153  25.9614
 14.4383  25.9355
 14.4612  25.9532
 14.4843  25.8506
 14.5073  25.71
 14.5303  25.6374
 14.5533  25.6739
 14.5763  25.7241
 14.5993  25.6608
 14.6223  25.5419
 14.6453  25.4833
 14.6683  25.4356
 14.6913  25.4436
 14.7143  25.862
 14.7372  25.9709
 14.7603  25.2692
 14.7833  25.0984
 14.8063  24.9995
 14.8293  24.939
 14.8523  24.923
 14.8753  24.8867
 14.8983  24.9215
 14.9213  24.9133
 14.9443  24.8744
 14.9673  24.9113
 14.9903  24.9575
 15.0132  24.9954
 15.0363  25.0591
 15.0593  25.0607
 15.0823  25.2529
 15.1052  25.5943
 15.1283  26.1531
 15.1513  28.1124
 15.1743  33.4792
 15.1973  38.7411
 15.2203  38.1736
 15.2433  33.0182
 15.2663  28.2209
 15.2892  25.9111
 15.3123  25.2971
 15.3353  25.0509
 15.3583  24.9242
 15.3812  24.9668
 15.4043  25.0935
 15.4273  24.9078
 15.4503  24.7479
 15.4733  24.779
 15.4963  24.8949
 15.5193  24.9994
 15.5423  24.8427
 15.5653  24.5891
 15.5883  24.5778
 15.6113  24.6195
 15.6343  24.6577
 15.6572  24.6041
 15.6803  24.5258
 15.7033  24.5154
 15.7263  24.6078
 15.7492  24.5697
 15.7723  24.636
 15.7953  24.6003
 15.8183  24.6475
 15.8413  24.6982
 15.8643  24.683
 15.8873  24.6699
 15.9103  24.6027
 15.9332  24.66
 15.9563  24.6095
 15.9793  24.6468
 16.0023  24.6547
 16.0253  24.6637
 16.0482  24.7863
 16.0713  24.8496
 16.0943  24.9619
 16.1172  24.9341
 16.1403  24.8372
 16.1633  24.8785
 16.1863  25.0432
 16.2093  25.4472
 16.2323  25.9782
 16.2553  26.497
 16.2783  26.3602
 16.3012  25.5302
 16.3243  25.0003
 16.3472  24.7781
 16.3703  24.6478
 16.3933  24.7231
 16.4163  24.8284
 16.4393  24.7706
 16.4623  24.6993
 16.4853  24.7746
 16.5083  24.7398
 16.5312  24.6495
 16.5543  24.6177
 16.5773  24.5764
 16.6002  24.557
 16.6233  24.4748
 16.6463  24.4075
 16.6693  24.4391
 16.6923  24.5193
 16.7153  24.5789
 16.7383  24.5567
 16.7613  24.4871
 16.7843  24.473
 16.8073  24.4977
 16.8303  24.4969
 16.8533  24.4711
 16.8763  24.4407
 16.8992  24.397
 16.9223  24.367
 16.9453  24.403
 16.9683  24.3823
 16.9913  24.37
 17.0143  24.2979
 17.0373  24.299
 17.0603  24.1599
 17.0832  24.1565
 17.1063  24.1398
 17.1293  24.1518
 17.1522  24.2835
 17.1753  24.341
 17.1983  24.3522
 17.2213  24.3276
 17.2443  24.2533
 17.2673  24.174
 17.2903  24.1773
 17.3133  24.1248
 17.3362  24.0875
 17.3593  24.0583
 17.3823  24.1212
 17.4053  24.1214
 17.4283  23.9895
 17.4513  23.9935
 17.4743  24.047
 17.4973  24.0765
 17.5203  24.0135
 17.5433  24.0223
 17.5663  23.9971
 17.5893  23.9145
 17.6123  23.9856
 17.6352  24.0892
 17.6583  23.9558
 17.6813  23.9018
 17.7042  23.9641
 17.7273  23.988
 17.7503  23.9933
 17.7733  24.1274
 17.7963  24.2946
 17.8193  24.2322
 17.8423  24.0981
 17.8653  24.0661
 17.8882  24.0821
 17.9113  24.2154
 17.9343  24.3978
 17.9573  24.6498
 17.9803  25.1821
 18.0033  26.106
 18.0263  27.5171
 18.0493  30.1516
 18.0723  35.7223
 18.0953  40.9376
 18.1183  40.227
 18.1413  33.8208
 18.1643  28.8262
 18.1872  26.1552
 18.2103  25.0989
 18.2333  24.6427
 18.2563  24.5105
 18.2793  24.5346
 18.3023  24.8374
 18.3253  25.003
 18.3483  24.4776
 18.3712  24.0682
 18.3943  23.931
 18.4173  23.9618
 18.4402  23.9525
 18.4633  23.9456
 18.4863  23.7994
 18.5093  23.7932
 18.5323  23.784
 18.5553  23.7466
 18.5783  23.7543
 18.6013  23.7705
 18.6242  23.6871
 18.6473  23.5704
 18.6703  23.4952
 18.6933  23.6994
 18.7163  23.6333
 18.7392  23.6243
 18.7623  23.6121
 18.7853  23.5959
 18.8083  23.6173
 18.8313  23.577
 18.8543  23.4994
 18.8773  23.5209
 18.9003  23.5128
 18.9232  23.5676
 18.9463  23.6431
 18.9693  23.6344
 18.9922  23.5672
 19.0153  23.5228
 19.0383  23.5637
 19.0613  23.5629
 19.0843  23.6172
 19.1073  23.5965
 19.1303  23.5948
 19.1533  23.6063
 19.1762  23.5007
 19.1993  23.4883
 19.2223  23.5558
 19.2453  23.6815
 19.2683  23.7767
 19.2913  23.7475
 19.3143  23.7269
 19.3373  23.6993
 19.3603  23.6611
 19.3833  23.6725
 19.4062  23.7322
 19.4293  23.7951
 19.4523  23.8229
 19.4752  23.7944
 19.4983  23.8438
 19.5213  23.9249
 19.5443  24.0357
 19.5673  24.0039
 19.5903  24.0942
 19.6133  24.2835
 19.6363  24.7081
 19.6593  25.4675
 19.6823  26.8453
 19.7053  28.7681
 19.7283  30.1375
 19.7513  29.4852
 19.7742  27.8604
 19.7973  27.0024
 19.8203  27.6031
 19.8433  29.3733
 19.8663  32.5662
 19.8893  32.2848
 19.9123  30.0456
 19.9353  27.1346
 19.9582  25.1256
 19.9813  24.546
 20.0043  24.3644
 20.0272  24.1909
 20.0503  24.1393
 20.0733  24.0348
 20.0963  23.97
 20.1193  23.9351
 20.1423  23.8432
 20.1653  23.896
 20.1883  23.9409
 20.2112  23.9059
 20.2343  23.9453
 20.2573  23.9027
 20.2803  23.84
 20.3033  23.78
 20.3263  23.7541
 20.3493  23.7893
 20.3723  23.8134
 20.3953  23.8343
 20.4183  23.9506
 20.4413  24.0129
 20.4643  23.9778
 20.4873  23.8877
 20.5102  23.8006
 20.5333  23.7906
 20.5563  23.9152
 20.5792  23.9079
 20.6023  23.8766
 20.6253  23.9503
 20.6483  24.1118
 20.6713  24.1534
 20.6943  24.2987
 20.7173  24.8446
 20.7403  25.6688
 20.7632  26.3324
 20.7863  26.3089
 20.8093  25.6199
 20.8323  24.8024
 20.8553  24.3422
 20.8783  24.1165
 20.9013  24.0783
 20.9243  24.0109
 20.9473  24.0183
 20.9703  23.9115
 20.9933  23.9143
 21.0163  23.9495
 21.0393  24.2354
 21.0622  24.1594
 21.0853  24.0623
 21.1083  23.881
 21.1313  23.8651
 21.1543  23.8162
 21.1773  23.9737
 21.2003  24.0282
 21.2233  24.0085
 21.2462  23.9451
 21.2693  24.0261
 21.2923  24.003
 21.3152  23.9153
 21.3383  23.9212
 21.3613  23.9086
 21.3843  23.9575
 21.4073  24.0138
 21.4303  24.0509
 21.4533  23.9951
 21.4763  23.9654
 21.4992  23.9826
 21.5223  24.0434
 21.5453  24.023
 21.5683  24.0221
 21.5913  24.0696
 21.6142  24.0501
 21.6373  24.1177
 21.6603  24.2272
 21.6833  24.1839
 21.7063  24.1514
 21.7293  24.2001
 21.7523  24.2263
 21.7753  24.1426
 21.7982  24.1229
 21.8213  24.1598
 21.8443  24.2302
 21.8672  24.1834
 21.8903  24.1918
 21.9133  24.305
 21.9363  24.3002
 21.9593  24.2891
 21.9823  24.338
 22.0053  24.3219
 22.0283  24.4131
 22.0512  24.3903
 22.0743  24.3779
 22.0973  24.3828
 22.1203  24.4555
 22.1433  24.4335
 22.1663  24.4551
 22.1893  24.5236
 22.2123  24.5053
 22.2353  24.5055
 22.2583  24.501
 22.2813  24.4745
 22.3043  24.5884
 22.3273  24.6102
 22.3502  24.5889
 22.3733  24.6386
 22.3963  24.5988
 22.4193  24.5765
 22.4423  24.7195
 22.4653  24.8167
 22.4883  24.7801
 22.5113  24.8215
 22.5343  24.7972
 22.5573  24.8012
 22.5803  24.7518
 22.6033  24.8732
 22.6263  25.053
 22.6493  25.1144
 22.6723  25.1103
 22.6953  25.2017
 22.7183  25.232
 22.7413  25.2851
 22.7643  25.3527
 22.7873  25.3223
 22.8103  25.4079
 22.8333  25.5168
 22.8563  25.6434
 22.8793  25.693
 22.9022  25.798
 22.9253  25.987
 22.9483  26.1106
 22.9713  26.314
 22.9943  26.627