File: test-data-xrd/xrd-map-34-ID-E/Data_0028.chi
F:\20151113_APS_34IDE\\Brian\Particle1\OCV\Data_0028.tif
2-Theta Angle (Degrees)
Intensity
       2000
 0.01725  0.0000000E+00
 0.04025  0.0000000E+00
 0.06325  0.0000000E+00
 0.08625  0.0000000E+00
 0.10925  0.0000000E+00
 0.13225  0.0000000E+00
 0.15525  0.0000000E+00
 0.17825  0.0000000E+00
 0.20125  0.0000000E+00
 0.22425  0.0000000E+00
 0.24725  0.0000000E+00
 0.27025  0.0000000E+00
 0.29325  0.0000000E+00
 0.31625  0.0000000E+00
 0.33925  0.0000000E+00
 0.36225  0.0000000E+00
 0.38525  0.0000000E+00
 0.40825  0.0000000E+00
 0.43125  0.0000000E+00
 0.45425  0.0000000E+00
 0.47725  0.0000000E+00
 0.50025  0.0000000E+00
 0.52325  0.0000000E+00
 0.54625  0.0000000E+00
 0.56925  0.0000000E+00
 0.59225  0.0000000E+00
 0.61525  0.0000000E+00
 0.63825  0.0000000E+00
 0.66125  0.0000000E+00
 0.68425  0.0000000E+00
 0.70725  0.0000000E+00
 0.73025  0.0000000E+00
 0.75325  0.0000000E+00
 0.77625  0.0000000E+00
 0.79925  0.0000000E+00
 0.82225  0.0000000E+00
 0.84525  0.0000000E+00
 0.86825  0.0000000E+00
 0.89125  0.0000000E+00
 0.91425  0.0000000E+00
 0.93725  0.0000000E+00
 0.96025  0.0000000E+00
 0.98325  0.0000000E+00
 1.00625  0.0000000E+00
 1.02925  0.0000000E+00
 1.05225  0.0000000E+00
 1.07525  0.0000000E+00
 1.09825  0.0000000E+00
 1.12125  0.0000000E+00
 1.14425  0.0000000E+00
 1.16725  0.0000000E+00
 1.19025  0.0000000E+00
 1.21325  0.0000000E+00
 1.23625  0.0000000E+00
 1.25925  0.0000000E+00
 1.28225  0.0000000E+00
 1.30525  0.0000000E+00
 1.32825  0.0000000E+00
 1.35125  0.0000000E+00
 1.37425  0.0000000E+00
 1.39725  0.0000000E+00
 1.42025  0.0000000E+00
 1.44325  0.0000000E+00
 1.46625  0.0000000E+00
 1.48925  0.0000000E+00
 1.51225  0.0000000E+00
 1.53525  0.0000000E+00
 1.55825  0.0000000E+00
 1.58125  0.0000000E+00
 1.60425  0.0000000E+00
 1.62725  0.0000000E+00
 1.65025  0.0000000E+00
 1.67325  0.0000000E+00
 1.69625  0.0000000E+00
 1.71925  0.0000000E+00
 1.74225  0.0000000E+00
 1.76525  0.0000000E+00
 1.78825  0.0000000E+00
 1.81125  0.0000000E+00
 1.83425  0.0000000E+00
 1.85725  0.0000000E+00
 1.88025  0.0000000E+00
 1.90325  0.0000000E+00
 1.92625  0.0000000E+00
 1.94925  0.0000000E+00
 1.97225  0.0000000E+00
 1.99525  0.0000000E+00
 2.01825  0.0000000E+00
 2.04125  0.0000000E+00
 2.06425  0.0000000E+00
 2.08725  0.0000000E+00
 2.11025  0.0000000E+00
 2.13325  0.0000000E+00
 2.15625  0.0000000E+00
 2.17925  0.0000000E+00
 2.20225  0.0000000E+00
 2.22525  0.0000000E+00
 2.24825  0.0000000E+00
 2.27125  0.0000000E+00
 2.29425  0.0000000E+00
 2.31725  0.0000000E+00
 2.34025  0.0000000E+00
 2.36325  0.0000000E+00
 2.38625  0.0000000E+00
 2.40925  0.0000000E+00
 2.43225  0.0000000E+00
 2.45525  0.0000000E+00
 2.47825  0.0000000E+00
 2.50125  0.0000000E+00
 2.52425  0.0000000E+00
 2.54725  0.0000000E+00
 2.57025  0.0000000E+00
 2.59325  0.0000000E+00
 2.61625  0.0000000E+00
 2.63925  0.0000000E+00
 2.66225  0.0000000E+00
 2.68525  0.0000000E+00
 2.70825  0.0000000E+00
 2.73125  0.0000000E+00
 2.75425  0.0000000E+00
 2.77725  0.0000000E+00
 2.80025  0.0000000E+00
 2.82325  31.3856
 2.84625  32.4509
 2.86925  33.8259
 2.89225  34.2636
 2.91525  35.3242
 2.93825  35.1421
 2.96125  35.8334
 2.98425  35.9758
 3.00725  36.9327
 3.03025  36.7282
 3.05325  35.84
 3.07625  35.2029
 3.09925  34.9805
 3.12225  34.4736
 3.14525  34.8445
 3.16825  35.4411
 3.19125  36.1015
 3.21425  36.0765
 3.23725  36.0576
 3.26025  35.5011
 3.28325  35.1493
 3.30625  34.4969
 3.32925  34.2103
 3.35225  34.3044
 3.37525  34.2023
 3.39825  34.3412
 3.42125  34.2115
 3.44425  34.0248
 3.46725  34.1126
 3.49025  34.231
 3.51325  33.7904
 3.53625  33.4787
 3.55925  33.4398
 3.58225  33.6865
 3.60525  34.0145
 3.62825  34.2436
 3.65125  34.1405
 3.67425  33.8175
 3.69725  33.6974
 3.72025  33.572
 3.74325  33.5415
 3.76625  33.3436
 3.78925  33.1267
 3.81225  32.9076
 3.83525  32.8358
 3.85825  33.2129
 3.88125  33.0441
 3.90425  32.7789
 3.92725  32.6864
 3.95025  32.954
 3.97325  33.4193
 3.99625  33.6927
 4.01925  33.3946
 4.04225  32.9613
 4.06525  32.9028
 4.08825  32.7857
 4.11125  32.7222
 4.13425  32.5673
 4.15725  32.7313
 4.18025  32.4259
 4.20325  32.2915
 4.22625  32.0631
 4.24925  32.1535
 4.27225  32.5222
 4.29525  32.8235
 4.31825  32.7426
 4.34125  32.5918
 4.36425  32.7125
 4.38725  33.0858
 4.41025  32.9818
 4.43325  32.8586
 4.45625  32.6855
 4.47925  32.8952
 4.50225  33.117
 4.52525  32.9696
 4.54825  32.9425
 4.57125  32.8148
 4.59425  32.9727
 4.61725  33.053
 4.64025  32.9411
 4.66325  33.0133
 4.68625  33.3293
 4.70925  33.46
 4.73225  33.1268
 4.75525  32.7015
 4.77825  32.6306
 4.80125  32.7984
 4.82425  32.9357
 4.84725  32.943
 4.87025  33.01
 4.89325  32.9798
 4.91625  33.0558
 4.93925  32.9495
 4.96225  33.1059
 4.98525  33.4587
 5.00825  33.5166
 5.03125  33.4086
 5.05425  33.4548
 5.07725  33.5957
 5.10025  33.6357
 5.12325  33.6318
 5.14625  33.8178
 5.16925  33.8129
 5.19225  34.1157
 5.21525  34.3331
 5.23825  34.1939
 5.26125  34.1602
 5.28425  34.1723
 5.30725  34.5689
 5.33025  34.9245
 5.35325  34.9582
 5.37625  34.9753
 5.39925  35.1558
 5.42225  35.2138
 5.44525  35.0809
 5.46825  35.0229
 5.49125  35.0204
 5.51425  35.208
 5.53725  35.2387
 5.56025  35.3484
 5.58325  35.5422
 5.60625  35.6502
 5.62925  35.5848
 5.65225  35.526
 5.67525  35.7259
 5.69825  35.8783
 5.72125  35.9933
 5.74425  36.2226
 5.76725  36.2945
 5.79025  36.3975
 5.81325  36.4772
 5.83625  36.6955
 5.85925  36.9367
 5.88225  37.4367
 5.90525  38.8426
 5.92825  42.2711
 5.95125  47.2974
 5.97425  59.131
 5.99725  59.4904
 6.02025  52.5121
 6.04325  43.0384
 6.06625  39.2927
 6.08925  38.2707
 6.11225  37.9071
 6.13525  37.7086
 6.15825  37.5575
 6.18125  37.5971
 6.20425  37.707
 6.22725  37.7878
 6.25025  37.8841
 6.27325  37.9598
 6.29625  38.153
 6.31925  38.2736
 6.34225  38.5
 6.36525  38.5847
 6.38825  38.6103
 6.41125  38.8237
 6.43425  39.0181
 6.45725  39.1024
 6.48025  39.0509
 6.50325  39.3806
 6.52625  39.6457
 6.54925  39.6699
 6.57225  39.6406
 6.59525  39.7201
 6.61825  39.7592
 6.64125  40.1516
 6.66425  40.4357
 6.68725  40.5975
 6.71025  40.8109
 6.73325  41.0252
 6.75625  41.2015
 6.77925  41.331
 6.80225  41.4305
 6.82525  41.6435
 6.84825  41.8305
 6.87125  41.9717
 6.89425  42.0804
 6.91725  42.0922
 6.94025  42.1772
 6.96325  42.2455
 6.98625  42.5697
 7.00925  42.8284
 7.03225  43.0555
 7.05525  43.4789
 7.07825  43.4938
 7.10125  43.4356
 7.12425  43.6649
 7.14725  43.9061
 7.17025  43.9278
 7.19325  43.9795
 7.21625  44.012
 7.23925  44.0705
 7.26225  44.1579
 7.28525  44.1181
 7.30825  44.134
 7.33125  44.1218
 7.35425  44.1535
 7.37725  44.2436
 7.40025  44.2775
 7.42325  44.4241
 7.44625  44.6133
 7.46925  44.9654
 7.49225  44.8918
 7.51525  44.74
 7.53825  44.6542
 7.56125  44.6841
 7.58425  44.8013
 7.60725  44.9246
 7.63025  45.0199
 7.65325  44.8763
 7.67625  44.7431
 7.69925  44.8097
 7.72225  44.9769
 7.74525  45.1338
 7.76825  45.071
 7.79125  45.0415
 7.81425  44.9764
 7.83725  44.9244
 7.86025  44.9212
 7.88325  44.6768
 7.90625  44.5375
 7.92925  44.5089
 7.95225  44.3441
 7.97525  44.0905
 7.99825  43.9323
 8.02125  43.9263
 8.04425  43.7391
 8.06725  43.4502
 8.09025  43.2177
 8.11325  43.111
 8.13625  43.0101
 8.15925  42.8011
 8.18225  42.4993
 8.20525  42.3716
 8.22825  42.4242
 8.25125  42.2125
 8.27425  41.6828
 8.29725  41.2147
 8.32025  40.9354
 8.34325  40.575
 8.36625  40.2431
 8.38925  39.9394
 8.41225  39.6237
 8.43525  39.1887
 8.45825  38.8743
 8.48125  38.5485
 8.50425  38.1934
 8.52725  37.9837
 8.55025  37.6228
 8.57325  37.2415
 8.59625  36.7855
 8.61925  36.6163
 8.64225  36.348
 8.66525  35.9012
 8.68825  35.4063
 8.71125  34.98
 8.73425  34.5536
 8.75725  34.2685
 8.78025  34.0099
 8.80325  33.7643
 8.82625  33.5435
 8.84925  33.2771
 8.87225  32.9512
 8.89525  32.5749
 8.91825  32.1615
 8.94125  32.0049
 8.96425  31.7891
 8.98725  31.4327
 9.01025  31.079
 9.03325  30.709
 9.05625  30.5058
 9.07925  30.2363
 9.10225  29.9168
 9.12525  29.8032
 9.14825  29.6578
 9.17125  29.4471
 9.19425  29.2293
 9.21725  29.0232
 9.24025  28.8056
 9.26325  28.6723
 9.28625  28.3946
 9.30925  28.0899
 9.33225  27.8474
 9.35525  27.6455
 9.37825  27.5375
 9.40125  27.3729
 9.42425  27.2119
 9.44725  27.0574
 9.47025  26.9481
 9.49325  26.8802
 9.51625  26.7588
 9.53925  26.5443
 9.56225  26.3593
 9.58525  26.2166
 9.60825  26.0785
 9.63125  25.948
 9.65425  25.7928
 9.67725  25.5812
 9.70025  25.4414
 9.72325  25.4636
 9.74625  25.3828
 9.76925  25.3495
 9.79225  25.3377
 9.81525  25.2484
 9.83825  25.1239
 9.86125  24.9369
 9.88425  24.8453
 9.90725  24.8668
 9.93025  24.7559
 9.95325  24.7274
 9.97625  24.7274
 9.99925  24.7399
 10.0222  24.7117
 10.0453  24.5909
 10.0683  24.4795
 10.0913  24.4119
 10.1143  24.2222
 10.1373  24.2396
 10.1603  24.3357
 10.1832  24.3321
 10.2063  24.1928
 10.2293  24.0281
 10.2523  23.9982
 10.2752  23.8752
 10.2982  23.7391
 10.3213  23.6508
 10.3443  23.5367
 10.3673  23.4914
 10.3902  23.605
 10.4133  23.634
 10.4363  23.612
 10.4593  23.5975
 10.4823  23.5637
 10.5053  23.5017
 10.5283  23.4813
 10.5512  23.453
 10.5742  23.3848
 10.5973  23.1523
 10.6203  23.1149
 10.6433  23.1773
 10.6662  23.1755
 10.6893  23.1201
 10.7123  23.2192
 10.7353  23.2199
 10.7583  23.1655
 10.7813  23.1686
 10.8043  23.1398
 10.8272  23.1124
 10.8503  23.1218
 10.8733  23.1329
 10.8963  23.0347
 10.9192  22.9561
 10.9422  22.8953
 10.9653  22.7971
 10.9883  22.7583
 11.0113  22.8174
 11.0343  22.8493
 11.0573  22.7913
 11.0803  22.811
 11.1033  22.8634
 11.1263  22.7602
 11.1493  22.6293
 11.1723  22.7767
 11.1953  22.7284
 11.2182  22.6632
 11.2413  22.7208
 11.2643  22.7198
 11.2873  22.7298
 11.3102  22.7418
 11.3333  22.7555
 11.3563  22.729
 11.3793  22.816
 11.4023  23.0995
 11.4253  23.2047
 11.4483  23.0986
 11.4713  23.1435
 11.4942  23.287
 11.5173  23.7706
 11.5403  25.2932
 11.5633  27.9137
 11.5862  30.0114
 11.6093  29.3903
 11.6323  26.6644
 11.6553  24.5064
 11.6783  23.5234
 11.7013  23.1416
 11.7243  22.9918
 11.7473  22.9255
 11.7703  22.7916
 11.7933  22.7903
 11.8163  22.8134
 11.8393  22.7568
 11.8622  22.7024
 11.8853  22.7743
 11.9083  22.9233
 11.9313  23.2257
 11.9543  23.8035
 11.9773  24.1783
 12.0003  24.2323
 12.0233  23.8417
 12.0463  23.7476
 12.0693  24.316
 12.0923  25.4685
 12.1153  26.0521
 12.1382  25.4542
 12.1613  24.3067
 12.1843  23.4309
 12.2073  23.0177
 12.2302  22.8625
 12.2533  22.7713
 12.2763  22.809
 12.2993  22.9029
 12.3223  22.9011
 12.3453  22.8712
 12.3683  22.8794
 12.3913  22.9174
 12.4142  22.8938
 12.4373  22.8355
 12.4603  22.8744
 12.4833  22.9787
 12.5062  22.9619
 12.5292  22.9573
 12.5523  22.9607
 12.5753  22.9857
 12.5983  23.0223
 12.6212  23.0541
 12.6443  23.0979
 12.6673  23.0538
 12.6903  23.0351
 12.7133  23.169
 12.7363  23.2741
 12.7593  23.2831
 12.7822  23.4025
 12.8052  23.4266
 12.8283  23.4588
 12.8513  23.5588
 12.8742  23.6776
 12.8972  23.7598
 12.9203  23.9031
 12.9433  23.9631
 12.9663  23.972
 12.9893  24.0846
 13.0123  24.2534
 13.0353  24.4543
 13.0582  24.6605
 13.0813  24.7233
 13.1043  24.8697
 13.1273  25.1257
 13.1502  25.4584
 13.1732  25.6683
 13.1963  25.9812
 13.2193  26.3013
 13.2423  26.6335
 13.2652  26.8485
 13.2883  27.0666
 13.3113  27.3511
 13.3343  27.6581
 13.3573  27.924
 13.3803  28.1907
 13.4033  28.4911
 13.4262  28.7583
 13.4492  29.1152
 13.4723  29.3053
 13.4953  29.6239
 13.5183  29.8554
 13.5412  30.0326
 13.5643  30.1584
 13.5873  30.2091
 13.6103  30.1701
 13.6333  30.2456
 13.6563  30.1768
 13.6793  30.1876
 13.7022  30.016
 13.7253  29.9374
 13.7483  30.0169
 13.7713  30.0624
 13.7942  30.0379
 13.8172  30.0864
 13.8403  30.3444
 13.8633  31.2293
 13.8863  33.5878
 13.9093  38.3391
 13.9323  45.0355
 13.9553  49.3648
 13.9783  47.3878
 14.0013  40.0629
 14.0243  33.707
 14.0473  30.1121
 14.0703  28.842
 14.0932  28.3455
 14.1163  28.0602
 14.1393  27.8265
 14.1623  27.5916
 14.1852  27.3522
 14.2083  27.2507
 14.2313  27.0695
 14.2543  26.813
 14.2773  26.7097
 14.3003  26.7234
 14.3233  26.6641
 14.3463  26.5897
 14.3692  26.5386
 14.3923  26.3746
 14.4153  26.3287
 14.4383  26.2603
 14.4612  26.1082
 14.4843  26.0289
 14.5073  25.9293
 14.5303  25.8309
 14.5533  25.8538
 14.5763  25.7748
 14.5993  25.6562
 14.6223  25.6879
 14.6453  25.6764
 14.6683  25.6888
 14.6913  25.7279
 14.7143  25.585
 14.7372  25.5383
 14.7603  25.4389
 14.7833  25.4201
 14.8063  25.3357
 14.8293  25.2917
 14.8523  25.3483
 14.8753  25.2903
 14.8983  25.2937
 14.9213  25.2144
 14.9443  25.1372
 14.9673  25.1394
 14.9903  25.0936
 15.0132  25.1519
 15.0363  25.2491
 15.0593  25.2645
 15.0823  25.2273
 15.1052  25.4643
 15.1283  25.8876
 15.1513  26.5509
 15.1743  27.2515
 15.1973  27.5053
 15.2203  27.0935
 15.2433  26.1843
 15.2663  25.3937
 15.2892  25.0238
 15.3123  24.9401
 15.3353  24.8879
 15.3583  24.8538
 15.3812  24.8083
 15.4043  24.8824
 15.4273  24.8418
 15.4503  24.8026
 15.4733  24.7107
 15.4963  24.7583
 15.5193  24.6877
 15.5423  24.6907
 15.5653  24.7591
 15.5883  24.7967
 15.6113  24.7904
 15.6343  24.7727
 15.6572  24.7881
 15.6803  24.7728
 15.7033  24.7902
 15.7263  24.8135
 15.7492  24.8068
 15.7723  24.8399
 15.7953  24.832
 15.8183  24.8418
 15.8413  24.7922
 15.8643  24.7793
 15.8873  24.7201
 15.9103  24.7413
 15.9332  24.7719
 15.9563  24.7912
 15.9793  24.8089
 16.0023  24.796
 16.0253  24.7885
 16.0482  24.8869
 16.0713  24.8757
 16.0943  24.8832
 16.1172  24.9761
 16.1403  25.0493
 16.1633  25.1148
 16.1863  25.2059
 16.2093  25.4352
 16.2323  25.6142
 16.2553  25.9438
 16.2783  26.0688
 16.3012  25.6438
 16.3243  25.1849
 16.3472  25.0087
 16.3703  25.0099
 16.3933  25.0469
 16.4163  24.9422
 16.4393  24.8894
 16.4623  25.0241
 16.4853  25.0174
 16.5083  24.866
 16.5312  24.8237
 16.5543  24.8757
 16.5773  24.8236
 16.6002  24.7992
 16.6233  24.7533
 16.6463  24.7756
 16.6693  24.8661
 16.6923  24.8529
 16.7153  24.8091
 16.7383  24.7591
 16.7613  24.7411
 16.7843  24.8319
 16.8073  24.7029
 16.8303  24.5765
 16.8533  24.5926
 16.8763  24.6895
 16.8992  24.6271
 16.9223  24.5469
 16.9453  24.5047
 16.9683  24.5339
 16.9913  24.5234
 17.0143  24.431
 17.0373  24.3673
 17.0603  24.3637
 17.0832  24.481
 17.1063  24.4987
 17.1293  24.4971
 17.1522  24.5105
 17.1753  24.5279
 17.1983  24.5908
 17.2213  24.5837
 17.2443  24.4187
 17.2673  24.2303
 17.2903  24.2392
 17.3133  24.2743
 17.3362  24.2999
 17.3593  24.2605
 17.3823  24.3155
 17.4053  24.3124
 17.4283  24.2513
 17.4513  24.1216
 17.4743  24.1223
 17.4973  24.1874
 17.5203  24.183
 17.5433  24.2076
 17.5663  24.1074
 17.5893  24.0152
 17.6123  24.0245
 17.6352  24.0697
 17.6583  24.0045
 17.6813  24.085
 17.7042  24.1294
 17.7273  24.0155
 17.7503  24.012
 17.7733  24.1154
 17.7963  24.1594
 17.8193  24.1646
 17.8423  24.1652
 17.8653  24.1387
 17.8882  24.183
 17.9113  24.1856
 17.9343  24.2057
 17.9573  24.2537
 17.9803  24.4144
 18.0033  24.7867
 18.0263  25.1921
 18.0493  25.715
 18.0723  26.7097
 18.0953  28.007
 18.1183  28.4516
 18.1413  28.0775
 18.1643  26.0992
 18.1872  24.8696
 18.2103  24.3936
 18.2333  24.2611
 18.2563  24.1336
 18.2793  23.9925
 18.3023  23.9508
 18.3253  23.8481
 18.3483  23.8139
 18.3712  23.9326
 18.3943  23.8573
 18.4173  23.8838
 18.4402  23.9349
 18.4633  23.8795
 18.4863  23.8286
 18.5093  23.8131
 18.5323  23.7275
 18.5553  23.6136
 18.5783  23.6146
 18.6013  23.6494
 18.6242  23.7085
 18.6473  23.7287
 18.6703  23.6956
 18.6933  23.7878
 18.7163  23.7858
 18.7392  23.7465
 18.7623  23.7045
 18.7853  23.7494
 18.8083  23.8287
 18.8313  23.6779
 18.8543  23.6386
 18.8773  23.5746
 18.9003  23.6255
 18.9232  23.7338
 18.9463  23.8418
 18.9693  23.8357
 18.9922  23.7531
 19.0153  23.7649
 19.0383  23.7988
 19.0613  23.9253
 19.0843  23.9211
 19.1073  23.8554
 19.1303  23.7666
 19.1533  23.752
 19.1762  23.7549
 19.1993  23.7991
 19.2223  23.8589
 19.2453  23.7766
 19.2683  23.8521
 19.2913  23.8225
 19.3143  23.7581
 19.3373  23.7462
 19.3603  23.776
 19.3833  23.8315
 19.4062  23.9327
 19.4293  24.0065
 19.4523  24.0244
 19.4752  24.003
 19.4983  23.993
 19.5213  24.0462
 19.5443  23.9877
 19.5673  23.9843
 19.5903  24.2125
 19.6133  24.4181
 19.6363  24.8139
 19.6593  25.7903
 19.6823  27.3974
 19.7053  29.0069
 19.7283  29.0832
 19.7513  27.3846
 19.7742  25.9715
 19.7973  25.8519
 19.8203  26.7352
 19.8433  27.5279
 19.8663  27.364
 19.8893  26.4063
 19.9123  25.3308
 19.9353  24.5843
 19.9582  24.272
 19.9813  24.1257
 20.0043  23.9817
 20.0272  23.929
 20.0503  23.9472
 20.0733  23.8872
 20.0963  23.9586
 20.1193  24.0247
 20.1423  24.0064
 20.1653  24.0335
 20.1883  24.0079
 20.2112  24.0138
 20.2343  24.044
 20.2573  24.0547
 20.2803  24.016
 20.3033  23.9985
 20.3263  24.0254
 20.3493  24.0798
 20.3723  24.0696
 20.3953  24.0647
 20.4183  24.1161
 20.4413  24.0483
 20.4643  24.0321
 20.4873  24.018
 20.5102  23.9986
 20.5333  23.954
 20.5563  24.0738
 20.5792  24.1496
 20.6023  24.2281
 20.6253  24.2279
 20.6483  24.2345
 20.6713  24.414
 20.6943  25.0473
 20.7173  26.7888
 20.7403  28.2815
 20.7632  28.9676
 20.7863  28.1831
 20.8093  26.5208
 20.8323  25.2149
 20.8553  24.6523
 20.8783  24.401
 20.9013  24.2849
 20.9243  24.2688
 20.9473  24.1911
 20.9703  24.0892
 20.9933  24.1081
 21.0163  24.0993
 21.0393  24.1648
 21.0622  24.1446
 21.0853  24.0765
 21.1083  24.0815
 21.1313  24.1065
 21.1543  24.223
 21.1773  24.4259
 21.2003  24.3284
 21.2233  24.1894
 21.2462  24.146
 21.2693  24.1868
 21.2923  24.2309
 21.3152  24.1575
 21.3383  24.0594
 21.3613  24.1008
 21.3843  24.0788
 21.4073  24.0828
 21.4303  24.0838
 21.4533  24.0906
 21.4763  24.1793
 21.4992  24.1802
 21.5223  24.2085
 21.5453  24.2916
 21.5683  24.211
 21.5913  24.219
 21.6142  24.2621
 21.6373  24.3093
 21.6603  24.3717
 21.6833  24.4096
 21.7063  24.4072
 21.7293  24.4194
 21.7523  24.4454
 21.7753  24.9919
 21.7982  24.6284
 21.8213  24.4604
 21.8443  24.3357
 21.8672  24.3093
 21.8903  24.3723
 21.9133  24.3625
 21.9363  24.3453
 21.9593  24.4294
 21.9823  24.5311
 22.0053  24.5011
 22.0283  24.4946
 22.0512  24.4262
 22.0743  24.5036
 22.0973  24.558
 22.1203  24.5944
 22.1433  24.5724
 22.1663  24.5486
 22.1893  24.4992
 22.2123  24.5262
 22.2353  24.6074
 22.2583  24.5941
 22.2813  24.579
 22.3043  24.6258
 22.3273  24.6349
 22.3502  24.6855
 22.3733  24.7734
 22.3963  24.7406
 22.4193  24.7036
 22.4423  24.6778
 22.4653  24.7661
 22.4883  24.7437
 22.5113  24.7747
 22.5343  24.9097
 22.5573  25.0239
 22.5803  25.0197
 22.6033  24.9428
 22.6263  25.0665
 22.6493  25.0817
 22.6723  25.1415
 22.6953  25.2845
 22.7183  25.3485
 22.7413  25.4006
 22.7643  25.4125
 22.7873  25.3925
 22.8103  25.4788
 22.8333  25.5845
 22.8563  25.7242
 22.8793  25.8379
 22.9022  25.9535
 22.9253  26.1209
 22.9483  26.2188
 22.9713  26.3452
 22.9943  26.5469