File: test-data-xrd/xrd-map-34-ID-E/Data_0032.chi
F:\20151113_APS_34IDE\\Brian\Particle1\OCV\Data_0032.tif
2-Theta Angle (Degrees)
Intensity
       2000
 0.01725  0.0000000E+00
 0.04025  0.0000000E+00
 0.06325  0.0000000E+00
 0.08625  0.0000000E+00
 0.10925  0.0000000E+00
 0.13225  0.0000000E+00
 0.15525  0.0000000E+00
 0.17825  0.0000000E+00
 0.20125  0.0000000E+00
 0.22425  0.0000000E+00
 0.24725  0.0000000E+00
 0.27025  0.0000000E+00
 0.29325  0.0000000E+00
 0.31625  0.0000000E+00
 0.33925  0.0000000E+00
 0.36225  0.0000000E+00
 0.38525  0.0000000E+00
 0.40825  0.0000000E+00
 0.43125  0.0000000E+00
 0.45425  0.0000000E+00
 0.47725  0.0000000E+00
 0.50025  0.0000000E+00
 0.52325  0.0000000E+00
 0.54625  0.0000000E+00
 0.56925  0.0000000E+00
 0.59225  0.0000000E+00
 0.61525  0.0000000E+00
 0.63825  0.0000000E+00
 0.66125  0.0000000E+00
 0.68425  0.0000000E+00
 0.70725  0.0000000E+00
 0.73025  0.0000000E+00
 0.75325  0.0000000E+00
 0.77625  0.0000000E+00
 0.79925  0.0000000E+00
 0.82225  0.0000000E+00
 0.84525  0.0000000E+00
 0.86825  0.0000000E+00
 0.89125  0.0000000E+00
 0.91425  0.0000000E+00
 0.93725  0.0000000E+00
 0.96025  0.0000000E+00
 0.98325  0.0000000E+00
 1.00625  0.0000000E+00
 1.02925  0.0000000E+00
 1.05225  0.0000000E+00
 1.07525  0.0000000E+00
 1.09825  0.0000000E+00
 1.12125  0.0000000E+00
 1.14425  0.0000000E+00
 1.16725  0.0000000E+00
 1.19025  0.0000000E+00
 1.21325  0.0000000E+00
 1.23625  0.0000000E+00
 1.25925  0.0000000E+00
 1.28225  0.0000000E+00
 1.30525  0.0000000E+00
 1.32825  0.0000000E+00
 1.35125  0.0000000E+00
 1.37425  0.0000000E+00
 1.39725  0.0000000E+00
 1.42025  0.0000000E+00
 1.44325  0.0000000E+00
 1.46625  0.0000000E+00
 1.48925  0.0000000E+00
 1.51225  0.0000000E+00
 1.53525  0.0000000E+00
 1.55825  0.0000000E+00
 1.58125  0.0000000E+00
 1.60425  0.0000000E+00
 1.62725  0.0000000E+00
 1.65025  0.0000000E+00
 1.67325  0.0000000E+00
 1.69625  0.0000000E+00
 1.71925  0.0000000E+00
 1.74225  0.0000000E+00
 1.76525  0.0000000E+00
 1.78825  0.0000000E+00
 1.81125  0.0000000E+00
 1.83425  0.0000000E+00
 1.85725  0.0000000E+00
 1.88025  0.0000000E+00
 1.90325  0.0000000E+00
 1.92625  0.0000000E+00
 1.94925  0.0000000E+00
 1.97225  0.0000000E+00
 1.99525  0.0000000E+00
 2.01825  0.0000000E+00
 2.04125  0.0000000E+00
 2.06425  0.0000000E+00
 2.08725  0.0000000E+00
 2.11025  0.0000000E+00
 2.13325  0.0000000E+00
 2.15625  0.0000000E+00
 2.17925  0.0000000E+00
 2.20225  0.0000000E+00
 2.22525  0.0000000E+00
 2.24825  0.0000000E+00
 2.27125  0.0000000E+00
 2.29425  0.0000000E+00
 2.31725  0.0000000E+00
 2.34025  0.0000000E+00
 2.36325  0.0000000E+00
 2.38625  0.0000000E+00
 2.40925  0.0000000E+00
 2.43225  0.0000000E+00
 2.45525  0.0000000E+00
 2.47825  0.0000000E+00
 2.50125  0.0000000E+00
 2.52425  0.0000000E+00
 2.54725  0.0000000E+00
 2.57025  0.0000000E+00
 2.59325  0.0000000E+00
 2.61625  0.0000000E+00
 2.63925  0.0000000E+00
 2.66225  0.0000000E+00
 2.68525  0.0000000E+00
 2.70825  0.0000000E+00
 2.73125  0.0000000E+00
 2.75425  0.0000000E+00
 2.77725  0.0000000E+00
 2.80025  0.0000000E+00
 2.82325  31.7932
 2.84625  34.2803
 2.86925  35.2841
 2.89225  35.6091
 2.91525  36.449
 2.93825  36.9552
 2.96125  36.3144
 2.98425  36.3149
 3.00725  36.5665
 3.03025  36.6897
 3.05325  36.819
 3.07625  36.5594
 3.09925  36.2045
 3.12225  35.9289
 3.14525  35.941
 3.16825  36.0739
 3.19125  36.1963
 3.21425  35.7486
 3.23725  35.8087
 3.26025  36.6265
 3.28325  36.3889
 3.30625  35.473
 3.32925  34.9515
 3.35225  34.894
 3.37525  35.2483
 3.39825  35.2033
 3.42125  34.9352
 3.44425  34.6612
 3.46725  34.814
 3.49025  34.6479
 3.51325  33.8094
 3.53625  33.3803
 3.55925  33.3498
 3.58225  33.3287
 3.60525  33.1745
 3.62825  32.8391
 3.65125  32.8418
 3.67425  33.3254
 3.69725  33.3418
 3.72025  33.5565
 3.74325  33.4523
 3.76625  33.4511
 3.78925  33.2037
 3.81225  33.0792
 3.83525  33.2782
 3.85825  33.1432
 3.88125  33.0466
 3.90425  32.7134
 3.92725  32.6282
 3.95025  32.9182
 3.97325  32.8187
 3.99625  32.776
 4.01925  32.7116
 4.04225  32.5021
 4.06525  32.6619
 4.08825  32.8365
 4.11125  33.018
 4.13425  32.7459
 4.15725  32.6377
 4.18025  32.5443
 4.20325  32.7936
 4.22625  32.8971
 4.24925  32.8263
 4.27225  32.8462
 4.29525  32.8839
 4.31825  32.8241
 4.34125  32.7194
 4.36425  32.6724
 4.38725  32.624
 4.41025  32.711
 4.43325  32.7258
 4.45625  32.6408
 4.47925  32.786
 4.50225  33.0235
 4.52525  33.5821
 4.54825  33.888
 4.57125  33.9855
 4.59425  33.7799
 4.61725  33.6185
 4.64025  33.6193
 4.66325  33.4801
 4.68625  33.1032
 4.70925  33.154
 4.73225  33.1202
 4.75525  33.3302
 4.77825  33.2347
 4.80125  33.1214
 4.82425  33.047
 4.84725  33.0423
 4.87025  33.1191
 4.89325  33.1447
 4.91625  33.2076
 4.93925  33.391
 4.96225  33.4985
 4.98525  33.3823
 5.00825  33.4035
 5.03125  33.5225
 5.05425  33.6573
 5.07725  33.6927
 5.10025  33.9173
 5.12325  34.1481
 5.14625  34.1939
 5.16925  34.0457
 5.19225  34.136
 5.21525  34.5195
 5.23825  34.5086
 5.26125  34.4938
 5.28425  34.6121
 5.30725  34.7371
 5.33025  34.9592
 5.35325  35.007
 5.37625  35.119
 5.39925  35.2614
 5.42225  34.9435
 5.44525  34.8427
 5.46825  35.0462
 5.49125  34.9461
 5.51425  34.9872
 5.53725  35.1364
 5.56025  35.2837
 5.58325  35.4346
 5.60625  35.6646
 5.62925  35.7272
 5.65225  35.7468
 5.67525  35.9357
 5.69825  35.9518
 5.72125  35.8662
 5.74425  35.896
 5.76725  36.0135
 5.79025  35.9339
 5.81325  35.8912
 5.83625  36.0108
 5.85925  36.1038
 5.88225  36.4428
 5.90525  36.9284
 5.92825  37.5292
 5.95125  38.6791
 5.97425  39.9414
 5.99725  40.1716
 6.02025  38.8656
 6.04325  37.7171
 6.06625  37.1777
 6.08925  37.2494
 6.11225  37.3208
 6.13525  37.2747
 6.15825  37.0476
 6.18125  37.0754
 6.20425  37.213
 6.22725  37.3657
 6.25025  37.5774
 6.27325  37.8111
 6.29625  37.8434
 6.31925  37.9456
 6.34225  38.0533
 6.36525  38.2909
 6.38825  38.4342
 6.41125  38.5662
 6.43425  38.8161
 6.45725  38.8387
 6.48025  39.2003
 6.50325  39.6255
 6.52625  39.9204
 6.54925  39.7555
 6.57225  39.7324
 6.59525  39.7832
 6.61825  39.9685
 6.64125  40.3237
 6.66425  40.6206
 6.68725  40.7859
 6.71025  40.9908
 6.73325  41.105
 6.75625  41.1316
 6.77925  41.2503
 6.80225  41.4565
 6.82525  41.7948
 6.84825  42.0023
 6.87125  42.1867
 6.89425  42.3275
 6.91725  42.4973
 6.94025  42.596
 6.96325  42.5949
 6.98625  42.62
 7.00925  42.6666
 7.03225  43.016
 7.05525  43.167
 7.07825  43.2658
 7.10125  43.4807
 7.12425  43.8559
 7.14725  43.9874
 7.17025  44.0222
 7.19325  44.005
 7.21625  44.1031
 7.23925  44.1979
 7.26225  44.263
 7.28525  44.1833
 7.30825  44.195
 7.33125  44.448
 7.35425  44.7241
 7.37725  44.8168
 7.40025  44.8459
 7.42325  44.8659
 7.44625  44.7896
 7.46925  44.7619
 7.49225  44.7284
 7.51525  44.6295
 7.53825  44.5924
 7.56125  44.6842
 7.58425  44.721
 7.60725  44.6329
 7.63025  44.7379
 7.65325  44.9162
 7.67625  44.9517
 7.69925  44.8037
 7.72225  44.7107
 7.74525  44.8414
 7.76825  45.0189
 7.79125  45.0291
 7.81425  44.9579
 7.83725  44.8052
 7.86025  44.6681
 7.88325  44.4286
 7.90625  44.4581
 7.92925  44.5244
 7.95225  44.6036
 7.97525  44.3621
 7.99825  44.3233
 8.02125  44.2771
 8.04425  44.0717
 8.06725  43.7496
 8.09025  43.4793
 8.11325  43.345
 8.13625  43.0093
 8.15925  42.6932
 8.18225  42.3724
 8.20525  42.0918
 8.22825  41.9093
 8.25125  41.6563
 8.27425  41.4464
 8.29725  41.3578
 8.32025  41.2697
 8.34325  40.8922
 8.36625  40.5158
 8.38925  40.0724
 8.41225  39.7459
 8.43525  39.3437
 8.45825  39.0679
 8.48125  38.8568
 8.50425  38.4791
 8.52725  38.1243
 8.55025  37.885
 8.57325  37.5041
 8.59625  37.0213
 8.61925  36.6283
 8.64225  36.3864
 8.66525  35.9885
 8.68825  35.7072
 8.71125  35.2575
 8.73425  34.7814
 8.75725  34.3613
 8.78025  34.0865
 8.80325  33.8165
 8.82625  33.6049
 8.84925  33.2591
 8.87225  32.8662
 8.89525  32.4412
 8.91825  32.0816
 8.94125  31.7914
 8.96425  31.5462
 8.98725  31.265
 9.01025  30.9854
 9.03325  30.737
 9.05625  30.5599
 9.07925  30.3058
 9.10225  29.984
 9.12525  29.7448
 9.14825  29.5697
 9.17125  29.2717
 9.19425  28.9409
 9.21725  28.6528
 9.24025  28.3946
 9.26325  28.3517
 9.28625  28.2217
 9.30925  28.0117
 9.33225  27.81
 9.35525  27.5089
 9.37825  27.3573
 9.40125  27.266
 9.42425  27.015
 9.44725  26.7894
 9.47025  26.6267
 9.49325  26.5634
 9.51625  26.4724
 9.53925  26.3172
 9.56225  26.0961
 9.58525  25.9235
 9.60825  25.8772
 9.63125  25.8252
 9.65425  25.7132
 9.67725  25.5292
 9.70025  25.4049
 9.72325  25.4962
 9.74625  25.3361
 9.76925  25.1347
 9.79225  25.0647
 9.81525  25.027
 9.83825  24.9506
 9.86125  24.8503
 9.88425  24.7765
 9.90725  24.7038
 9.93025  24.5522
 9.95325  24.477
 9.97625  24.4974
 9.99925  24.4867
 10.0222  24.3898
 10.0453  24.2756
 10.0683  24.1732
 10.0913  24.0942
 10.1143  24.0211
 10.1373  23.992
 10.1603  23.9881
 10.1832  23.9308
 10.2063  23.8358
 10.2293  23.8304
 10.2523  23.781
 10.2752  23.7271
 10.2982  23.6959
 10.3213  23.6924
 10.3443  23.6647
 10.3673  23.6017
 10.3902  23.6099
 10.4133  23.623
 10.4363  23.5142
 10.4593  23.4587
 10.4823  23.4668
 10.5053  23.3535
 10.5283  23.31
 10.5512  23.2627
 10.5742  23.2646
 10.5973  23.203
 10.6203  23.134
 10.6433  22.9845
 10.6662  22.9976
 10.6893  23.0358
 10.7123  23.062
 10.7353  23.1139
 10.7583  23.1431
 10.7813  23.0922
 10.8043  22.9376
 10.8272  22.8268
 10.8503  22.8411
 10.8733  22.8859
 10.8963  22.8329
 10.9192  22.8574
 10.9422  22.7684
 10.9653  22.7115
 10.9883  22.6783
 11.0113  22.6552
 11.0343  22.6814
 11.0573  22.6279
 11.0803  22.7175
 11.1033  22.6437
 11.1263  22.5901
 11.1493  22.6053
 11.1723  22.6347
 11.1953  22.6024
 11.2182  22.5708
 11.2413  22.6325
 11.2643  22.704
 11.2873  22.7256
 11.3102  22.7049
 11.3333  22.6073
 11.3563  22.4903
 11.3793  22.4927
 11.4023  22.7641
 11.4253  22.8486
 11.4483  22.843
 11.4713  22.7883
 11.4942  22.7482
 11.5173  22.7903
 11.5403  23.1809
 11.5633  23.9972
 11.5862  24.638
 11.6093  24.7146
 11.6323  24.1838
 11.6553  23.3384
 11.6783  22.8857
 11.7013  22.5851
 11.7243  22.5505
 11.7473  22.5461
 11.7703  22.5596
 11.7933  22.478
 11.8163  22.4643
 11.8393  22.4448
 11.8622  22.4835
 11.8853  22.611
 11.9083  22.7177
 11.9313  22.7751
 11.9543  22.8594
 11.9773  23.0336
 12.0003  23.1854
 12.0233  23.175
 12.0463  23.1784
 12.0693  23.3928
 12.0923  24.0327
 12.1153  24.4545
 12.1382  23.9727
 12.1613  23.3663
 12.1843  22.9359
 12.2073  22.6769
 12.2302  22.571
 12.2533  22.5753
 12.2763  22.6516
 12.2993  22.7236
 12.3223  22.6715
 12.3453  22.7127
 12.3683  22.7255
 12.3913  22.6842
 12.4142  22.7186
 12.4373  22.7535
 12.4603  22.8097
 12.4833  22.8372
 12.5062  22.7717
 12.5292  22.8291
 12.5523  22.8929
 12.5753  22.9465
 12.5983  22.9134
 12.6212  22.9674
 12.6443  23.0187
 12.6673  22.9576
 12.6903  22.8427
 12.7133  22.9062
 12.7363  22.9923
 12.7593  23.0791
 12.7822  23.1545
 12.8052  23.2521
 12.8283  23.4271
 12.8513  23.524
 12.8742  23.5963
 12.8972  23.7461
 12.9203  23.7808
 12.9433  23.8652
 12.9663  23.9861
 12.9893  24.0044
 13.0123  24.0154
 13.0353  24.3365
 13.0582  24.6467
 13.0813  24.7356
 13.1043  24.8703
 13.1273  25.0751
 13.1502  25.2458
 13.1732  25.4128
 13.1963  25.6345
 13.2193  26.0237
 13.2423  26.437
 13.2652  26.6534
 13.2883  26.8268
 13.3113  27.0978
 13.3343  27.5241
 13.3573  27.9326
 13.3803  28.2197
 13.4033  28.5045
 13.4262  28.7829
 13.4492  29.014
 13.4723  29.2304
 13.4953  29.462
 13.5183  29.6162
 13.5412  29.6619
 13.5643  29.7408
 13.5873  29.8781
 13.6103  29.8123
 13.6333  29.7092
 13.6563  29.6757
 13.6793  29.6875
 13.7022  29.6461
 13.7253  29.4601
 13.7483  29.4013
 13.7713  29.4409
 13.7942  29.2784
 13.8172  29.1411
 13.8403  29.1217
 13.8633  29.1556
 13.8863  29.0571
 13.9093  29.1815
 13.9323  29.6123
 13.9553  29.7414
 13.9783  29.3601
 14.0013  28.7194
 14.0243  28.2152
 14.0473  27.8458
 14.0703  27.5995
 14.0932  27.3847
 14.1163  27.2524
 14.1393  27.2201
 14.1623  27.1836
 14.1852  27.119
 14.2083  27.0367
 14.2313  26.7765
 14.2543  26.6141
 14.2773  26.5146
 14.3003  26.3536
 14.3233  26.2435
 14.3463  26.1781
 14.3692  26.2051
 14.3923  26.2074
 14.4153  26.2321
 14.4383  26.0966
 14.4612  25.9696
 14.4843  25.7892
 14.5073  25.672
 14.5303  25.6722
 14.5533  25.6853
 14.5763  25.5562
 14.5993  25.49
 14.6223  25.458
 14.6453  25.4551
 14.6683  25.3992
 14.6913  25.3265
 14.7143  25.2487
 14.7372  25.2791
 14.7603  25.2298
 14.7833  25.1745
 14.8063  25.2023
 14.8293  25.1726
 14.8523  25.2234
 14.8753  25.051
 14.8983  25.0514
 14.9213  25.0489
 14.9443  25.0624
 14.9673  25.1427
 14.9903  25.1122
 15.0132  25.0224
 15.0363  24.9536
 15.0593  24.857
 15.0823  24.8084
 15.1052  24.8744
 15.1283  25.0792
 15.1513  25.4064
 15.1743  26.0178
 15.1973  26.4511
 15.2203  26.5727
 15.2433  25.9716
 15.2663  25.4211
 15.2892  25.0693
 15.3123  24.9469
 15.3353  24.8482
 15.3583  24.7458
 15.3812  24.7069
 15.4043  24.6905
 15.4273  24.6311
 15.4503  24.6466
 15.4733  24.6693
 15.4963  24.6295
 15.5193  24.5753
 15.5423  24.5903
 15.5653  24.6777
 15.5883  24.6909
 15.6113  24.6741
 15.6343  24.6301
 15.6572  24.6289
 15.6803  24.7064
 15.7033  24.7858
 15.7263  24.7932
 15.7492  24.7738
 15.7723  24.7005
 15.7953  24.6773
 15.8183  24.6619
 15.8413  24.6191
 15.8643  24.608
 15.8873  24.6326
 15.9103  24.8028
 15.9332  24.9457
 15.9563  24.9278
 15.9793  24.8686
 16.0023  24.8414
 16.0253  24.8339
 16.0482  24.8977
 16.0713  24.8576
 16.0943  24.8635
 16.1172  24.9098
 16.1403  24.8494
 16.1633  24.9014
 16.1863  25.0755
 16.2093  25.229
 16.2323  25.1916
 16.2553  25.2053
 16.2783  25.2831
 16.3012  25.1195
 16.3243  24.9178
 16.3472  24.7988
 16.3703  24.7415
 16.3933  24.7412
 16.4163  24.7614
 16.4393  24.745
 16.4623  24.7406
 16.4853  24.7629
 16.5083  24.7931
 16.5312  24.8535
 16.5543  24.797
 16.5773  24.6615
 16.6002  24.6514
 16.6233  24.6802
 16.6463  24.5948
 16.6693  24.5553
 16.6923  24.5888
 16.7153  24.5842
 16.7383  24.498
 16.7613  24.474
 16.7843  24.5334
 16.8073  24.6021
 16.8303  24.548
 16.8533  24.5456
 16.8763  24.535
 16.8992  24.6225
 16.9223  24.5755
 16.9453  24.5425
 16.9683  24.4505
 16.9913  24.4043
 17.0143  24.3916
 17.0373  24.3614
 17.0603  24.264
 17.0832  24.1826
 17.1063  24.1094
 17.1293  24.1732
 17.1522  24.3015
 17.1753  24.3217
 17.1983  24.2183
 17.2213  24.1561
 17.2443  24.0617
 17.2673  23.9976
 17.2903  24.0934
 17.3133  24.2025
 17.3362  24.264
 17.3593  24.1801
 17.3823  24.1515
 17.4053  24.1483
 17.4283  24.0716
 17.4513  24.0598
 17.4743  24.1
 17.4973  24.0486
 17.5203  23.9254
 17.5433  24.0266
 17.5663  24.0473
 17.5893  24.0276
 17.6123  24.0354
 17.6352  23.9925
 17.6583  23.8804
 17.6813  23.927
 17.7042  23.9836
 17.7273  23.8905
 17.7503  23.8965
 17.7733  23.9542
 17.7963  24.0124
 17.8193  23.905
 17.8423  23.9033
 17.8653  23.9135
 17.8882  23.8003
 17.9113  23.8198
 17.9343  23.812
 17.9573  23.8085
 17.9803  23.9165
 18.0033  24.1278
 18.0263  24.2675
 18.0493  24.3646
 18.0723  24.3973
 18.0953  24.3516
 18.1183  24.2535
 18.1413  24.0561
 18.1643  23.8837
 18.1872  23.7517
 18.2103  23.7212
 18.2333  23.6617
 18.2563  23.6178
 18.2793  23.5729
 18.3023  23.5208
 18.3253  23.5004
 18.3483  23.581
 18.3712  23.6601
 18.3943  23.6904
 18.4173  23.6881
 18.4402  23.5896
 18.4633  23.5859
 18.4863  23.6012
 18.5093  23.6907
 18.5323  23.6583
 18.5553  23.5861
 18.5783  23.5141
 18.6013  23.5742
 18.6242  23.5237
 18.6473  23.5044
 18.6703  23.4887
 18.6933  23.535
 18.7163  23.5929
 18.7392  23.6387
 18.7623  23.612
 18.7853  23.6073
 18.8083  23.5147
 18.8313  23.4027
 18.8543  23.4616
 18.8773  23.4319
 18.9003  23.3975
 18.9232  23.3949
 18.9463  23.5668
 18.9693  23.6224
 18.9922  23.5509
 19.0153  23.6052
 19.0383  23.6871
 19.0613  23.6804
 19.0843  23.6334
 19.1073  23.5878
 19.1303  23.5815
 19.1533  23.6314
 19.1762  23.5715
 19.1993  23.5164
 19.2223  23.528
 19.2453  23.5507
 19.2683  23.6435
 19.2913  23.6403
 19.3143  23.6885
 19.3373  23.6482
 19.3603  23.6392
 19.3833  23.6415
 19.4062  23.6862
 19.4293  23.6491
 19.4523  23.6285
 19.4752  23.7111
 19.4983  23.7542
 19.5213  23.7336
 19.5443  23.6859
 19.5673  23.6045
 19.5903  23.7148
 19.6133  23.8009
 19.6363  23.839
 19.6593  24.0422
 19.6823  24.2994
 19.7053  24.5437
 19.7283  24.5939
 19.7513  24.5193
 19.7742  24.269
 19.7973  24.0683
 19.8203  24.0879
 19.8433  24.316
 19.8663  24.3997
 19.8893  24.2559
 19.9123  24.0861
 19.9353  23.865
 19.9582  23.743
 19.9813  23.7721
 20.0043  23.8356
 20.0272  23.8424
 20.0503  23.7668
 20.0733  23.7025
 20.0963  23.6581
 20.1193  23.685
 20.1423  23.7252
 20.1653  23.72
 20.1883  23.7804
 20.2112  23.7534
 20.2343  23.8604
 20.2573  23.8268
 20.2803  23.7969
 20.3033  23.7802
 20.3263  23.783
 20.3493  23.8321
 20.3723  23.8411
 20.3953  23.8261
 20.4183  23.8399
 20.4413  23.8521
 20.4643  23.7765
 20.4873  23.7206
 20.5102  23.753
 20.5333  23.761
 20.5563  23.8159
 20.5792  23.859
 20.6023  24.0178
 20.6253  24.103
 20.6483  24.0461
 20.6713  23.9735
 20.6943  24.1415
 20.7173  24.6768
 20.7403  25.4439
 20.7632  26.626
 20.7863  27.3563
 20.8093  26.1492
 20.8323  25.1236
 20.8553  24.4455
 20.8783  24.1621
 20.9013  24.1358
 20.9243  24.166
 20.9473  24.2034
 20.9703  24.0234
 20.9933  23.9551
 21.0163  23.9491
 21.0393  23.9891
 21.0622  23.9497
 21.0853  23.9525
 21.1083  24.0161
 21.1313  24.0387
 21.1543  23.8938
 21.1773  23.859
 21.2003  23.8923
 21.2233  23.9015
 21.2462  23.9532
 21.2693  24.0456
 21.2923  23.977
 21.3152  23.9055
 21.3383  23.9077
 21.3613  23.9946
 21.3843  24.0177
 21.4073  23.9055
 21.4303  23.9598
 21.4533  23.9676
 21.4763  23.9923
 21.4992  24.0704
 21.5223  24.0738
 21.5453  24.1215
 21.5683  24.0871
 21.5913  24.0933
 21.6142  24.0928
 21.6373  24.1001
 21.6603  24.0928
 21.6833  24.1589
 21.7063  24.155
 21.7293  24.2126
 21.7523  24.2121
 21.7753  24.1711
 21.7982  24.2098
 21.8213  24.2763
 21.8443  24.305
 21.8672  24.34
 21.8903  24.3983
 21.9133  24.2778
 21.9363  24.2715
 21.9593  24.268
 21.9823  24.2838
 22.0053  24.2733
 22.0283  24.3102
 22.0512  24.3381
 22.0743  24.3525
 22.0973  24.3316
 22.1203  24.429
 22.1433  24.4593
 22.1663  24.4018
 22.1893  24.3848
 22.2123  24.408
 22.2353  24.4246
 22.2583  24.5874
 22.2813  24.6459
 22.3043  24.6618
 22.3273  24.6352
 22.3502  24.6258
 22.3733  24.5646
 22.3963  24.5495
 22.4193  24.5599
 22.4423  24.6952
 22.4653  24.7427
 22.4883  24.699
 22.5113  24.7003
 22.5343  24.7587
 22.5573  24.841
 22.5803  24.9027
 22.6033  24.9893
 22.6263  25.0453
 22.6493  25.0428
 22.6723  25.1146
 22.6953  25.2301
 22.7183  25.3322
 22.7413  25.2697
 22.7643  25.2858
 22.7873  25.3004
 22.8103  25.3744
 22.8333  25.4933
 22.8563  25.5683
 22.8793  25.6836
 22.9022  25.8127
 22.9253  25.9599
 22.9483  25.9519
 22.9713  26.0275
 22.9943  26.1624