File: test-data-xrd/xrd-map-34-ID-E/Data_0086.chi
F:\20151113_APS_34IDE\\Brian\Particle1\OCV\Data_0086.tif
2-Theta Angle (Degrees)
Intensity
       2000
 0.01725  0.0000000E+00
 0.04025  0.0000000E+00
 0.06325  0.0000000E+00
 0.08625  0.0000000E+00
 0.10925  0.0000000E+00
 0.13225  0.0000000E+00
 0.15525  0.0000000E+00
 0.17825  0.0000000E+00
 0.20125  0.0000000E+00
 0.22425  0.0000000E+00
 0.24725  0.0000000E+00
 0.27025  0.0000000E+00
 0.29325  0.0000000E+00
 0.31625  0.0000000E+00
 0.33925  0.0000000E+00
 0.36225  0.0000000E+00
 0.38525  0.0000000E+00
 0.40825  0.0000000E+00
 0.43125  0.0000000E+00
 0.45425  0.0000000E+00
 0.47725  0.0000000E+00
 0.50025  0.0000000E+00
 0.52325  0.0000000E+00
 0.54625  0.0000000E+00
 0.56925  0.0000000E+00
 0.59225  0.0000000E+00
 0.61525  0.0000000E+00
 0.63825  0.0000000E+00
 0.66125  0.0000000E+00
 0.68425  0.0000000E+00
 0.70725  0.0000000E+00
 0.73025  0.0000000E+00
 0.75325  0.0000000E+00
 0.77625  0.0000000E+00
 0.79925  0.0000000E+00
 0.82225  0.0000000E+00
 0.84525  0.0000000E+00
 0.86825  0.0000000E+00
 0.89125  0.0000000E+00
 0.91425  0.0000000E+00
 0.93725  0.0000000E+00
 0.96025  0.0000000E+00
 0.98325  0.0000000E+00
 1.00625  0.0000000E+00
 1.02925  0.0000000E+00
 1.05225  0.0000000E+00
 1.07525  0.0000000E+00
 1.09825  0.0000000E+00
 1.12125  0.0000000E+00
 1.14425  0.0000000E+00
 1.16725  0.0000000E+00
 1.19025  0.0000000E+00
 1.21325  0.0000000E+00
 1.23625  0.0000000E+00
 1.25925  0.0000000E+00
 1.28225  0.0000000E+00
 1.30525  0.0000000E+00
 1.32825  0.0000000E+00
 1.35125  0.0000000E+00
 1.37425  0.0000000E+00
 1.39725  0.0000000E+00
 1.42025  0.0000000E+00
 1.44325  0.0000000E+00
 1.46625  0.0000000E+00
 1.48925  0.0000000E+00
 1.51225  0.0000000E+00
 1.53525  0.0000000E+00
 1.55825  0.0000000E+00
 1.58125  0.0000000E+00
 1.60425  0.0000000E+00
 1.62725  0.0000000E+00
 1.65025  0.0000000E+00
 1.67325  0.0000000E+00
 1.69625  0.0000000E+00
 1.71925  0.0000000E+00
 1.74225  0.0000000E+00
 1.76525  0.0000000E+00
 1.78825  0.0000000E+00
 1.81125  0.0000000E+00
 1.83425  0.0000000E+00
 1.85725  0.0000000E+00
 1.88025  0.0000000E+00
 1.90325  0.0000000E+00
 1.92625  0.0000000E+00
 1.94925  0.0000000E+00
 1.97225  0.0000000E+00
 1.99525  0.0000000E+00
 2.01825  0.0000000E+00
 2.04125  0.0000000E+00
 2.06425  0.0000000E+00
 2.08725  0.0000000E+00
 2.11025  0.0000000E+00
 2.13325  0.0000000E+00
 2.15625  0.0000000E+00
 2.17925  0.0000000E+00
 2.20225  0.0000000E+00
 2.22525  0.0000000E+00
 2.24825  0.0000000E+00
 2.27125  0.0000000E+00
 2.29425  0.0000000E+00
 2.31725  0.0000000E+00
 2.34025  0.0000000E+00
 2.36325  0.0000000E+00
 2.38625  0.0000000E+00
 2.40925  0.0000000E+00
 2.43225  0.0000000E+00
 2.45525  0.0000000E+00
 2.47825  0.0000000E+00
 2.50125  0.0000000E+00
 2.52425  0.0000000E+00
 2.54725  0.0000000E+00
 2.57025  0.0000000E+00
 2.59325  0.0000000E+00
 2.61625  0.0000000E+00
 2.63925  0.0000000E+00
 2.66225  0.0000000E+00
 2.68525  0.0000000E+00
 2.70825  0.0000000E+00
 2.73125  0.0000000E+00
 2.75425  0.0000000E+00
 2.77725  0.0000000E+00
 2.80025  0.0000000E+00
 2.82325  35.6363
 2.84625  33.917
 2.86925  33.9922
 2.89225  34.899
 2.91525  36.2448
 2.93825  36.3107
 2.96125  37.1029
 2.98425  36.449
 3.00725  35.7338
 3.03025  35.1278
 3.05325  35.1076
 3.07625  35.1815
 3.09925  35.1059
 3.12225  35.408
 3.14525  35.9271
 3.16825  35.8749
 3.19125  35.4927
 3.21425  35.3381
 3.23725  35.2896
 3.26025  34.966
 3.28325  34.5599
 3.30625  34.8028
 3.32925  34.7422
 3.35225  35.2464
 3.37525  34.8926
 3.39825  34.5819
 3.42125  34.361
 3.44425  33.7778
 3.46725  34.0614
 3.49025  34.3567
 3.51325  34.1418
 3.53625  33.9209
 3.55925  33.8394
 3.58225  33.5619
 3.60525  33.5336
 3.62825  33.5711
 3.65125  33.4791
 3.67425  33.2262
 3.69725  32.9441
 3.72025  32.9007
 3.74325  33.2635
 3.76625  33.6442
 3.78925  33.6829
 3.81225  33.5918
 3.83525  33.5777
 3.85825  33.5001
 3.88125  33.2946
 3.90425  32.5436
 3.92725  32.0829
 3.95025  32.4472
 3.97325  32.7431
 3.99625  32.8415
 4.01925  32.6479
 4.04225  32.2198
 4.06525  32.1593
 4.08825  32.2241
 4.11125  32.3091
 4.13425  32.3942
 4.15725  32.3759
 4.18025  32.3751
 4.20325  32.5856
 4.22625  32.7054
 4.24925  32.8142
 4.27225  32.6811
 4.29525  32.3597
 4.31825  32.4994
 4.34125  32.6179
 4.36425  32.5018
 4.38725  32.4331
 4.41025  32.5585
 4.43325  32.7609
 4.45625  32.7109
 4.47925  33.0558
 4.50225  32.9258
 4.52525  32.9651
 4.54825  32.9568
 4.57125  32.9114
 4.59425  32.7674
 4.61725  32.6002
 4.64025  32.69
 4.66325  33.0589
 4.68625  33.0657
 4.70925  32.9472
 4.73225  32.8513
 4.75525  32.8929
 4.77825  32.896
 4.80125  32.7711
 4.82425  32.7528
 4.84725  32.8361
 4.87025  32.9721
 4.89325  33.0015
 4.91625  33.3229
 4.93925  33.4007
 4.96225  33.4449
 4.98525  33.4504
 5.00825  33.5889
 5.03125  33.4418
 5.05425  33.3453
 5.07725  33.3633
 5.10025  33.4805
 5.12325  33.6243
 5.14625  33.8184
 5.16925  33.9068
 5.19225  34.0817
 5.21525  34.0567
 5.23825  34.0995
 5.26125  34.1399
 5.28425  34.0319
 5.30725  33.962
 5.33025  34.1433
 5.35325  34.401
 5.37625  34.6209
 5.39925  34.6513
 5.42225  34.577
 5.44525  34.604
 5.46825  34.7533
 5.49125  34.6471
 5.51425  34.9389
 5.53725  35.3146
 5.56025  35.6502
 5.58325  35.6999
 5.60625  35.6304
 5.62925  35.4639
 5.65225  35.5162
 5.67525  35.772
 5.69825  35.7021
 5.72125  35.7147
 5.74425  35.7985
 5.76725  35.8492
 5.79025  35.993
 5.81325  36.122
 5.83625  36.3292
 5.85925  36.3579
 5.88225  36.4697
 5.90525  37.1129
 5.92825  38.6469
 5.95125  42.0631
 5.97425  46.6885
 5.99725  47.2721
 6.02025  43.8856
 6.04325  39.7885
 6.06625  37.6603
 6.08925  37.2437
 6.11225  37.0721
 6.13525  36.8696
 6.15825  36.6761
 6.18125  36.7232
 6.20425  36.9218
 6.22725  37.2308
 6.25025  37.3039
 6.27325  37.6023
 6.29625  37.7586
 6.31925  37.9779
 6.34225  38.1491
 6.36525  37.9725
 6.38825  37.9751
 6.41125  38.3436
 6.43425  38.555
 6.45725  38.7042
 6.48025  38.9034
 6.50325  39.1165
 6.52625  39.2605
 6.54925  39.351
 6.57225  39.5833
 6.59525  39.8511
 6.61825  40.0275
 6.64125  40.1785
 6.66425  40.3319
 6.68725  40.4073
 6.71025  40.4525
 6.73325  40.6526
 6.75625  40.8728
 6.77925  40.9598
 6.80225  41.2954
 6.82525  41.6873
 6.84825  41.8325
 6.87125  41.8458
 6.89425  41.8984
 6.91725  42.0594
 6.94025  42.2596
 6.96325  42.3265
 6.98625  42.4941
 7.00925  42.7466
 7.03225  42.7877
 7.05525  42.7738
 7.07825  42.8236
 7.10125  42.8705
 7.12425  43.0512
 7.14725  43.3049
 7.17025  43.5456
 7.19325  43.5439
 7.21625  43.4955
 7.23925  43.4181
 7.26225  43.527
 7.28525  43.5281
 7.30825  43.6439
 7.33125  43.9997
 7.35425  44.1117
 7.37725  44.0737
 7.40025  44.1447
 7.42325  44.4948
 7.44625  44.7137
 7.46925  44.6278
 7.49225  44.5407
 7.51525  44.5111
 7.53825  44.4743
 7.56125  44.4908
 7.58425  44.6186
 7.60725  44.7304
 7.63025  44.6727
 7.65325  44.6152
 7.67625  44.4485
 7.69925  44.3591
 7.72225  44.5424
 7.74525  44.695
 7.76825  44.7156
 7.79125  44.5061
 7.81425  44.3365
 7.83725  44.3545
 7.86025  44.2362
 7.88325  44.2044
 7.90625  44.1587
 7.92925  44.1272
 7.95225  43.8721
 7.97525  43.7423
 7.99825  43.8303
 8.02125  43.701
 8.04425  43.5776
 8.06725  43.2842
 8.09025  43.1659
 8.11325  42.9875
 8.13625  42.867
 8.15925  42.4713
 8.18225  42.2464
 8.20525  42.0374
 8.22825  41.8341
 8.25125  41.6096
 8.27425  41.3043
 8.29725  40.9717
 8.32025  40.7454
 8.34325  40.3619
 8.36625  40.1429
 8.38925  39.9343
 8.41225  39.6299
 8.43525  39.1932
 8.45825  38.8608
 8.48125  38.4001
 8.50425  38.1005
 8.52725  37.8713
 8.55025  37.4304
 8.57325  36.9962
 8.59625  36.6817
 8.61925  36.2037
 8.64225  35.8824
 8.66525  35.5234
 8.68825  35.2449
 8.71125  35.1163
 8.73425  34.8259
 8.75725  34.2551
 8.78025  33.8661
 8.80325  33.4601
 8.82625  33.1595
 8.84925  32.8452
 8.87225  32.6204
 8.89525  32.3286
 8.91825  32.0472
 8.94125  31.5999
 8.96425  31.2507
 8.98725  30.96
 9.01025  30.6874
 9.03325  30.4423
 9.05625  30.266
 9.07925  29.9188
 9.10225  29.6147
 9.12525  29.4186
 9.14825  29.2147
 9.17125  29.0828
 9.19425  28.8211
 9.21725  28.572
 9.24025  28.5168
 9.26325  28.3277
 9.28625  27.9976
 9.30925  27.7841
 9.33225  27.6047
 9.35525  27.4092
 9.37825  27.3161
 9.40125  27.1902
 9.42425  26.9727
 9.44725  26.8254
 9.47025  26.7222
 9.49325  26.6735
 9.51625  26.5255
 9.53925  26.3925
 9.56225  26.2287
 9.58525  26.0034
 9.60825  25.8367
 9.63125  25.7557
 9.65425  25.6662
 9.67725  25.4877
 9.70025  25.2804
 9.72325  25.2561
 9.74625  25.1999
 9.76925  25.1553
 9.79225  25.1407
 9.81525  25.0076
 9.83825  24.8461
 9.86125  24.8269
 9.88425  24.7017
 9.90725  24.6665
 9.93025  24.6972
 9.95325  24.5717
 9.97625  24.4526
 9.99925  24.372
 10.0222  24.7604
 10.0453  24.8891
 10.0683  24.3735
 10.0913  24.1298
 10.1143  24.1178
 10.1373  24.0947
 10.1603  24.0486
 10.1832  23.9571
 10.2063  23.9618
 10.2293  23.9428
 10.2523  23.8259
 10.2752  23.7548
 10.2982  23.7457
 10.3213  23.6908
 10.3443  23.5986
 10.3673  23.5089
 10.3902  23.4127
 10.4133  23.4318
 10.4363  23.3902
 10.4593  23.2707
 10.4823  23.2487
 10.5053  23.2358
 10.5283  23.1806
 10.5512  23.247
 10.5742  23.2109
 10.5973  23.124
 10.6203  23.1265
 10.6433  23.1256
 10.6662  23.0735
 10.6893  22.9833
 10.7123  22.9593
 10.7353  23.0608
 10.7583  23.0728
 10.7813  23.1425
 10.8043  23.1007
 10.8272  22.9664
 10.8503  22.8024
 10.8733  22.8446
 10.8963  22.7712
 10.9192  22.8256
 10.9422  22.7832
 10.9653  22.73
 10.9883  22.7342
 11.0113  22.687
 11.0343  22.5757
 11.0573  22.5138
 11.0803  22.5662
 11.1033  22.6243
 11.1263  22.5911
 11.1493  22.5161
 11.1723  22.5543
 11.1953  22.5151
 11.2182  22.5272
 11.2413  22.522
 11.2643  22.5646
 11.2873  22.4544
 11.3102  22.2924
 11.3333  22.3463
 11.3563  22.4678
 11.3793  22.6774
 11.4023  22.8788
 11.4253  22.933
 11.4483  22.971
 11.4713  22.992
 11.4942  22.9871
 11.5173  23.124
 11.5403  23.969
 11.5633  25.4576
 11.5862  27.0757
 11.6093  27.554
 11.6323  26.6304
 11.6553  24.6276
 11.6783  23.3148
 11.7013  22.6897
 11.7243  22.5581
 11.7473  22.5451
 11.7703  22.5554
 11.7933  22.6149
 11.8163  22.5842
 11.8393  22.518
 11.8622  22.5217
 11.8853  22.5109
 11.9083  22.5872
 11.9313  22.7413
 11.9543  22.7404
 11.9773  22.7705
 12.0003  22.8554
 12.0233  22.8909
 12.0463  22.9356
 12.0693  23.1069
 12.0923  23.3731
 12.1153  23.7203
 12.1382  23.5698
 12.1613  23.0474
 12.1843  22.7757
 12.2073  22.6398
 12.2302  22.5419
 12.2533  22.5157
 12.2763  22.6103
 12.2993  22.6617
 12.3223  22.6223
 12.3453  22.585
 12.3683  22.6077
 12.3913  22.657
 12.4142  22.6031
 12.4373  22.5659
 12.4603  22.5498
 12.4833  22.6912
 12.5062  22.7195
 12.5292  22.7157
 12.5523  22.731
 12.5753  22.7005
 12.5983  22.7269
 12.6212  22.918
 12.6443  22.889
 12.6673  22.8305
 12.6903  22.8519
 12.7133  22.9646
 12.7363  23.0803
 12.7593  23.0874
 12.7822  23.2454
 12.8052  23.3161
 12.8283  23.3678
 12.8513  23.2932
 12.8742  23.2755
 12.8972  23.3444
 12.9203  23.5409
 12.9433  23.6533
 12.9663  23.7535
 12.9893  23.8818
 13.0123  23.964
 13.0353  24.1456
 13.0582  24.3485
 13.0813  24.5182
 13.1043  24.7859
 13.1273  25.068
 13.1502  25.2861
 13.1732  25.4159
 13.1963  25.6382
 13.2193  26.0189
 13.2423  26.3908
 13.2652  26.5401
 13.2883  26.694
 13.3113  26.9097
 13.3343  27.2899
 13.3573  27.7153
 13.3803  28.0966
 13.4033  28.2705
 13.4262  28.4542
 13.4492  28.7399
 13.4723  28.986
 13.4953  29.2
 13.5183  29.32
 13.5412  29.4297
 13.5643  29.6294
 13.5873  29.6628
 13.6103  29.6464
 13.6333  29.7225
 13.6563  29.745
 13.6793  29.707
 13.7022  29.6991
 13.7253  29.5553
 13.7483  29.5181
 13.7713  29.4674
 13.7942  29.4369
 13.8172  29.3214
 13.8403  29.4874
 13.8633  29.8924
 13.8863  30.8149
 13.9093  32.6563
 13.9323  35.1711
 13.9553  36.8618
 13.9783  36.3645
 14.0013  33.4129
 14.0243  30.4781
 14.0473  28.9372
 14.0703  28.256
 14.0932  27.7822
 14.1163  27.4896
 14.1393  27.3165
 14.1623  27.1668
 14.1852  26.9845
 14.2083  26.8516
 14.2313  26.7076
 14.2543  26.5877
 14.2773  26.4372
 14.3003  26.2403
 14.3233  26.1965
 14.3463  26.3113
 14.3692  26.2264
 14.3923  26.1352
 14.4153  26.0624
 14.4383  25.933
 14.4612  25.7815
 14.4843  25.6741
 14.5073  25.5955
 14.5303  25.4674
 14.5533  25.4346
 14.5763  25.382
 14.5993  25.3674
 14.6223  25.3801
 14.6453  25.2662
 14.6683  25.1181
 14.6913  25.1262
 14.7143  25.1416
 14.7372  25.0636
 14.7603  25.0742
 14.7833  25.1194
 14.8063  25.0593
 14.8293  24.9712
 14.8523  24.9509
 14.8753  24.8703
 14.8983  24.8923
 14.9213  24.9721
 14.9443  24.9883
 14.9673  24.9894
 14.9903  24.954
 15.0132  24.9418
 15.0363  24.844
 15.0593  24.7513
 15.0823  24.8402
 15.1052  24.9876
 15.1283  25.1729
 15.1513  25.5093
 15.1743  26.5725
 15.1973  27.3414
 15.2203  27.2432
 15.2433  26.1222
 15.2663  25.1395
 15.2892  24.879
 15.3123  24.7555
 15.3353  24.6317
 15.3583  24.617
 15.3812  24.6169
 15.4043  24.6157
 15.4273  24.5681
 15.4503  24.6114
 15.4733  24.4621
 15.4963  24.4887
 15.5193  24.5269
 15.5423  24.515
 15.5653  24.5324
 15.5883  24.5052
 15.6113  24.5149
 15.6343  24.4777
 15.6572  24.4552
 15.6803  24.5432
 15.7033  24.6122
 15.7263  24.6309
 15.7492  24.5694
 15.7723  24.6358
 15.7953  24.6029
 15.8183  24.6424
 15.8413  24.575
 15.8643  24.5799
 15.8873  24.5612
 15.9103  24.5334
 15.9332  24.4955
 15.9563  24.7034
 15.9793  25.3238
 16.0023  25.1177
 16.0253  24.7178
 16.0482  24.7396
 16.0713  24.6211
 16.0943  24.6265
 16.1172  24.8024
 16.1403  24.84
 16.1633  24.8269
 16.1863  24.8437
 16.2093  24.9703
 16.2323  25.1016
 16.2553  25.2878
 16.2783  25.3729
 16.3012  25.1338
 16.3243  24.9724
 16.3472  24.7928
 16.3703  24.6254
 16.3933  24.5702
 16.4163  24.6928
 16.4393  24.7919
 16.4623  24.7653
 16.4853  24.7144
 16.5083  24.7411
 16.5312  24.7292
 16.5543  24.6679
 16.5773  24.6344
 16.6002  24.6584
 16.6233  24.6556
 16.6463  24.5764
 16.6693  24.7051
 16.6923  24.7339
 16.7153  24.7286
 16.7383  24.7251
 16.7613  24.5955
 16.7843  24.4318
 16.8073  24.4364
 16.8303  24.4432
 16.8533  24.4367
 16.8763  24.424
 16.8992  24.4127
 16.9223  24.395
 16.9453  24.2221
 16.9683  24.1738
 16.9913  24.1867
 17.0143  24.1788
 17.0373  24.1509
 17.0603  24.115
 17.0832  24.2762
 17.1063  24.3186
 17.1293  24.2662
 17.1522  24.1881
 17.1753  24.1761
 17.1983  24.1845
 17.2213  24.1546
 17.2443  24.2284
 17.2673  24.2189
 17.2903  24.1597
 17.3133  24.1303
 17.3362  24.1152
 17.3593  24.1257
 17.3823  24.1063
 17.4053  24.0768
 17.4283  23.9814
 17.4513  23.9961
 17.4743  23.9858
 17.4973  23.8856
 17.5203  23.8485
 17.5433  23.9373
 17.5663  23.8971
 17.5893  23.8896
 17.6123  23.9788
 17.6352  23.9847
 17.6583  23.8682
 17.6813  23.8704
 17.7042  23.9003
 17.7273  23.8139
 17.7503  23.6691
 17.7733  23.7039
 17.7963  23.8095
 17.8193  23.7501
 17.8423  23.6851
 17.8653  23.6649
 17.8882  23.6434
 17.9113  23.7616
 17.9343  23.8534
 17.9573  23.846
 17.9803  23.9328
 18.0033  24.1687
 18.0263  24.3307
 18.0493  24.2933
 18.0723  24.414
 18.0953  24.6036
 18.1183  24.6314
 18.1413  24.4656
 18.1643  24.1713
 18.1872  23.9535
 18.2103  23.8182
 18.2333  23.6573
 18.2563  23.6216
 18.2793  23.5683
 18.3023  23.5575
 18.3253  23.5372
 18.3483  23.587
 18.3712  23.6136
 18.3943  23.6533
 18.4173  23.6376
 18.4402  23.5771
 18.4633  23.6657
 18.4863  23.5605
 18.5093  23.453
 18.5323  23.3782
 18.5553  23.4205
 18.5783  23.5448
 18.6013  23.5597
 18.6242  23.5641
 18.6473  23.562
 18.6703  23.4937
 18.6933  23.5612
 18.7163  23.5504
 18.7392  23.3847
 18.7623  23.2836
 18.7853  23.3569
 18.8083  23.3987
 18.8313  23.3769
 18.8543  23.4609
 18.8773  23.6091
 18.9003  23.6189
 18.9232  23.5917
 18.9463  23.6748
 18.9693  23.6082
 18.9922  23.5167
 19.0153  23.6183
 19.0383  23.6138
 19.0613  23.5751
 19.0843  23.5326
 19.1073  23.3996
 19.1303  23.4132
 19.1533  23.549
 19.1762  23.6484
 19.1993  23.5817
 19.2223  23.5179
 19.2453  23.4143
 19.2683  23.4592
 19.2913  23.4516
 19.3143  23.618
 19.3373  23.7198
 19.3603  23.622
 19.3833  23.6428
 19.4062  23.7119
 19.4293  23.7257
 19.4523  23.6326
 19.4752  23.6821
 19.4983  23.7266
 19.5213  23.7377
 19.5443  23.8774
 19.5673  23.9493
 19.5903  24.0035
 19.6133  24.0642
 19.6363  24.3559
 19.6593  24.9867
 19.6823  25.8401
 19.7053  26.4961
 19.7283  26.7026
 19.7513  26.8424
 19.7742  26.4538
 19.7973  25.9202
 19.8203  26.2307
 19.8433  27.17
 19.8663  27.639
 19.8893  26.7766
 19.9123  25.3642
 19.9353  24.4153
 19.9582  24.1147
 19.9813  23.9812
 20.0043  23.9678
 20.0272  23.9042
 20.0503  23.8946
 20.0733  23.8439
 20.0963  23.8762
 20.1193  23.9106
 20.1423  23.9011
 20.1653  23.8152
 20.1883  23.754
 20.2112  23.6144
 20.2343  23.6408
 20.2573  23.7139
 20.2803  23.7307
 20.3033  23.7151
 20.3263  23.6002
 20.3493  23.6692
 20.3723  23.6019
 20.3953  23.6176
 20.4183  23.6686
 20.4413  23.7281
 20.4643  23.7172
 20.4873  23.6704
 20.5102  23.6558
 20.5333  23.5665
 20.5563  23.7201
 20.5792  23.8368
 20.6023  23.8974
 20.6253  23.8795
 20.6483  23.903
 20.6713  23.9458
 20.6943  24.2559
 20.7173  24.7227
 20.7403  25.2411
 20.7632  25.5448
 20.7863  25.4153
 20.8093  24.9304
 20.8323  24.3936
 20.8553  24.1089
 20.8783  24.0678
 20.9013  24.0556
 20.9243  24.0874
 20.9473  24.0222
 20.9703  23.9765
 20.9933  23.9605
 21.0163  23.8854
 21.0393  23.7916
 21.0622  23.712
 21.0853  23.7627
 21.1083  23.7473
 21.1313  23.8261
 21.1543  23.8208
 21.1773  23.9485
 21.2003  23.9903
 21.2233  23.8507
 21.2462  23.8607
 21.2693  23.968
 21.2923  23.9024
 21.3152  23.9237
 21.3383  23.9996
 21.3613  24.0447
 21.3843  24.0056
 21.4073  23.9693
 21.4303  23.8988
 21.4533  23.9279
 21.4763  23.9417
 21.4992  23.9994
 21.5223  24.0158
 21.5453  24.0645
 21.5683  24.0392
 21.5913  24.0667
 21.6142  24.1115
 21.6373  24.0597
 21.6603  23.9863
 21.6833  23.9649
 21.7063  23.9322
 21.7293  24.0041
 21.7523  23.9991
 21.7753  24.0399
 21.7982  24.0143
 21.8213  24.0203
 21.8443  24.0364
 21.8672  24.1391
 21.8903  24.1585
 21.9133  24.1809
 21.9363  24.1645
 21.9593  24.1712
 21.9823  24.2063
 22.0053  24.2007
 22.0283  24.3047
 22.0512  24.3315
 22.0743  24.3313
 22.0973  24.3024
 22.1203  24.3133
 22.1433  24.3205
 22.1663  24.2726
 22.1893  24.2495
 22.2123  24.2341
 22.2353  24.2492
 22.2583  24.307
 22.2813  24.4053
 22.3043  24.4824
 22.3273  24.5472
 22.3502  24.53
 22.3733  24.4873
 22.3963  24.4961
 22.4193  24.5788
 22.4423  24.7224
 22.4653  24.7191
 22.4883  24.6427
 22.5113  24.6926
 22.5343  24.7843
 22.5573  24.8439
 22.5803  24.8639
 22.6033  24.7904
 22.6263  24.8633
 22.6493  24.9112
 22.6723  24.9606
 22.6953  25.1204
 22.7183  25.1884
 22.7413  25.2147
 22.7643  25.2299
 22.7873  25.2188
 22.8103  25.2563
 22.8333  25.4932
 22.8563  25.5812
 22.8793  25.5608
 22.9022  25.677
 22.9253  25.9215
 22.9483  26.1122
 22.9713  26.313
 22.9943  26.6398