File: test-data-xrd/xrd-map-34-ID-E/Data_0142.chi
F:\20151113_APS_34IDE\\Brian\Particle1\OCV\Data_0142.tif
2-Theta Angle (Degrees)
Intensity
       2000
 0.01725  0.0000000E+00
 0.04025  0.0000000E+00
 0.06325  0.0000000E+00
 0.08625  0.0000000E+00
 0.10925  0.0000000E+00
 0.13225  0.0000000E+00
 0.15525  0.0000000E+00
 0.17825  0.0000000E+00
 0.20125  0.0000000E+00
 0.22425  0.0000000E+00
 0.24725  0.0000000E+00
 0.27025  0.0000000E+00
 0.29325  0.0000000E+00
 0.31625  0.0000000E+00
 0.33925  0.0000000E+00
 0.36225  0.0000000E+00
 0.38525  0.0000000E+00
 0.40825  0.0000000E+00
 0.43125  0.0000000E+00
 0.45425  0.0000000E+00
 0.47725  0.0000000E+00
 0.50025  0.0000000E+00
 0.52325  0.0000000E+00
 0.54625  0.0000000E+00
 0.56925  0.0000000E+00
 0.59225  0.0000000E+00
 0.61525  0.0000000E+00
 0.63825  0.0000000E+00
 0.66125  0.0000000E+00
 0.68425  0.0000000E+00
 0.70725  0.0000000E+00
 0.73025  0.0000000E+00
 0.75325  0.0000000E+00
 0.77625  0.0000000E+00
 0.79925  0.0000000E+00
 0.82225  0.0000000E+00
 0.84525  0.0000000E+00
 0.86825  0.0000000E+00
 0.89125  0.0000000E+00
 0.91425  0.0000000E+00
 0.93725  0.0000000E+00
 0.96025  0.0000000E+00
 0.98325  0.0000000E+00
 1.00625  0.0000000E+00
 1.02925  0.0000000E+00
 1.05225  0.0000000E+00
 1.07525  0.0000000E+00
 1.09825  0.0000000E+00
 1.12125  0.0000000E+00
 1.14425  0.0000000E+00
 1.16725  0.0000000E+00
 1.19025  0.0000000E+00
 1.21325  0.0000000E+00
 1.23625  0.0000000E+00
 1.25925  0.0000000E+00
 1.28225  0.0000000E+00
 1.30525  0.0000000E+00
 1.32825  0.0000000E+00
 1.35125  0.0000000E+00
 1.37425  0.0000000E+00
 1.39725  0.0000000E+00
 1.42025  0.0000000E+00
 1.44325  0.0000000E+00
 1.46625  0.0000000E+00
 1.48925  0.0000000E+00
 1.51225  0.0000000E+00
 1.53525  0.0000000E+00
 1.55825  0.0000000E+00
 1.58125  0.0000000E+00
 1.60425  0.0000000E+00
 1.62725  0.0000000E+00
 1.65025  0.0000000E+00
 1.67325  0.0000000E+00
 1.69625  0.0000000E+00
 1.71925  0.0000000E+00
 1.74225  0.0000000E+00
 1.76525  0.0000000E+00
 1.78825  0.0000000E+00
 1.81125  0.0000000E+00
 1.83425  0.0000000E+00
 1.85725  0.0000000E+00
 1.88025  0.0000000E+00
 1.90325  0.0000000E+00
 1.92625  0.0000000E+00
 1.94925  0.0000000E+00
 1.97225  0.0000000E+00
 1.99525  0.0000000E+00
 2.01825  0.0000000E+00
 2.04125  0.0000000E+00
 2.06425  0.0000000E+00
 2.08725  0.0000000E+00
 2.11025  0.0000000E+00
 2.13325  0.0000000E+00
 2.15625  0.0000000E+00
 2.17925  0.0000000E+00
 2.20225  0.0000000E+00
 2.22525  0.0000000E+00
 2.24825  0.0000000E+00
 2.27125  0.0000000E+00
 2.29425  0.0000000E+00
 2.31725  0.0000000E+00
 2.34025  0.0000000E+00
 2.36325  0.0000000E+00
 2.38625  0.0000000E+00
 2.40925  0.0000000E+00
 2.43225  0.0000000E+00
 2.45525  0.0000000E+00
 2.47825  0.0000000E+00
 2.50125  0.0000000E+00
 2.52425  0.0000000E+00
 2.54725  0.0000000E+00
 2.57025  0.0000000E+00
 2.59325  0.0000000E+00
 2.61625  0.0000000E+00
 2.63925  0.0000000E+00
 2.66225  0.0000000E+00
 2.68525  0.0000000E+00
 2.70825  0.0000000E+00
 2.73125  0.0000000E+00
 2.75425  0.0000000E+00
 2.77725  0.0000000E+00
 2.80025  0.0000000E+00
 2.82325  33.1402
 2.84625  33.3295
 2.86925  33.3007
 2.89225  34.56
 2.91525  35.8032
 2.93825  36.257
 2.96125  36.0143
 2.98425  35.634
 3.00725  36.2337
 3.03025  36.0114
 3.05325  35.6684
 3.07625  35.6572
 3.09925  35.8755
 3.12225  35.8289
 3.14525  35.953
 3.16825  35.7448
 3.19125  35.4581
 3.21425  35.4024
 3.23725  35.0204
 3.26025  34.4779
 3.28325  34.3716
 3.30625  34.4301
 3.32925  34.2149
 3.35225  33.9842
 3.37525  33.8201
 3.39825  34.0731
 3.42125  34.1735
 3.44425  34.176
 3.46725  33.957
 3.49025  34.2666
 3.51325  34.3573
 3.53625  34.1871
 3.55925  34.0282
 3.58225  33.5891
 3.60525  33.3148
 3.62825  33.3968
 3.65125  33.3984
 3.67425  33.3224
 3.69725  33.1208
 3.72025  32.9965
 3.74325  33.2848
 3.76625  33.2611
 3.78925  32.9999
 3.81225  32.9315
 3.83525  32.9557
 3.85825  32.7332
 3.88125  32.5421
 3.90425  31.9113
 3.92725  31.8525
 3.95025  32.2958
 3.97325  32.6354
 3.99625  32.5152
 4.01925  32.3334
 4.04225  32.2597
 4.06525  32.157
 4.08825  32.1415
 4.11125  32.269
 4.13425  32.3387
 4.15725  32.2192
 4.18025  31.9802
 4.20325  32.0361
 4.22625  32.0121
 4.24925  32.0772
 4.27225  32.1579
 4.29525  32.3156
 4.31825  32.4558
 4.34125  32.5249
 4.36425  32.3879
 4.38725  32.2731
 4.41025  32.3848
 4.43325  32.5482
 4.45625  32.5316
 4.47925  32.5415
 4.50225  32.4769
 4.52525  32.3636
 4.54825  32.3773
 4.57125  32.4619
 4.59425  32.8608
 4.61725  32.9357
 4.64025  32.9748
 4.66325  32.8451
 4.68625  32.8657
 4.70925  32.8783
 4.73225  32.5351
 4.75525  32.0889
 4.77825  32.1185
 4.80125  32.512
 4.82425  32.7856
 4.84725  32.9426
 4.87025  32.9177
 4.89325  32.6294
 4.91625  32.6341
 4.93925  32.8196
 4.96225  32.7398
 4.98525  32.9271
 5.00825  33.1007
 5.03125  33.0639
 5.05425  33.1726
 5.07725  33.1736
 5.10025  33.0798
 5.12325  33.0516
 5.14625  33.3941
 5.16925  33.5279
 5.19225  33.5615
 5.21525  33.6857
 5.23825  33.6241
 5.26125  33.6168
 5.28425  33.7954
 5.30725  34.1657
 5.33025  34.2496
 5.35325  34.0411
 5.37625  34.1585
 5.39925  34.4375
 5.42225  34.4929
 5.44525  34.4891
 5.46825  34.3072
 5.49125  34.3197
 5.51425  34.3841
 5.53725  34.4115
 5.56025  34.6301
 5.58325  35.0304
 5.60625  35.0686
 5.62925  34.7888
 5.65225  34.8196
 5.67525  35.264
 5.69825  35.4543
 5.72125  35.5766
 5.74425  35.7617
 5.76725  35.763
 5.79025  35.537
 5.81325  35.3808
 5.83625  35.29
 5.85925  35.1908
 5.88225  35.4495
 5.90525  35.7938
 5.92825  35.8993
 5.95125  36.2365
 5.97425  36.819
 5.99725  36.8851
 6.02025  36.7211
 6.04325  36.4833
 6.06625  36.5854
 6.08925  36.8461
 6.11225  36.9444
 6.13525  36.7151
 6.15825  36.678
 6.18125  36.7399
 6.20425  36.8577
 6.22725  37.056
 6.25025  37.1139
 6.27325  37.2815
 6.29625  37.6148
 6.31925  37.8743
 6.34225  38.0156
 6.36525  37.9707
 6.38825  38.0843
 6.41125  38.2862
 6.43425  38.6163
 6.45725  38.668
 6.48025  38.7685
 6.50325  39.0339
 6.52625  39.2996
 6.54925  39.3602
 6.57225  39.6458
 6.59525  39.8053
 6.61825  39.7548
 6.64125  39.9453
 6.66425  40.2328
 6.68725  40.3965
 6.71025  40.5055
 6.73325  40.5637
 6.75625  40.7651
 6.77925  40.9443
 6.80225  41.2033
 6.82525  41.3195
 6.84825  41.5912
 6.87125  41.8136
 6.89425  41.9378
 6.91725  42.0945
 6.94025  42.1542
 6.96325  42.2804
 6.98625  42.4114
 7.00925  42.3478
 7.03225  42.3326
 7.05525  42.6243
 7.07825  42.7828
 7.10125  43.0174
 7.12425  43.3168
 7.14725  43.3404
 7.17025  43.3929
 7.19325  43.4412
 7.21625  43.4302
 7.23925  43.3864
 7.26225  43.3167
 7.28525  43.4526
 7.30825  43.7048
 7.33125  44.0197
 7.35425  44.1665
 7.37725  44.1198
 7.40025  44.0445
 7.42325  44.1834
 7.44625  44.1333
 7.46925  44.323
 7.49225  44.4917
 7.51525  44.4143
 7.53825  44.4422
 7.56125  44.4236
 7.58425  44.5818
 7.60725  44.5323
 7.63025  44.5349
 7.65325  44.4654
 7.67625  44.3317
 7.69925  44.4763
 7.72225  44.6856
 7.74525  44.6431
 7.76825  44.4347
 7.79125  44.4158
 7.81425  44.2828
 7.83725  44.3552
 7.86025  44.2942
 7.88325  44.1624
 7.90625  44.021
 7.92925  43.9729
 7.95225  43.7941
 7.97525  43.6948
 7.99825  43.5802
 8.02125  43.4297
 8.04425  43.4039
 8.06725  43.1283
 8.09025  42.8979
 8.11325  42.7961
 8.13625  42.4958
 8.15925  42.2559
 8.18225  42.1072
 8.20525  41.8968
 8.22825  41.6717
 8.25125  41.514
 8.27425  41.4376
 8.29725  41.2326
 8.32025  40.8791
 8.34325  40.4808
 8.36625  40.1918
 8.38925  39.7689
 8.41225  39.5056
 8.43525  39.2356
 8.45825  38.9207
 8.48125  38.5552
 8.50425  38.113
 8.52725  37.673
 8.55025  37.2949
 8.57325  37.043
 8.59625  36.7661
 8.61925  36.3834
 8.64225  36.0814
 8.66525  35.8141
 8.68825  35.4565
 8.71125  35.0769
 8.73425  34.6509
 8.75725  34.171
 8.78025  33.663
 8.80325  33.4167
 8.82625  33.2523
 8.84925  32.925
 8.87225  32.565
 8.89525  32.1244
 8.91825  31.687
 8.94125  31.3536
 8.96425  31.0439
 8.98725  30.77
 9.01025  30.5196
 9.03325  30.3476
 9.05625  30.2841
 9.07925  30.1521
 9.10225  29.9339
 9.12525  29.553
 9.14825  29.2845
 9.17125  28.9575
 9.19425  28.5917
 9.21725  28.3474
 9.24025  28.1697
 9.26325  28.039
 9.28625  27.9348
 9.30925  27.7341
 9.33225  27.438
 9.35525  27.2348
 9.37825  27.0341
 9.40125  26.8139
 9.42425  26.7359
 9.44725  26.5894
 9.47025  26.5109
 9.49325  26.3698
 9.51625  26.2077
 9.53925  26.0972
 9.56225  25.9543
 9.58525  25.7977
 9.60825  25.742
 9.63125  25.6206
 9.65425  25.5004
 9.67725  25.3043
 9.70025  25.157
 9.72325  24.9863
 9.74625  24.9672
 9.76925  24.9841
 9.79225  24.9527
 9.81525  24.9068
 9.83825  24.5985
 9.86125  24.5049
 9.88425  24.4816
 9.90725  24.5671
 9.93025  24.4294
 9.95325  24.3019
 9.97625  24.1873
 9.99925  24.1898
 10.0222  24.0258
 10.0453  23.9965
 10.0683  24.0605
 10.0913  24.0993
 10.1143  24.0014
 10.1373  23.8307
 10.1603  23.7683
 10.1832  23.68
 10.2063  23.6524
 10.2293  23.6471
 10.2523  23.4444
 10.2752  23.3699
 10.2982  23.4127
 10.3213  23.3695
 10.3443  23.2817
 10.3673  23.2581
 10.3902  23.2558
 10.4133  23.3025
 10.4363  23.2013
 10.4593  23.1216
 10.4823  23.1932
 10.5053  23.2001
 10.5283  23.0638
 10.5512  23.024
 10.5742  23.0267
 10.5973  22.8001
 10.6203  22.8869
 10.6433  22.9733
 10.6662  23.0016
 10.6893  22.8718
 10.7123  22.8049
 10.7353  22.7355
 10.7583  22.6474
 10.7813  22.6238
 10.8043  22.6561
 10.8272  22.7792
 10.8503  22.7952
 10.8733  22.6908
 10.8963  22.6583
 10.9192  22.6679
 10.9422  22.5107
 10.9653  22.5062
 10.9883  22.5005
 11.0113  22.3905
 11.0343  22.3798
 11.0573  22.3945
 11.0803  22.3979
 11.1033  22.4134
 11.1263  22.3946
 11.1493  22.3084
 11.1723  22.2861
 11.1953  22.2929
 11.2182  22.3556
 11.2413  22.301
 11.2643  22.1916
 11.2873  22.2152
 11.3102  22.2041
 11.3333  22.2435
 11.3563  22.2963
 11.3793  22.3655
 11.4023  22.4399
 11.4253  22.4456
 11.4483  22.4061
 11.4713  22.4245
 11.4942  22.4655
 11.5173  22.4191
 11.5403  22.4004
 11.5633  22.4826
 11.5862  22.5223
 11.6093  22.5277
 11.6323  22.3926
 11.6553  22.4113
 11.6783  22.2955
 11.7013  22.1774
 11.7243  22.0957
 11.7473  22.1504
 11.7703  22.1609
 11.7933  22.2061
 11.8163  22.2593
 11.8393  22.242
 11.8622  22.2166
 11.8853  22.2195
 11.9083  22.3051
 11.9313  22.3848
 11.9543  22.4384
 11.9773  22.4828
 12.0003  22.4251
 12.0233  22.3411
 12.0463  22.3351
 12.0693  22.3632
 12.0923  22.4779
 12.1153  22.5228
 12.1382  22.4396
 12.1613  22.3979
 12.1843  22.3027
 12.2073  22.1618
 12.2302  22.0864
 12.2533  22.1923
 12.2763  22.3011
 12.2993  22.3894
 12.3223  22.4318
 12.3453  22.4304
 12.3683  22.5112
 12.3913  22.559
 12.4142  22.4462
 12.4373  22.3672
 12.4603  22.3921
 12.4833  22.3908
 12.5062  22.3921
 12.5292  22.4396
 12.5523  22.5134
 12.5753  22.5127
 12.5983  22.5134
 12.6212  22.6079
 12.6443  22.5846
 12.6673  22.609
 12.6903  22.6663
 12.7133  22.7222
 12.7363  22.8266
 12.7593  22.9097
 12.7822  22.979
 12.8052  23.0443
 12.8283  23.1964
 12.8513  23.2272
 12.8742  23.2071
 12.8972  23.1445
 12.9203  23.2977
 12.9433  23.4373
 12.9663  23.5449
 12.9893  23.7775
 13.0123  23.8589
 13.0353  24.0017
 13.0582  24.1175
 13.0813  24.2323
 13.1043  24.5689
 13.1273  24.8731
 13.1502  25.0171
 13.1732  25.1916
 13.1963  25.4434
 13.2193  25.681
 13.2423  26.0695
 13.2652  26.3414
 13.2883  26.6395
 13.3113  26.8452
 13.3343  27.2773
 13.3573  27.585
 13.3803  27.7443
 13.4033  28.039
 13.4262  28.3252
 13.4492  28.5397
 13.4723  28.7212
 13.4953  28.9542
 13.5183  29.2027
 13.5412  29.2591
 13.5643  29.2487
 13.5873  29.3553
 13.6103  29.556
 13.6333  29.6043
 13.6563  29.52
 13.6793  29.5439
 13.7022  29.4419
 13.7253  29.2179
 13.7483  29.129
 13.7713  28.9487
 13.7942  28.8007
 13.8172  28.6955
 13.8403  28.6638
 13.8633  28.6956
 13.8863  28.5733
 13.9093  28.5005
 13.9323  28.5792
 13.9553  28.6099
 13.9783  28.3791
 14.0013  28.0375
 14.0243  27.6791
 14.0473  27.3716
 14.0703  27.2756
 14.0932  27.2079
 14.1163  27.1092
 14.1393  26.9371
 14.1623  26.7221
 14.1852  26.5487
 14.2083  26.4382
 14.2313  26.2476
 14.2543  26.1405
 14.2773  26.0939
 14.3003  26.079
 14.3233  25.9152
 14.3463  25.8656
 14.3692  25.8535
 14.3923  25.7772
 14.4153  25.7373
 14.4383  25.687
 14.4612  25.5084
 14.4843  25.4255
 14.5073  25.419
 14.5303  25.3062
 14.5533  25.2644
 14.5763  25.2432
 14.5993  25.1807
 14.6223  25.0688
 14.6453  25.1128
 14.6683  25.0991
 14.6913  25.1044
 14.7143  25.0256
 14.7372  24.9704
 14.7603  24.9051
 14.7833  24.9189
 14.8063  24.9087
 14.8293  24.7889
 14.8523  24.6871
 14.8753  24.5797
 14.8983  24.6266
 14.9213  24.657
 14.9443  24.6701
 14.9673  24.5874
 14.9903  24.5063
 15.0132  24.51
 15.0363  24.5028
 15.0593  24.4588
 15.0823  24.417
 15.1052  24.4619
 15.1283  24.3383
 15.1513  24.438
 15.1743  24.4727
 15.1973  24.4432
 15.2203  24.5339
 15.2433  24.4917
 15.2663  24.3167
 15.2892  24.2772
 15.3123  24.3178
 15.3353  24.4352
 15.3583  24.4176
 15.3812  24.342
 15.4043  24.3685
 15.4273  24.3167
 15.4503  24.2688
 15.4733  24.2402
 15.4963  24.3247
 15.5193  24.3101
 15.5423  24.2379
 15.5653  24.2185
 15.5883  24.2957
 15.6113  24.2821
 15.6343  24.325
 15.6572  24.3627
 15.6803  24.3323
 15.7033  24.3804
 15.7263  24.4052
 15.7492  24.3988
 15.7723  24.3693
 15.7953  24.3054
 15.8183  24.4684
 15.8413  24.519
 15.8643  24.6022
 15.8873  24.5615
 15.9103  24.4912
 15.9332  24.3868
 15.9563  24.2724
 15.9793  24.3405
 16.0023  24.45
 16.0253  24.488
 16.0482  24.5244
 16.0713  24.5086
 16.0943  24.5089
 16.1172  24.4732
 16.1403  24.503
 16.1633  24.6702
 16.1863  24.7649
 16.2093  24.9645
 16.2323  25.0759
 16.2553  25.1577
 16.2783  25.1403
 16.3012  24.9226
 16.3243  24.7287
 16.3472  24.5701
 16.3703  24.4099
 16.3933  24.3552
 16.4163  24.4361
 16.4393  24.5054
 16.4623  24.4789
 16.4853  24.534
 16.5083  24.5939
 16.5312  24.4882
 16.5543  24.4824
 16.5773  24.4784
 16.6002  24.496
 16.6233  24.4107
 16.6463  24.3272
 16.6693  24.3595
 16.6923  24.3565
 16.7153  24.2843
 16.7383  24.2444
 16.7613  24.1541
 16.7843  24.1659
 16.8073  24.1627
 16.8303  24.059
 16.8533  24.0836
 16.8763  24.1143
 16.8992  24.1159
 16.9223  24.1578
 16.9453  24.1083
 16.9683  24.1072
 16.9913  24.1373
 17.0143  23.9951
 17.0373  23.9352
 17.0603  23.9102
 17.0832  23.9778
 17.1063  23.9459
 17.1293  23.9445
 17.1522  23.9805
 17.1753  24.0829
 17.1983  24.0702
 17.2213  24.0228
 17.2443  23.8819
 17.2673  23.8373
 17.2903  23.8768
 17.3133  23.9155
 17.3362  23.9061
 17.3593  23.8211
 17.3823  23.7853
 17.4053  23.7896
 17.4283  23.6963
 17.4513  23.613
 17.4743  23.6749
 17.4973  23.7279
 17.5203  23.7077
 17.5433  23.6185
 17.5663  23.4661
 17.5893  23.496
 17.6123  23.5839
 17.6352  23.6505
 17.6583  23.6664
 17.6813  23.6623
 17.7042  23.6498
 17.7273  23.6433
 17.7503  23.5239
 17.7733  23.5502
 17.7963  23.6108
 17.8193  23.5043
 17.8423  23.5292
 17.8653  23.5358
 17.8882  23.4407
 17.9113  23.4582
 17.9343  23.3554
 17.9573  23.3461
 17.9803  23.4368
 18.0033  23.4675
 18.0263  23.4288
 18.0493  23.4377
 18.0723  23.4407
 18.0953  23.5055
 18.1183  23.5874
 18.1413  23.413
 18.1643  23.3146
 18.1872  23.2698
 18.2103  23.2614
 18.2333  23.2861
 18.2563  23.275
 18.2793  23.2662
 18.3023  23.3881
 18.3253  23.4073
 18.3483  23.3625
 18.3712  23.3216
 18.3943  23.3088
 18.4173  23.3981
 18.4402  23.4162
 18.4633  23.3424
 18.4863  23.2347
 18.5093  23.2197
 18.5323  23.2136
 18.5553  23.1164
 18.5783  23.2082
 18.6013  23.3058
 18.6242  23.2916
 18.6473  23.3179
 18.6703  23.2162
 18.6933  23.1938
 18.7163  23.1769
 18.7392  23.2202
 18.7623  23.1793
 18.7853  23.1433
 18.8083  23.2025
 18.8313  23.2357
 18.8543  23.2509
 18.8773  23.296
 18.9003  23.2917
 18.9232  23.3547
 18.9463  23.4535
 18.9693  23.3317
 18.9922  23.2225
 19.0153  23.2997
 19.0383  23.3671
 19.0613  23.2911
 19.0843  23.3326
 19.1073  23.2588
 19.1303  23.2048
 19.1533  23.1552
 19.1762  23.1662
 19.1993  23.2129
 19.2223  23.2262
 19.2453  23.2206
 19.2683  23.2665
 19.2913  23.2539
 19.3143  23.3595
 19.3373  23.3478
 19.3603  23.3583
 19.3833  23.3309
 19.4062  23.3402
 19.4293  23.2852
 19.4523  23.2289
 19.4752  23.2832
 19.4983  23.2207
 19.5213  23.1478
 19.5443  23.2015
 19.5673  23.1781
 19.5903  23.224
 19.6133  23.2106
 19.6363  23.2387
 19.6593  23.3026
 19.6823  23.4012
 19.7053  23.5028
 19.7283  23.5543
 19.7513  23.6245
 19.7742  23.5154
 19.7973  23.3977
 19.8203  23.4253
 19.8433  23.4899
 19.8663  23.6025
 19.8893  23.5721
 19.9123  23.5222
 19.9353  23.4728
 19.9582  23.378
 19.9813  23.3326
 20.0043  23.3115
 20.0272  23.3011
 20.0503  23.3235
 20.0733  23.2904
 20.0963  23.2947
 20.1193  23.3349
 20.1423  23.3478
 20.1653  23.366
 20.1883  23.3773
 20.2112  23.3536
 20.2343  23.384
 20.2573  23.3754
 20.2803  23.4273
 20.3033  23.3763
 20.3263  23.3081
 20.3493  23.3204
 20.3723  23.3646
 20.3953  23.3932
 20.4183  23.4652
 20.4413  23.4246
 20.4643  23.4144
 20.4873  23.4283
 20.5102  23.4174
 20.5333  23.4426
 20.5563  23.4777
 20.5792  23.4595
 20.6023  23.4868
 20.6253  23.4992
 20.6483  23.5706
 20.6713  23.5692
 20.6943  23.6404
 20.7173  23.6588
 20.7403  23.7514
 20.7632  23.7678
 20.7863  23.6843
 20.8093  23.6594
 20.8323  23.6952
 20.8553  23.7331
 20.8783  23.5646
 20.9013  23.5433
 20.9243  23.697
 20.9473  23.757
 20.9703  23.655
 20.9933  23.5729
 21.0163  23.5682
 21.0393  23.6309
 21.0622  23.6664
 21.0853  23.613
 21.1083  23.5625
 21.1313  23.5765
 21.1543  23.4418
 21.1773  23.5465
 21.2003  23.5194
 21.2233  23.5116
 21.2462  23.5489
 21.2693  23.5812
 21.2923  23.5735
 21.3152  23.5391
 21.3383  23.6548
 21.3613  23.6817
 21.3843  23.6174
 21.4073  23.5369
 21.4303  23.564
 21.4533  23.6506
 21.4763  23.682
 21.4992  23.7978
 21.5223  23.8035
 21.5453  23.7453
 21.5683  23.68
 21.5913  23.7339
 21.6142  23.7204
 21.6373  23.7734
 21.6603  23.8235
 21.6833  23.848
 21.7063  23.868
 21.7293  23.8911
 21.7523  23.9419
 21.7753  23.892
 21.7982  23.9687
 21.8213  24.0252
 21.8443  23.8968
 21.8672  23.826
 21.8903  23.9166
 21.9133  23.993
 21.9363  23.9787
 21.9593  23.8947
 21.9823  23.8186
 22.0053  23.914
 22.0283  24.0888
 22.0512  24.111
 22.0743  24.0447
 22.0973  23.9823
 22.1203  24.0351
 22.1433  24.0921
 22.1663  24.1383
 22.1893  24.0929
 22.2123  24.0795
 22.2353  24.1236
 22.2583  24.0704
 22.2813  24.0861
 22.3043  24.281
 22.3273  24.2921
 22.3502  24.3104
 22.3733  24.3274
 22.3963  24.2384
 22.4193  24.182
 22.4423  24.3103
 22.4653  24.4215
 22.4883  24.394
 22.5113  24.4789
 22.5343  24.5266
 22.5573  24.5539
 22.5803  24.543
 22.6033  24.608
 22.6263  24.6546
 22.6493  24.7413
 22.6723  24.7348
 22.6953  24.8379
 22.7183  24.7961
 22.7413  24.7845
 22.7643  24.7679
 22.7873  24.8985
 22.8103  25.0418
 22.8333  25.1047
 22.8563  25.2381
 22.8793  25.3699
 22.9022  25.4451
 22.9253  25.5419
 22.9483  25.5868
 22.9713  25.6401
 22.9943  25.7539