File: test-data-xrd/xrd-map-34-ID-E/Data_0097.chi
F:\20151113_APS_34IDE\\Brian\Particle1\OCV\Data_0097.tif
2-Theta Angle (Degrees)
Intensity
       2000
 0.01725  0.0000000E+00
 0.04025  0.0000000E+00
 0.06325  0.0000000E+00
 0.08625  0.0000000E+00
 0.10925  0.0000000E+00
 0.13225  0.0000000E+00
 0.15525  0.0000000E+00
 0.17825  0.0000000E+00
 0.20125  0.0000000E+00
 0.22425  0.0000000E+00
 0.24725  0.0000000E+00
 0.27025  0.0000000E+00
 0.29325  0.0000000E+00
 0.31625  0.0000000E+00
 0.33925  0.0000000E+00
 0.36225  0.0000000E+00
 0.38525  0.0000000E+00
 0.40825  0.0000000E+00
 0.43125  0.0000000E+00
 0.45425  0.0000000E+00
 0.47725  0.0000000E+00
 0.50025  0.0000000E+00
 0.52325  0.0000000E+00
 0.54625  0.0000000E+00
 0.56925  0.0000000E+00
 0.59225  0.0000000E+00
 0.61525  0.0000000E+00
 0.63825  0.0000000E+00
 0.66125  0.0000000E+00
 0.68425  0.0000000E+00
 0.70725  0.0000000E+00
 0.73025  0.0000000E+00
 0.75325  0.0000000E+00
 0.77625  0.0000000E+00
 0.79925  0.0000000E+00
 0.82225  0.0000000E+00
 0.84525  0.0000000E+00
 0.86825  0.0000000E+00
 0.89125  0.0000000E+00
 0.91425  0.0000000E+00
 0.93725  0.0000000E+00
 0.96025  0.0000000E+00
 0.98325  0.0000000E+00
 1.00625  0.0000000E+00
 1.02925  0.0000000E+00
 1.05225  0.0000000E+00
 1.07525  0.0000000E+00
 1.09825  0.0000000E+00
 1.12125  0.0000000E+00
 1.14425  0.0000000E+00
 1.16725  0.0000000E+00
 1.19025  0.0000000E+00
 1.21325  0.0000000E+00
 1.23625  0.0000000E+00
 1.25925  0.0000000E+00
 1.28225  0.0000000E+00
 1.30525  0.0000000E+00
 1.32825  0.0000000E+00
 1.35125  0.0000000E+00
 1.37425  0.0000000E+00
 1.39725  0.0000000E+00
 1.42025  0.0000000E+00
 1.44325  0.0000000E+00
 1.46625  0.0000000E+00
 1.48925  0.0000000E+00
 1.51225  0.0000000E+00
 1.53525  0.0000000E+00
 1.55825  0.0000000E+00
 1.58125  0.0000000E+00
 1.60425  0.0000000E+00
 1.62725  0.0000000E+00
 1.65025  0.0000000E+00
 1.67325  0.0000000E+00
 1.69625  0.0000000E+00
 1.71925  0.0000000E+00
 1.74225  0.0000000E+00
 1.76525  0.0000000E+00
 1.78825  0.0000000E+00
 1.81125  0.0000000E+00
 1.83425  0.0000000E+00
 1.85725  0.0000000E+00
 1.88025  0.0000000E+00
 1.90325  0.0000000E+00
 1.92625  0.0000000E+00
 1.94925  0.0000000E+00
 1.97225  0.0000000E+00
 1.99525  0.0000000E+00
 2.01825  0.0000000E+00
 2.04125  0.0000000E+00
 2.06425  0.0000000E+00
 2.08725  0.0000000E+00
 2.11025  0.0000000E+00
 2.13325  0.0000000E+00
 2.15625  0.0000000E+00
 2.17925  0.0000000E+00
 2.20225  0.0000000E+00
 2.22525  0.0000000E+00
 2.24825  0.0000000E+00
 2.27125  0.0000000E+00
 2.29425  0.0000000E+00
 2.31725  0.0000000E+00
 2.34025  0.0000000E+00
 2.36325  0.0000000E+00
 2.38625  0.0000000E+00
 2.40925  0.0000000E+00
 2.43225  0.0000000E+00
 2.45525  0.0000000E+00
 2.47825  0.0000000E+00
 2.50125  0.0000000E+00
 2.52425  0.0000000E+00
 2.54725  0.0000000E+00
 2.57025  0.0000000E+00
 2.59325  0.0000000E+00
 2.61625  0.0000000E+00
 2.63925  0.0000000E+00
 2.66225  0.0000000E+00
 2.68525  0.0000000E+00
 2.70825  0.0000000E+00
 2.73125  0.0000000E+00
 2.75425  0.0000000E+00
 2.77725  0.0000000E+00
 2.80025  0.0000000E+00
 2.82325  27.566
 2.84625  33.2989
 2.86925  34.2167
 2.89225  33.9588
 2.91525  34.3195
 2.93825  35.5547
 2.96125  36.3953
 2.98425  36.5147
 3.00725  36.8422
 3.03025  36.8232
 3.05325  36.5005
 3.07625  35.9761
 3.09925  35.4269
 3.12225  34.9289
 3.14525  35.3137
 3.16825  36.3506
 3.19125  36.217
 3.21425  36.2279
 3.23725  36.6164
 3.26025  36.4876
 3.28325  36.1442
 3.30625  35.2197
 3.32925  34.8411
 3.35225  34.6343
 3.37525  34.5983
 3.39825  34.2354
 3.42125  34.0919
 3.44425  34.7206
 3.46725  34.904
 3.49025  34.5214
 3.51325  34.1833
 3.53625  34.0786
 3.55925  34.3485
 3.58225  34.4094
 3.60525  34.335
 3.62825  34.174
 3.65125  33.9651
 3.67425  34.0825
 3.69725  34.0456
 3.72025  33.9338
 3.74325  33.8733
 3.76625  33.8125
 3.78925  33.6144
 3.81225  33.3184
 3.83525  33.7814
 3.85825  33.7063
 3.88125  33.4297
 3.90425  33.2683
 3.92725  33.2688
 3.95025  33.028
 3.97325  32.8929
 3.99625  33.135
 4.01925  33.1049
 4.04225  33.2581
 4.06525  33.33
 4.08825  32.9389
 4.11125  32.5965
 4.13425  32.6463
 4.15725  32.5064
 4.18025  32.3758
 4.20325  32.5863
 4.22625  32.5797
 4.24925  32.5017
 4.27225  32.5534
 4.29525  32.7132
 4.31825  32.6954
 4.34125  32.7391
 4.36425  32.7317
 4.38725  32.7298
 4.41025  32.6041
 4.43325  32.5635
 4.45625  32.6577
 4.47925  32.8538
 4.50225  33.0257
 4.52525  33.1873
 4.54825  32.9072
 4.57125  32.9955
 4.59425  33.1191
 4.61725  33.205
 4.64025  33.3027
 4.66325  33.3575
 4.68625  33.2722
 4.70925  33.3976
 4.73225  33.1973
 4.75525  32.8257
 4.77825  32.9155
 4.80125  33.0626
 4.82425  33.052
 4.84725  33.1786
 4.87025  33.152
 4.89325  33.021
 4.91625  33.0275
 4.93925  33.0754
 4.96225  33.1216
 4.98525  33.4181
 5.00825  33.8335
 5.03125  34.0267
 5.05425  33.8991
 5.07725  34.049
 5.10025  34.012
 5.12325  33.8361
 5.14625  33.9159
 5.16925  34.0528
 5.19225  34.4186
 5.21525  34.6589
 5.23825  34.6117
 5.26125  34.5251
 5.28425  34.514
 5.30725  34.7502
 5.33025  34.9929
 5.35325  35.0581
 5.37625  35.0432
 5.39925  35.0385
 5.42225  34.7369
 5.44525  34.6043
 5.46825  34.8963
 5.49125  35.2988
 5.51425  35.5521
 5.53725  35.6931
 5.56025  35.7236
 5.58325  35.745
 5.60625  35.7183
 5.62925  35.5429
 5.65225  35.9127
 5.67525  35.7406
 5.69825  35.5982
 5.72125  35.5805
 5.74425  35.6427
 5.76725  35.9897
 5.79025  36.153
 5.81325  36.1888
 5.83625  36.2865
 5.85925  36.229
 5.88225  36.3166
 5.90525  36.7151
 5.92825  37.4788
 5.95125  39.3014
 5.97425  41.5092
 5.99725  41.3032
 6.02025  39.6151
 6.04325  37.9735
 6.06625  37.1574
 6.08925  37.0359
 6.11225  37.0849
 6.13525  36.8666
 6.15825  36.866
 6.18125  37.1815
 6.20425  37.342
 6.22725  37.427
 6.25025  37.5115
 6.27325  37.7713
 6.29625  38.0614
 6.31925  38.1782
 6.34225  38.3426
 6.36525  38.5215
 6.38825  38.6797
 6.41125  38.8198
 6.43425  38.9238
 6.45725  38.8932
 6.48025  39.0766
 6.50325  39.2983
 6.52625  39.5583
 6.54925  39.6683
 6.57225  39.7207
 6.59525  39.8598
 6.61825  40.2365
 6.64125  40.5564
 6.66425  40.6478
 6.68725  40.5619
 6.71025  40.563
 6.73325  40.8163
 6.75625  41.1379
 6.77925  41.3228
 6.80225  41.5797
 6.82525  41.8247
 6.84825  41.9794
 6.87125  42.0676
 6.89425  42.2762
 6.91725  42.4543
 6.94025  42.5752
 6.96325  42.7105
 6.98625  42.8871
 7.00925  43.0321
 7.03225  43.2148
 7.05525  43.2202
 7.07825  43.1912
 7.10125  43.4664
 7.12425  43.7797
 7.14725  43.8386
 7.17025  43.7855
 7.19325  43.9983
 7.21625  44.0698
 7.23925  44.0711
 7.26225  44.3007
 7.28525  44.316
 7.30825  44.377
 7.33125  44.4816
 7.35425  44.715
 7.37725  44.7581
 7.40025  44.8502
 7.42325  44.8367
 7.44625  44.4983
 7.46925  44.3376
 7.49225  44.4332
 7.51525  44.6189
 7.53825  44.7744
 7.56125  44.9422
 7.58425  44.9189
 7.60725  44.9343
 7.63025  44.8963
 7.65325  44.9423
 7.67625  44.954
 7.69925  44.8522
 7.72225  44.8515
 7.74525  44.772
 7.76825  44.5502
 7.79125  44.3764
 7.81425  44.4117
 7.83725  44.5997
 7.86025  44.5669
 7.88325  44.4347
 7.90625  44.2653
 7.92925  44.2514
 7.95225  44.2157
 7.97525  44.1068
 7.99825  43.9188
 8.02125  43.6873
 8.04425  43.7015
 8.06725  43.5731
 8.09025  43.4135
 8.11325  43.3796
 8.13625  43.0902
 8.15925  42.773
 8.18225  42.5219
 8.20525  42.3626
 8.22825  42.1288
 8.25125  41.7992
 8.27425  41.3269
 8.29725  40.9755
 8.32025  40.8019
 8.34325  40.6618
 8.36625  40.3705
 8.38925  39.8668
 8.41225  39.4096
 8.43525  39.0919
 8.45825  38.9099
 8.48125  38.5973
 8.50425  38.3015
 8.52725  38.1285
 8.55025  37.6967
 8.57325  37.1561
 8.59625  36.6403
 8.61925  36.3531
 8.64225  36.0884
 8.66525  35.7675
 8.68825  35.4991
 8.71125  35.1785
 8.73425  34.6344
 8.75725  34.1791
 8.78025  33.7985
 8.80325  33.412
 8.82625  33.1918
 8.84925  32.896
 8.87225  32.5959
 8.89525  32.3464
 8.91825  32.133
 8.94125  31.6627
 8.96425  31.2289
 8.98725  31.0293
 9.01025  30.7634
 9.03325  30.3624
 9.05625  30.0992
 9.07925  29.9133
 9.10225  29.6536
 9.12525  29.4
 9.14825  29.2091
 9.17125  29.0259
 9.19425  28.7141
 9.21725  28.4582
 9.24025  28.147
 9.26325  27.9471
 9.28625  27.8687
 9.30925  27.725
 9.33225  27.5704
 9.35525  27.404
 9.37825  27.2695
 9.40125  27.0445
 9.42425  26.8837
 9.44725  26.7176
 9.47025  26.5752
 9.49325  26.4812
 9.51625  26.3291
 9.53925  26.2453
 9.56225  26.1538
 9.58525  25.9831
 9.60825  25.7926
 9.63125  25.728
 9.65425  25.5896
 9.67725  25.3252
 9.70025  25.1845
 9.72325  25.1658
 9.74625  25.1895
 9.76925  25.257
 9.79225  25.2055
 9.81525  25.0469
 9.83825  24.8957
 9.86125  24.8389
 9.88425  24.6523
 9.90725  24.541
 9.93025  24.5117
 9.95325  24.3987
 9.97625  24.289
 9.99925  24.2954
 10.0222  24.2923
 10.0453  24.1582
 10.0683  24.0174
 10.0913  23.9016
 10.1143  23.8556
 10.1373  23.7974
 10.1603  23.7372
 10.1832  23.6716
 10.2063  23.758
 10.2293  23.7919
 10.2523  23.7028
 10.2752  23.6036
 10.2982  23.6882
 10.3213  23.6691
 10.3443  23.4692
 10.3673  23.3567
 10.3902  23.3917
 10.4133  23.3174
 10.4363  23.1702
 10.4593  23.1808
 10.4823  23.2532
 10.5053  23.2778
 10.5283  23.2529
 10.5512  23.1367
 10.5742  23.038
 10.5973  22.9303
 10.6203  22.8441
 10.6433  22.8096
 10.6662  22.8625
 10.6893  22.8791
 10.7123  22.8078
 10.7353  22.8007
 10.7583  22.7914
 10.7813  22.7611
 10.8043  22.7222
 10.8272  22.7598
 10.8503  22.716
 10.8733  22.752
 10.8963  22.6139
 10.9192  22.5715
 10.9422  22.6482
 10.9653  22.5769
 10.9883  22.4182
 11.0113  22.4182
 11.0343  22.4855
 11.0573  22.5455
 11.0803  22.6016
 11.1033  22.6039
 11.1263  22.5827
 11.1493  22.6213
 11.1723  22.5472
 11.1953  22.4085
 11.2182  22.2777
 11.2413  22.2185
 11.2643  22.2111
 11.2873  22.2225
 11.3102  22.3725
 11.3333  22.3981
 11.3563  22.4436
 11.3793  22.5137
 11.4023  22.6214
 11.4253  22.6231
 11.4483  22.6465
 11.4713  22.7179
 11.4942  22.7754
 11.5173  23.0455
 11.5403  24.0101
 11.5633  25.5791
 11.5862  26.7933
 11.6093  26.3013
 11.6323  24.7253
 11.6553  23.4063
 11.6783  22.7717
 11.7013  22.5141
 11.7243  22.4698
 11.7473  22.457
 11.7703  22.3187
 11.7933  22.3376
 11.8163  22.4294
 11.8393  22.3967
 11.8622  22.3473
 11.8853  22.3255
 11.9083  22.3475
 11.9313  22.4683
 11.9543  22.6975
 11.9773  22.7245
 12.0003  22.596
 12.0233  22.5676
 12.0463  22.6723
 12.0693  22.8981
 12.0923  23.2167
 12.1153  23.4206
 12.1382  23.1771
 12.1613  22.8896
 12.1843  22.6284
 12.2073  22.5634
 12.2302  22.4243
 12.2533  22.2461
 12.2763  22.2045
 12.2993  22.3264
 12.3223  22.4648
 12.3453  22.4765
 12.3683  22.4071
 12.3913  22.4721
 12.4142  22.4808
 12.4373  22.4891
 12.4603  22.5602
 12.4833  22.6624
 12.5062  22.6372
 12.5292  22.6141
 12.5523  22.653
 12.5753  22.588
 12.5983  22.5628
 12.6212  22.6529
 12.6443  22.7774
 12.6673  22.8413
 12.6903  22.9191
 12.7133  22.9542
 12.7363  23.0821
 12.7593  23.1785
 12.7822  23.1617
 12.8052  23.052
 12.8283  23.1175
 12.8513  23.2631
 12.8742  23.3661
 12.8972  23.4016
 12.9203  23.5507
 12.9433  23.6185
 12.9663  23.7068
 12.9893  23.9235
 13.0123  24.063
 13.0353  24.0864
 13.0582  24.1825
 13.0813  24.3367
 13.1043  24.745
 13.1273  25.1367
 13.1502  25.344
 13.1732  25.3856
 13.1963  25.504
 13.2193  25.9039
 13.2423  26.3171
 13.2652  26.5531
 13.2883  26.7983
 13.3113  27.0608
 13.3343  27.3398
 13.3573  27.6813
 13.3803  27.9872
 13.4033  28.276
 13.4262  28.4372
 13.4492  28.6526
 13.4723  28.8811
 13.4953  29.1478
 13.5183  29.3205
 13.5412  29.5545
 13.5643  29.7899
 13.5873  30.0294
 13.6103  29.9402
 13.6333  29.8888
 13.6563  29.8089
 13.6793  29.7986
 13.7022  29.8025
 13.7253  29.7841
 13.7483  29.9338
 13.7713  29.9102
 13.7942  29.8635
 13.8172  29.8933
 13.8403  30.234
 13.8633  31.0646
 13.8863  33.3181
 13.9093  38.5602
 13.9323  45.3998
 13.9553  49.2998
 13.9783  46.5719
 14.0013  39.3049
 14.0243  33.0911
 14.0473  29.8554
 14.0703  28.6397
 14.0932  28.1349
 14.1163  27.8529
 14.1393  27.6219
 14.1623  27.3405
 14.1852  27.0208
 14.2083  26.8581
 14.2313  26.7186
 14.2543  26.6915
 14.2773  26.5942
 14.3003  26.4504
 14.3233  26.3108
 14.3463  26.1619
 14.3692  26.1357
 14.3923  26.126
 14.4153  26.0007
 14.4383  25.8352
 14.4612  25.7169
 14.4843  25.6784
 14.5073  25.6883
 14.5303  25.6571
 14.5533  25.6534
 14.5763  25.6334
 14.5993  25.3885
 14.6223  25.2115
 14.6453  25.1878
 14.6683  25.1563
 14.6913  25.1326
 14.7143  25.1398
 14.7372  25.1094
 14.7603  25.0658
 14.7833  25.0404
 14.8063  25.0206
 14.8293  24.9931
 14.8523  25.0298
 14.8753  24.9528
 14.8983  24.9231
 14.9213  24.8886
 14.9443  24.806
 14.9673  24.8335
 14.9903  24.919
 15.0132  24.9437
 15.0363  24.9194
 15.0593  24.8442
 15.0823  24.8699
 15.1052  24.8368
 15.1283  24.8736
 15.1513  25.01
 15.1743  25.2597
 15.1973  25.4477
 15.2203  25.3717
 15.2433  25.0644
 15.2663  24.8062
 15.2892  24.6613
 15.3123  24.5616
 15.3353  24.5732
 15.3583  24.6121
 15.3812  24.6012
 15.4043  24.572
 15.4273  24.5295
 15.4503  24.442
 15.4733  24.4168
 15.4963  24.4098
 15.5193  24.4731
 15.5423  24.5253
 15.5653  24.5548
 15.5883  24.4802
 15.6113  24.4397
 15.6343  24.5079
 15.6572  24.5612
 15.6803  24.54
 15.7033  24.5006
 15.7263  24.5407
 15.7492  24.6153
 15.7723  24.7079
 15.7953  24.6758
 15.8183  24.6763
 15.8413  24.566
 15.8643  24.449
 15.8873  24.5163
 15.9103  24.602
 15.9332  24.5495
 15.9563  24.4112
 15.9793  24.4855
 16.0023  24.623
 16.0253  24.6782
 16.0482  24.6496
 16.0713  24.6764
 16.0943  24.6676
 16.1172  24.6902
 16.1403  24.7566
 16.1633  24.893
 16.1863  24.859
 16.2093  24.9114
 16.2323  25.076
 16.2553  25.2976
 16.2783  25.2522
 16.3012  25.0699
 16.3243  24.8049
 16.3472  24.7315
 16.3703  24.6186
 16.3933  24.6071
 16.4163  24.6735
 16.4393  24.668
 16.4623  24.5822
 16.4853  24.6345
 16.5083  24.7051
 16.5312  24.6032
 16.5543  24.5019
 16.5773  24.5076
 16.6002  24.5036
 16.6233  24.4939
 16.6463  24.4976
 16.6693  24.5642
 16.6923  24.5668
 16.7153  24.4663
 16.7383  24.4343
 16.7613  24.4888
 16.7843  24.3552
 16.8073  24.1861
 16.8303  24.2061
 16.8533  24.2498
 16.8763  24.2793
 16.8992  24.2077
 16.9223  24.2134
 16.9453  24.2548
 16.9683  24.3075
 16.9913  24.2772
 17.0143  24.1538
 17.0373  24.0312
 17.0603  23.9558
 17.0832  24.0504
 17.1063  24.1036
 17.1293  24.0664
 17.1522  24.1004
 17.1753  24.1086
 17.1983  24.1022
 17.2213  24.1143
 17.2443  24.0821
 17.2673  23.9637
 17.2903  23.9531
 17.3133  23.8966
 17.3362  23.9733
 17.3593  23.9134
 17.3823  23.862
 17.4053  23.767
 17.4283  23.8135
 17.4513  23.934
 17.4743  23.9339
 17.4973  23.9119
 17.5203  23.9414
 17.5433  23.9149
 17.5663  23.848
 17.5893  23.7989
 17.6123  23.8135
 17.6352  23.7889
 17.6583  23.7088
 17.6813  23.7155
 17.7042  23.6656
 17.7273  23.5983
 17.7503  23.5973
 17.7733  23.6567
 17.7963  23.7585
 17.8193  23.681
 17.8423  23.6548
 17.8653  23.6384
 17.8882  23.6288
 17.9113  23.5883
 17.9343  23.624
 17.9573  23.681
 17.9803  23.7622
 18.0033  23.889
 18.0263  24.0543
 18.0493  24.1265
 18.0723  24.1751
 18.0953  24.3756
 18.1183  24.4328
 18.1413  24.2487
 18.1643  24.0343
 18.1872  23.8139
 18.2103  23.7775
 18.2333  23.656
 18.2563  23.5426
 18.2793  23.513
 18.3023  23.4781
 18.3253  23.4488
 18.3483  23.5509
 18.3712  23.5515
 18.3943  23.4435
 18.4173  23.3956
 18.4402  23.3842
 18.4633  23.4172
 18.4863  23.4961
 18.5093  23.53
 18.5323  23.4858
 18.5553  23.4529
 18.5783  23.5082
 18.6013  23.5126
 18.6242  23.3683
 18.6473  23.3306
 18.6703  23.3413
 18.6933  23.3962
 18.7163  23.37
 18.7392  23.3287
 18.7623  23.2826
 18.7853  23.2874
 18.8083  23.2396
 18.8313  23.2087
 18.8543  23.2593
 18.8773  23.3552
 18.9003  23.3749
 18.9232  23.3619
 18.9463  23.4011
 18.9693  23.3756
 18.9922  23.3046
 19.0153  23.3586
 19.0383  23.4434
 19.0613  23.4724
 19.0843  23.4194
 19.1073  23.2731
 19.1303  23.2511
 19.1533  23.3179
 19.1762  23.3473
 19.1993  23.3901
 19.2223  23.4358
 19.2453  23.3241
 19.2683  23.3692
 19.2913  23.4078
 19.3143  23.4887
 19.3373  23.5905
 19.3603  23.5051
 19.3833  23.4893
 19.4062  23.5303
 19.4293  23.5207
 19.4523  23.6343
 19.4752  23.5994
 19.4983  23.5384
 19.5213  23.5365
 19.5443  23.6141
 19.5673  23.7522
 19.5903  23.8243
 19.6133  23.7624
 19.6363  23.8155
 19.6593  24.1384
 19.6823  24.6583
 19.7053  25.1688
 19.7283  25.3193
 19.7513  25.1876
 19.7742  24.8556
 19.7973  24.7642
 19.8203  25.1575
 19.8433  25.6903
 19.8663  25.6962
 19.8893  25.0963
 19.9123  24.4385
 19.9353  23.9483
 19.9582  23.7545
 19.9813  23.7006
 20.0043  23.6571
 20.0272  23.6031
 20.0503  23.646
 20.0733  23.6852
 20.0963  23.6937
 20.1193  23.6498
 20.1423  23.5977
 20.1653  23.5677
 20.1883  23.521
 20.2112  23.4924
 20.2343  23.5214
 20.2573  23.4954
 20.2803  23.4679
 20.3033  23.5033
 20.3263  23.5277
 20.3493  23.5682
 20.3723  23.5298
 20.3953  23.4742
 20.4183  23.5175
 20.4413  23.5741
 20.4643  23.5665
 20.4873  23.6541
 20.5102  23.6482
 20.5333  23.6112
 20.5563  23.67
 20.5792  23.7899
 20.6023  23.827
 20.6253  23.7386
 20.6483  23.6456
 20.6713  23.755
 20.6943  24.0594
 20.7173  24.5801
 20.7403  25.031
 20.7632  25.191
 20.7863  24.9645
 20.8093  24.4523
 20.8323  24.0186
 20.8553  23.9328
 20.8783  23.8405
 20.9013  23.8158
 20.9243  23.8344
 20.9473  23.6922
 20.9703  23.5791
 20.9933  23.7069
 21.0163  23.7476
 21.0393  23.6886
 21.0622  23.6368
 21.0853  23.6676
 21.1083  23.7041
 21.1313  23.7747
 21.1543  23.6257
 21.1773  23.6236
 21.2003  23.763
 21.2233  23.7909
 21.2462  23.7617
 21.2693  23.7548
 21.2923  23.7105
 21.3152  23.7217
 21.3383  23.8093
 21.3613  23.8417
 21.3843  23.7689
 21.4073  23.7795
 21.4303  23.8606
 21.4533  23.8406
 21.4763  23.8206
 21.4992  23.884
 21.5223  23.8371
 21.5453  23.907
 21.5683  23.8116
 21.5913  23.8889
 21.6142  23.9162
 21.6373  23.9452
 21.6603  23.9351
 21.6833  23.9152
 21.7063  23.9296
 21.7293  24.0388
 21.7523  24.008
 21.7753  23.9237
 21.7982  23.8907
 21.8213  23.944
 21.8443  23.9776
 21.8672  24.0518
 21.8903  24.1155
 21.9133  24.0762
 21.9363  24.057
 21.9593  24.1096
 21.9823  24.11
 22.0053  24.0498
 22.0283  24.0309
 22.0512  24.0455
 22.0743  24.0827
 22.0973  24.1003
 22.1203  24.0747
 22.1433  24.1398
 22.1663  24.2023
 22.1893  24.1841
 22.2123  24.2057
 22.2353  24.2536
 22.2583  24.2309
 22.2813  24.179
 22.3043  24.2429
 22.3273  24.3558
 22.3502  24.4419
 22.3733  24.4488
 22.3963  24.4492
 22.4193  24.3932
 22.4423  24.505
 22.4653  24.5175
 22.4883  24.4758
 22.5113  24.5205
 22.5343  24.6014
 22.5573  24.5918
 22.5803  24.5941
 22.6033  24.6282
 22.6263  24.6768
 22.6493  24.7753
 22.6723  24.9475
 22.6953  25.1214
 22.7183  25.0972
 22.7413  25.1588
 22.7643  25.0558
 22.7873  25.0872
 22.8103  25.2113
 22.8333  25.3248
 22.8563  25.3428
 22.8793  25.4946
 22.9022  25.6522
 22.9253  25.8301
 22.9483  25.8603
 22.9713  26.0681
 22.9943  26.3078