File: test-data-xrd/xrd-map-34-ID-E/Data_0092.chi
F:\20151113_APS_34IDE\\Brian\Particle1\OCV\Data_0092.tif
2-Theta Angle (Degrees)
Intensity
       2000
 0.01725  0.0000000E+00
 0.04025  0.0000000E+00
 0.06325  0.0000000E+00
 0.08625  0.0000000E+00
 0.10925  0.0000000E+00
 0.13225  0.0000000E+00
 0.15525  0.0000000E+00
 0.17825  0.0000000E+00
 0.20125  0.0000000E+00
 0.22425  0.0000000E+00
 0.24725  0.0000000E+00
 0.27025  0.0000000E+00
 0.29325  0.0000000E+00
 0.31625  0.0000000E+00
 0.33925  0.0000000E+00
 0.36225  0.0000000E+00
 0.38525  0.0000000E+00
 0.40825  0.0000000E+00
 0.43125  0.0000000E+00
 0.45425  0.0000000E+00
 0.47725  0.0000000E+00
 0.50025  0.0000000E+00
 0.52325  0.0000000E+00
 0.54625  0.0000000E+00
 0.56925  0.0000000E+00
 0.59225  0.0000000E+00
 0.61525  0.0000000E+00
 0.63825  0.0000000E+00
 0.66125  0.0000000E+00
 0.68425  0.0000000E+00
 0.70725  0.0000000E+00
 0.73025  0.0000000E+00
 0.75325  0.0000000E+00
 0.77625  0.0000000E+00
 0.79925  0.0000000E+00
 0.82225  0.0000000E+00
 0.84525  0.0000000E+00
 0.86825  0.0000000E+00
 0.89125  0.0000000E+00
 0.91425  0.0000000E+00
 0.93725  0.0000000E+00
 0.96025  0.0000000E+00
 0.98325  0.0000000E+00
 1.00625  0.0000000E+00
 1.02925  0.0000000E+00
 1.05225  0.0000000E+00
 1.07525  0.0000000E+00
 1.09825  0.0000000E+00
 1.12125  0.0000000E+00
 1.14425  0.0000000E+00
 1.16725  0.0000000E+00
 1.19025  0.0000000E+00
 1.21325  0.0000000E+00
 1.23625  0.0000000E+00
 1.25925  0.0000000E+00
 1.28225  0.0000000E+00
 1.30525  0.0000000E+00
 1.32825  0.0000000E+00
 1.35125  0.0000000E+00
 1.37425  0.0000000E+00
 1.39725  0.0000000E+00
 1.42025  0.0000000E+00
 1.44325  0.0000000E+00
 1.46625  0.0000000E+00
 1.48925  0.0000000E+00
 1.51225  0.0000000E+00
 1.53525  0.0000000E+00
 1.55825  0.0000000E+00
 1.58125  0.0000000E+00
 1.60425  0.0000000E+00
 1.62725  0.0000000E+00
 1.65025  0.0000000E+00
 1.67325  0.0000000E+00
 1.69625  0.0000000E+00
 1.71925  0.0000000E+00
 1.74225  0.0000000E+00
 1.76525  0.0000000E+00
 1.78825  0.0000000E+00
 1.81125  0.0000000E+00
 1.83425  0.0000000E+00
 1.85725  0.0000000E+00
 1.88025  0.0000000E+00
 1.90325  0.0000000E+00
 1.92625  0.0000000E+00
 1.94925  0.0000000E+00
 1.97225  0.0000000E+00
 1.99525  0.0000000E+00
 2.01825  0.0000000E+00
 2.04125  0.0000000E+00
 2.06425  0.0000000E+00
 2.08725  0.0000000E+00
 2.11025  0.0000000E+00
 2.13325  0.0000000E+00
 2.15625  0.0000000E+00
 2.17925  0.0000000E+00
 2.20225  0.0000000E+00
 2.22525  0.0000000E+00
 2.24825  0.0000000E+00
 2.27125  0.0000000E+00
 2.29425  0.0000000E+00
 2.31725  0.0000000E+00
 2.34025  0.0000000E+00
 2.36325  0.0000000E+00
 2.38625  0.0000000E+00
 2.40925  0.0000000E+00
 2.43225  0.0000000E+00
 2.45525  0.0000000E+00
 2.47825  0.0000000E+00
 2.50125  0.0000000E+00
 2.52425  0.0000000E+00
 2.54725  0.0000000E+00
 2.57025  0.0000000E+00
 2.59325  0.0000000E+00
 2.61625  0.0000000E+00
 2.63925  0.0000000E+00
 2.66225  0.0000000E+00
 2.68525  0.0000000E+00
 2.70825  0.0000000E+00
 2.73125  0.0000000E+00
 2.75425  0.0000000E+00
 2.77725  0.0000000E+00
 2.80025  0.0000000E+00
 2.82325  34.5193
 2.84625  32.8254
 2.86925  33.3494
 2.89225  36.0617
 2.91525  37.82
 2.93825  37.6857
 2.96125  36.6407
 2.98425  35.332
 3.00725  35.7307
 3.03025  36.4303
 3.05325  36.0234
 3.07625  35.9474
 3.09925  36.012
 3.12225  35.9195
 3.14525  35.6412
 3.16825  35.7041
 3.19125  35.6065
 3.21425  35.8344
 3.23725  35.7209
 3.26025  35.5523
 3.28325  35.4739
 3.30625  35.5243
 3.32925  35.3902
 3.35225  34.7033
 3.37525  34.4154
 3.39825  34.4868
 3.42125  34.6754
 3.44425  34.8353
 3.46725  34.9773
 3.49025  34.59
 3.51325  33.9012
 3.53625  33.9189
 3.55925  33.8383
 3.58225  33.9543
 3.60525  34.0414
 3.62825  33.8708
 3.65125  33.5401
 3.67425  33.3681
 3.69725  33.1675
 3.72025  33.0047
 3.74325  32.9141
 3.76625  32.8577
 3.78925  32.9526
 3.81225  33.0082
 3.83525  33.0038
 3.85825  32.364
 3.88125  32.5539
 3.90425  32.6055
 3.92725  33.0088
 3.95025  33.2273
 3.97325  33.3071
 3.99625  33.4362
 4.01925  33.289
 4.04225  32.7015
 4.06525  32.6306
 4.08825  32.6722
 4.11125  32.5022
 4.13425  32.2622
 4.15725  32.0375
 4.18025  31.9945
 4.20325  32.5732
 4.22625  32.8265
 4.24925  32.6858
 4.27225  32.4264
 4.29525  32.4431
 4.31825  32.7393
 4.34125  32.6519
 4.36425  32.5879
 4.38725  32.5642
 4.41025  32.7628
 4.43325  32.7666
 4.45625  32.8142
 4.47925  32.8246
 4.50225  32.6012
 4.52525  32.6113
 4.54825  32.7561
 4.57125  32.7118
 4.59425  32.8073
 4.61725  32.9276
 4.64025  33.0667
 4.66325  33.2007
 4.68625  33.0279
 4.70925  32.9073
 4.73225  32.8427
 4.75525  32.964
 4.77825  32.9953
 4.80125  32.9403
 4.82425  32.6836
 4.84725  32.69
 4.87025  32.7842
 4.89325  32.9432
 4.91625  32.9455
 4.93925  33.1132
 4.96225  33.2714
 4.98525  33.2368
 5.00825  33.292
 5.03125  33.374
 5.05425  33.3794
 5.07725  33.3587
 5.10025  33.4078
 5.12325  33.565
 5.14625  33.739
 5.16925  33.8872
 5.19225  34.2762
 5.21525  34.2868
 5.23825  34.1897
 5.26125  34.173
 5.28425  34.3209
 5.30725  34.3104
 5.33025  34.4715
 5.35325  34.3695
 5.37625  34.6304
 5.39925  34.8557
 5.42225  34.7915
 5.44525  34.8212
 5.46825  35.1888
 5.49125  35.3277
 5.51425  35.3206
 5.53725  35.2036
 5.56025  35.089
 5.58325  35.3611
 5.60625  35.7069
 5.62925  35.773
 5.65225  35.4962
 5.67525  35.6111
 5.69825  35.5865
 5.72125  35.7913
 5.74425  36.142
 5.76725  36.2704
 5.79025  36.3405
 5.81325  36.384
 5.83625  36.6618
 5.85925  36.9962
 5.88225  37.6072
 5.90525  39.1378
 5.92825  43.7445
 5.95125  53.8731
 5.97425  63.217
 5.99725  64.574
 6.02025  55.1056
 6.04325  45.5667
 6.06625  40.1424
 6.08925  38.3429
 6.11225  37.7597
 6.13525  37.5313
 6.15825  37.3674
 6.18125  37.3817
 6.20425  37.4996
 6.22725  37.7686
 6.25025  37.8698
 6.27325  37.877
 6.29625  38.0071
 6.31925  38.0303
 6.34225  38.1722
 6.36525  38.3285
 6.38825  38.4241
 6.41125  38.5645
 6.43425  38.7437
 6.45725  38.7642
 6.48025  38.9219
 6.50325  39.3228
 6.52625  39.7416
 6.54925  39.9008
 6.57225  39.9069
 6.59525  39.9055
 6.61825  40.0376
 6.64125  40.1754
 6.66425  40.3753
 6.68725  40.6278
 6.71025  40.7398
 6.73325  40.9501
 6.75625  41.2519
 6.77925  41.4313
 6.80225  41.5773
 6.82525  41.6748
 6.84825  41.8025
 6.87125  42.0204
 6.89425  42.1081
 6.91725  42.2857
 6.94025  42.5769
 6.96325  42.6995
 6.98625  42.5194
 7.00925  42.623
 7.03225  42.8319
 7.05525  42.9447
 7.07825  43.1916
 7.10125  43.3778
 7.12425  43.4963
 7.14725  43.4648
 7.17025  43.4817
 7.19325  43.6084
 7.21625  43.6436
 7.23925  43.6046
 7.26225  43.6098
 7.28525  43.8216
 7.30825  43.9521
 7.33125  44.0441
 7.35425  44.3512
 7.37725  44.289
 7.40025  44.2167
 7.42325  44.2721
 7.44625  44.2752
 7.46925  44.4903
 7.49225  44.6745
 7.51525  44.6273
 7.53825  44.5983
 7.56125  44.5985
 7.58425  44.6243
 7.60725  44.6496
 7.63025  44.5959
 7.65325  44.4929
 7.67625  44.2863
 7.69925  44.3478
 7.72225  44.436
 7.74525  44.4449
 7.76825  44.3629
 7.79125  44.3081
 7.81425  44.2227
 7.83725  44.1844
 7.86025  44.0968
 7.88325  43.987
 7.90625  43.8641
 7.92925  43.8713
 7.95225  43.8718
 7.97525  43.7623
 7.99825  43.6696
 8.02125  43.5958
 8.04425  43.4489
 8.06725  43.2443
 8.09025  43.1619
 8.11325  43.0937
 8.13625  42.7649
 8.15925  42.4113
 8.18225  42.2492
 8.20525  42.1095
 8.22825  41.7986
 8.25125  41.4295
 8.27425  41.232
 8.29725  40.9711
 8.32025  40.725
 8.34325  40.4229
 8.36625  40.2371
 8.38925  39.8905
 8.41225  39.4318
 8.43525  38.969
 8.45825  38.7347
 8.48125  38.3288
 8.50425  37.9502
 8.52725  37.6699
 8.55025  37.2725
 8.57325  36.9892
 8.59625  36.7501
 8.61925  36.3834
 8.64225  36.0708
 8.66525  35.4806
 8.68825  35.1566
 8.71125  34.9423
 8.73425  34.5074
 8.75725  34.1768
 8.78025  33.8466
 8.80325  33.4201
 8.82625  33.1241
 8.84925  32.8723
 8.87225  32.4758
 8.89525  32.1842
 8.91825  31.8823
 8.94125  31.6382
 8.96425  31.3899
 8.98725  31.1285
 9.01025  30.6584
 9.03325  30.3656
 9.05625  30.1701
 9.07925  29.9787
 9.10225  29.6681
 9.12525  29.3505
 9.14825  29.1573
 9.17125  28.9202
 9.19425  28.6498
 9.21725  28.5314
 9.24025  28.2778
 9.26325  28.0937
 9.28625  27.9057
 9.30925  27.7104
 9.33225  27.4541
 9.35525  27.3106
 9.37825  27.1962
 9.40125  26.999
 9.42425  26.7935
 9.44725  26.6385
 9.47025  26.5373
 9.49325  26.343
 9.51625  26.3136
 9.53925  26.2836
 9.56225  26.0694
 9.58525  25.7905
 9.60825  25.8039
 9.63125  25.8346
 9.65425  25.6697
 9.67725  25.4967
 9.70025  25.2835
 9.72325  25.3001
 9.74625  25.2399
 9.76925  25.212
 9.79225  25.1413
 9.81525  25.0971
 9.83825  25.023
 9.86125  24.8872
 9.88425  24.689
 9.90725  24.6996
 9.93025  24.7547
 9.95325  24.6206
 9.97625  24.6318
 9.99925  24.499
 10.0222  24.3655
 10.0453  24.3347
 10.0683  24.2429
 10.0913  24.1087
 10.1143  24.0825
 10.1373  24.0942
 10.1603  24.0224
 10.1832  23.9245
 10.2063  23.8506
 10.2293  23.7828
 10.2523  23.6183
 10.2752  23.5182
 10.2982  23.6028
 10.3213  23.6237
 10.3443  23.6098
 10.3673  23.5076
 10.3902  23.4932
 10.4133  23.4688
 10.4363  23.3585
 10.4593  23.2224
 10.4823  23.2691
 10.5053  23.3542
 10.5283  23.3154
 10.5512  23.2184
 10.5742  23.2482
 10.5973  23.2643
 10.6203  23.3691
 10.6433  23.2235
 10.6662  23.0788
 10.6893  22.9923
 10.7123  23.0109
 10.7353  23.0433
 10.7583  23.0158
 10.7813  22.9859
 10.8043  22.8178
 10.8272  22.7678
 10.8503  22.8168
 10.8733  22.7477
 10.8963  22.6334
 10.9192  22.6999
 10.9422  22.6817
 10.9653  22.7141
 10.9883  22.6837
 11.0113  22.5614
 11.0343  22.5417
 11.0573  22.5171
 11.0803  22.6084
 11.1033  22.5834
 11.1263  22.553
 11.1493  22.5569
 11.1723  22.4985
 11.1953  22.4083
 11.2182  22.3728
 11.2413  22.471
 11.2643  22.5206
 11.2873  22.4658
 11.3102  22.4922
 11.3333  22.5621
 11.3563  22.6734
 11.3793  22.8639
 11.4023  22.9486
 11.4253  22.9291
 11.4483  22.986
 11.4713  23.0524
 11.4942  23.1707
 11.5173  23.5616
 11.5403  24.729
 11.5633  26.7796
 11.5862  29.7097
 11.6093  30.3274
 11.6323  28.0628
 11.6553  24.9884
 11.6783  23.5722
 11.7013  23.0129
 11.7243  22.6878
 11.7473  22.6179
 11.7703  22.5921
 11.7933  22.5798
 11.8163  22.6732
 11.8393  22.7079
 11.8622  22.6513
 11.8853  22.586
 11.9083  22.6978
 11.9313  23.0196
 11.9543  23.6771
 11.9773  24.2617
 12.0003  24.375
 12.0233  23.8918
 12.0463  23.8887
 12.0693  24.9087
 12.0923  26.5623
 12.1153  27.2105
 12.1382  25.7532
 12.1613  24.2532
 12.1843  23.242
 12.2073  22.7704
 12.2302  22.5864
 12.2533  22.5793
 12.2763  22.5909
 12.2993  22.6411
 12.3223  22.719
 12.3453  22.7666
 12.3683  22.8111
 12.3913  22.7947
 12.4142  22.7752
 12.4373  22.7168
 12.4603  22.7194
 12.4833  22.7869
 12.5062  22.7885
 12.5292  22.8245
 12.5523  22.8936
 12.5753  22.9215
 12.5983  22.9227
 12.6212  22.9757
 12.6443  22.8908
 12.6673  22.9461
 12.6903  23.1056
 12.7133  23.1845
 12.7363  23.2221
 12.7593  23.2272
 12.7822  23.2901
 12.8052  23.2773
 12.8283  23.3088
 12.8513  23.3813
 12.8742  23.4904
 12.8972  23.6269
 12.9203  23.7349
 12.9433  23.7254
 12.9663  23.7885
 12.9893  23.9864
 13.0123  24.0648
 13.0353  24.2531
 13.0582  24.4068
 13.0813  24.6098
 13.1043  24.8716
 13.1273  25.1111
 13.1502  25.3456
 13.1732  25.5598
 13.1963  25.8306
 13.2193  26.1216
 13.2423  26.3497
 13.2652  26.5006
 13.2883  26.8111
 13.3113  27.0644
 13.3343  27.3676
 13.3573  27.649
 13.3803  27.9623
 13.4033  28.3456
 13.4262  28.5547
 13.4492  28.7188
 13.4723  28.9783
 13.4953  29.2527
 13.5183  29.4085
 13.5412  29.5699
 13.5643  29.6842
 13.5873  29.7549
 13.6103  29.8224
 13.6333  29.817
 13.6563  29.8884
 13.6793  30.0114
 13.7022  29.8943
 13.7253  29.7782
 13.7483  29.6828
 13.7713  29.6524
 13.7942  29.6564
 13.8172  29.6331
 13.8403  29.7447
 13.8633  30.248
 13.8863  31.5721
 13.9093  34.7354
 13.9323  40.1327
 13.9553  45.1534
 13.9783  44.9212
 14.0013  38.8529
 14.0243  33.0102
 14.0473  29.8951
 14.0703  28.6805
 14.0932  28.1554
 14.1163  27.8421
 14.1393  27.5395
 14.1623  27.2907
 14.1852  27.0857
 14.2083  26.9576
 14.2313  27.0036
 14.2543  26.9065
 14.2773  26.6894
 14.3003  26.5818
 14.3233  26.3318
 14.3463  26.2474
 14.3692  26.2908
 14.3923  26.2483
 14.4153  26.1989
 14.4383  26.103
 14.4612  26.0071
 14.4843  25.8847
 14.5073  25.8212
 14.5303  25.7962
 14.5533  25.8217
 14.5763  25.7941
 14.5993  25.6434
 14.6223  25.4908
 14.6453  25.4699
 14.6683  25.4326
 14.6913  25.4054
 14.7143  25.387
 14.7372  25.2611
 14.7603  25.1634
 14.7833  25.2258
 14.8063  25.2692
 14.8293  25.215
 14.8523  25.1638
 14.8753  25.0883
 14.8983  25.1358
 14.9213  25.1765
 14.9443  25.0564
 14.9673  24.9426
 14.9903  25.0322
 15.0132  25.0575
 15.0363  25.1526
 15.0593  25.054
 15.0823  25.0046
 15.1052  25.0312
 15.1283  25.4553
 15.1513  26.7081
 15.1743  28.2183
 15.1973  29.2175
 15.2203  28.4713
 15.2433  26.9358
 15.2663  25.4699
 15.2892  24.9987
 15.3123  24.8827
 15.3353  24.853
 15.3583  24.8398
 15.3812  24.8013
 15.4043  24.747
 15.4273  24.723
 15.4503  24.7322
 15.4733  24.7467
 15.4963  24.8051
 15.5193  24.7779
 15.5423  24.7351
 15.5653  24.7455
 15.5883  24.7596
 15.6113  24.6956
 15.6343  24.6444
 15.6572  24.6504
 15.6803  24.7053
 15.7033  24.7498
 15.7263  24.7236
 15.7492  24.5991
 15.7723  24.6111
 15.7953  24.666
 15.8183  24.815
 15.8413  24.666
 15.8643  24.6728
 15.8873  24.7415
 15.9103  24.791
 15.9332  24.824
 15.9563  24.784
 15.9793  24.7582
 16.0023  24.7808
 16.0253  24.8469
 16.0482  24.8936
 16.0713  24.8335
 16.0943  24.8355
 16.1172  24.898
 16.1403  24.9146
 16.1633  24.9608
 16.1863  25.1313
 16.2093  25.4724
 16.2323  25.9762
 16.2553  26.4376
 16.2783  26.2607
 16.3012  25.5922
 16.3243  25.1821
 16.3472  24.9722
 16.3703  24.8475
 16.3933  24.775
 16.4163  24.7314
 16.4393  24.6736
 16.4623  24.6908
 16.4853  24.7536
 16.5083  24.7394
 16.5312  24.807
 16.5543  24.8465
 16.5773  24.7696
 16.6002  24.7091
 16.6233  24.7179
 16.6463  24.7436
 16.6693  24.804
 16.6923  24.7188
 16.7153  24.6308
 16.7383  24.6145
 16.7613  24.615
 16.7843  24.6018
 16.8073  24.64
 16.8303  24.5596
 16.8533  24.4682
 16.8763  24.4851
 16.8992  24.52
 16.9223  24.5229
 16.9453  24.5273
 16.9683  24.5124
 16.9913  24.4927
 17.0143  24.3943
 17.0373  24.2526
 17.0603  24.2627
 17.0832  24.3346
 17.1063  24.372
 17.1293  24.3469
 17.1522  24.3161
 17.1753  24.2826
 17.1983  24.4021
 17.2213  24.3643
 17.2443  24.2722
 17.2673  24.1598
 17.2903  24.2048
 17.3133  24.2974
 17.3362  24.2305
 17.3593  24.1117
 17.3823  24.1069
 17.4053  23.9923
 17.4283  24.058
 17.4513  24.128
 17.4743  24.1365
 17.4973  24.1169
 17.5203  24.0475
 17.5433  24.1348
 17.5663  24.0595
 17.5893  23.8944
 17.6123  23.8862
 17.6352  23.9296
 17.6583  23.9426
 17.6813  23.9847
 17.7042  23.9988
 17.7273  23.8925
 17.7503  23.8448
 17.7733  23.8482
 17.7963  24.0079
 17.8193  23.9764
 17.8423  23.928
 17.8653  23.9627
 17.8882  23.9516
 17.9113  23.9864
 17.9343  24.0593
 17.9573  24.2298
 17.9803  24.5601
 18.0033  24.8609
 18.0263  25.4068
 18.0493  26.1099
 18.0723  27.043
 18.0953  27.7273
 18.1183  27.4941
 18.1413  26.5039
 18.1643  25.3803
 18.1872  24.4749
 18.2103  24.1387
 18.2333  23.9192
 18.2563  23.8052
 18.2793  23.8085
 18.3023  23.8722
 18.3253  23.8057
 18.3483  23.8741
 18.3712  23.9222
 18.3943  23.8514
 18.4173  23.8346
 18.4402  23.7129
 18.4633  23.6782
 18.4863  23.6528
 18.5093  23.6353
 18.5323  23.5759
 18.5553  23.6425
 18.5783  23.6986
 18.6013  23.7388
 18.6242  23.6604
 18.6473  23.5963
 18.6703  23.5487
 18.6933  23.6548
 18.7163  23.6671
 18.7392  23.5781
 18.7623  23.6291
 18.7853  23.7252
 18.8083  23.7892
 18.8313  23.6918
 18.8543  23.5666
 18.8773  23.643
 18.9003  23.6477
 18.9232  23.7123
 18.9463  23.7877
 18.9693  23.7117
 18.9922  23.737
 19.0153  23.7861
 19.0383  23.7295
 19.0613  23.685
 19.0843  23.7112
 19.1073  23.5935
 19.1303  23.5273
 19.1533  23.5636
 19.1762  23.5544
 19.1993  23.6196
 19.2223  23.6881
 19.2453  23.7002
 19.2683  23.7844
 19.2913  23.6834
 19.3143  23.6174
 19.3373  23.6393
 19.3603  23.6908
 19.3833  23.7746
 19.4062  23.8461
 19.4293  23.8452
 19.4523  23.7529
 19.4752  23.8086
 19.4983  23.8378
 19.5213  23.9054
 19.5443  23.9206
 19.5673  23.9407
 19.5903  23.9711
 19.6133  24.1461
 19.6363  24.436
 19.6593  25.2458
 19.6823  26.4126
 19.7053  27.7738
 19.7283  28.4211
 19.7513  27.9477
 19.7742  27.1129
 19.7973  26.8858
 19.8203  27.6796
 19.8433  29.8157
 19.8663  31.1206
 19.8893  30.0514
 19.9123  27.6462
 19.9353  25.6365
 19.9582  24.715
 19.9813  24.3619
 20.0043  24.1906
 20.0272  24.1555
 20.0503  24.1877
 20.0733  24.0416
 20.0963  24.0018
 20.1193  23.9927
 20.1423  23.9857
 20.1653  23.9278
 20.1883  23.9185
 20.2112  23.929
 20.2343  23.9084
 20.2573  23.8879
 20.2803  23.8568
 20.3033  23.8468
 20.3263  23.888
 20.3493  23.8991
 20.3723  23.8643
 20.3953  23.8651
 20.4183  23.9028
 20.4413  23.9095
 20.4643  23.9727
 20.4873  24.0089
 20.5102  24.0238
 20.5333  23.9772
 20.5563  24.006
 20.5792  23.914
 20.6023  23.9843
 20.6253  24.1106
 20.6483  24.28
 20.6713  24.478
 20.6943  24.9622
 20.7173  25.8181
 20.7403  26.9777
 20.7632  27.7633
 20.7863  27.7245
 20.8093  26.9934
 20.8323  25.4368
 20.8553  24.6128
 20.8783  24.3182
 20.9013  24.2369
 20.9243  24.1946
 20.9473  24.181
 20.9703  24.0963
 20.9933  24.0943
 21.0163  24.1185
 21.0393  24.1279
 21.0622  24.0475
 21.0853  23.9762
 21.1083  23.9414
 21.1313  24.0203
 21.1543  23.9673
 21.1773  24.016
 21.2003  24.0527
 21.2233  24.0318
 21.2462  24.0564
 21.2693  24.0961
 21.2923  24.1112
 21.3152  24.0846
 21.3383  24.0649
 21.3613  24.1408
 21.3843  24.1523
 21.4073  24.1275
 21.4303  24.0961
 21.4533  24.0746
 21.4763  24.1237
 21.4992  24.134
 21.5223  24.1044
 21.5453  24.1395
 21.5683  24.1478
 21.5913  24.1583
 21.6142  24.163
 21.6373  24.2191
 21.6603  24.2584
 21.6833  24.2492
 21.7063  24.1421
 21.7293  24.1978
 21.7523  24.2581
 21.7753  24.274
 21.7982  24.3435
 21.8213  24.3711
 21.8443  24.2357
 21.8672  24.1781
 21.8903  24.161
 21.9133  24.2038
 21.9363  24.2708
 21.9593  24.3104
 21.9823  24.3489
 22.0053  24.3753
 22.0283  24.4131
 22.0512  24.4466
 22.0743  24.3991
 22.0973  24.3515
 22.1203  24.366
 22.1433  24.4656
 22.1663  24.5088
 22.1893  24.4381
 22.2123  24.3937
 22.2353  24.5191
 22.2583  24.538
 22.2813  24.4779
 22.3043  24.5762
 22.3273  24.5784
 22.3502  24.5813
 22.3733  24.5635
 22.3963  24.5741
 22.4193  24.6026
 22.4423  24.7968
 22.4653  24.8418
 22.4883  24.8425
 22.5113  24.9048
 22.5343  24.9282
 22.5573  24.957
 22.5803  24.9925
 22.6033  25.0883
 22.6263  25.1707
 22.6493  25.1404
 22.6723  25.1156
 22.6953  25.2187
 22.7183  25.3418
 22.7413  25.2889
 22.7643  25.3493
 22.7873  25.3706
 22.8103  25.5293
 22.8333  25.6095
 22.8563  25.6852
 22.8793  25.8204
 22.9022  25.9143
 22.9253  26.154
 22.9483  26.2097
 22.9713  26.2438
 22.9943  26.34