File: test-data-xrd/xrd-map-34-ID-E/Data_0085.chi
F:\20151113_APS_34IDE\\Brian\Particle1\OCV\Data_0085.tif
2-Theta Angle (Degrees)
Intensity
       2000
 0.01725  0.0000000E+00
 0.04025  0.0000000E+00
 0.06325  0.0000000E+00
 0.08625  0.0000000E+00
 0.10925  0.0000000E+00
 0.13225  0.0000000E+00
 0.15525  0.0000000E+00
 0.17825  0.0000000E+00
 0.20125  0.0000000E+00
 0.22425  0.0000000E+00
 0.24725  0.0000000E+00
 0.27025  0.0000000E+00
 0.29325  0.0000000E+00
 0.31625  0.0000000E+00
 0.33925  0.0000000E+00
 0.36225  0.0000000E+00
 0.38525  0.0000000E+00
 0.40825  0.0000000E+00
 0.43125  0.0000000E+00
 0.45425  0.0000000E+00
 0.47725  0.0000000E+00
 0.50025  0.0000000E+00
 0.52325  0.0000000E+00
 0.54625  0.0000000E+00
 0.56925  0.0000000E+00
 0.59225  0.0000000E+00
 0.61525  0.0000000E+00
 0.63825  0.0000000E+00
 0.66125  0.0000000E+00
 0.68425  0.0000000E+00
 0.70725  0.0000000E+00
 0.73025  0.0000000E+00
 0.75325  0.0000000E+00
 0.77625  0.0000000E+00
 0.79925  0.0000000E+00
 0.82225  0.0000000E+00
 0.84525  0.0000000E+00
 0.86825  0.0000000E+00
 0.89125  0.0000000E+00
 0.91425  0.0000000E+00
 0.93725  0.0000000E+00
 0.96025  0.0000000E+00
 0.98325  0.0000000E+00
 1.00625  0.0000000E+00
 1.02925  0.0000000E+00
 1.05225  0.0000000E+00
 1.07525  0.0000000E+00
 1.09825  0.0000000E+00
 1.12125  0.0000000E+00
 1.14425  0.0000000E+00
 1.16725  0.0000000E+00
 1.19025  0.0000000E+00
 1.21325  0.0000000E+00
 1.23625  0.0000000E+00
 1.25925  0.0000000E+00
 1.28225  0.0000000E+00
 1.30525  0.0000000E+00
 1.32825  0.0000000E+00
 1.35125  0.0000000E+00
 1.37425  0.0000000E+00
 1.39725  0.0000000E+00
 1.42025  0.0000000E+00
 1.44325  0.0000000E+00
 1.46625  0.0000000E+00
 1.48925  0.0000000E+00
 1.51225  0.0000000E+00
 1.53525  0.0000000E+00
 1.55825  0.0000000E+00
 1.58125  0.0000000E+00
 1.60425  0.0000000E+00
 1.62725  0.0000000E+00
 1.65025  0.0000000E+00
 1.67325  0.0000000E+00
 1.69625  0.0000000E+00
 1.71925  0.0000000E+00
 1.74225  0.0000000E+00
 1.76525  0.0000000E+00
 1.78825  0.0000000E+00
 1.81125  0.0000000E+00
 1.83425  0.0000000E+00
 1.85725  0.0000000E+00
 1.88025  0.0000000E+00
 1.90325  0.0000000E+00
 1.92625  0.0000000E+00
 1.94925  0.0000000E+00
 1.97225  0.0000000E+00
 1.99525  0.0000000E+00
 2.01825  0.0000000E+00
 2.04125  0.0000000E+00
 2.06425  0.0000000E+00
 2.08725  0.0000000E+00
 2.11025  0.0000000E+00
 2.13325  0.0000000E+00
 2.15625  0.0000000E+00
 2.17925  0.0000000E+00
 2.20225  0.0000000E+00
 2.22525  0.0000000E+00
 2.24825  0.0000000E+00
 2.27125  0.0000000E+00
 2.29425  0.0000000E+00
 2.31725  0.0000000E+00
 2.34025  0.0000000E+00
 2.36325  0.0000000E+00
 2.38625  0.0000000E+00
 2.40925  0.0000000E+00
 2.43225  0.0000000E+00
 2.45525  0.0000000E+00
 2.47825  0.0000000E+00
 2.50125  0.0000000E+00
 2.52425  0.0000000E+00
 2.54725  0.0000000E+00
 2.57025  0.0000000E+00
 2.59325  0.0000000E+00
 2.61625  0.0000000E+00
 2.63925  0.0000000E+00
 2.66225  0.0000000E+00
 2.68525  0.0000000E+00
 2.70825  0.0000000E+00
 2.73125  0.0000000E+00
 2.75425  0.0000000E+00
 2.77725  0.0000000E+00
 2.80025  0.0000000E+00
 2.82325  32.1831
 2.84625  34.1746
 2.86925  35.7172
 2.89225  35.6757
 2.91525  34.9424
 2.93825  34.7528
 2.96125  34.9745
 2.98425  34.897
 3.00725  35.3917
 3.03025  35.7155
 3.05325  35.3375
 3.07625  34.8685
 3.09925  35.215
 3.12225  35.3484
 3.14525  36.0159
 3.16825  35.7744
 3.19125  35.9592
 3.21425  35.7443
 3.23725  35.3642
 3.26025  35.2187
 3.28325  34.811
 3.30625  34.6185
 3.32925  35.1063
 3.35225  34.9343
 3.37525  34.8077
 3.39825  34.8362
 3.42125  34.4008
 3.44425  34.1998
 3.46725  34.4519
 3.49025  34.6909
 3.51325  34.5344
 3.53625  34.0387
 3.55925  33.6007
 3.58225  33.7441
 3.60525  33.3244
 3.62825  32.791
 3.65125  32.9532
 3.67425  33.0957
 3.69725  32.9523
 3.72025  32.6525
 3.74325  32.4453
 3.76625  32.5054
 3.78925  32.7856
 3.81225  33.0156
 3.83525  33.4023
 3.85825  33.2585
 3.88125  33.1093
 3.90425  32.7045
 3.92725  32.5613
 3.95025  32.6123
 3.97325  32.7049
 3.99625  32.4377
 4.01925  32.3099
 4.04225  32.6479
 4.06525  33.0204
 4.08825  32.9216
 4.11125  32.5465
 4.13425  32.3417
 4.15725  32.3998
 4.18025  32.3345
 4.20325  32.2386
 4.22625  32.2349
 4.24925  32.1848
 4.27225  32.1026
 4.29525  32.3054
 4.31825  32.6653
 4.34125  32.9539
 4.36425  32.8031
 4.38725  32.6739
 4.41025  32.8434
 4.43325  32.7294
 4.45625  32.6607
 4.47925  32.6923
 4.50225  32.6997
 4.52525  32.9106
 4.54825  33.0079
 4.57125  33.0182
 4.59425  32.8116
 4.61725  32.7045
 4.64025  32.6574
 4.66325  32.5732
 4.68625  32.6974
 4.70925  32.7816
 4.73225  32.6559
 4.75525  32.3921
 4.77825  32.3293
 4.80125  32.2072
 4.82425  32.2164
 4.84725  32.3551
 4.87025  32.7716
 4.89325  32.8613
 4.91625  32.9837
 4.93925  33.0025
 4.96225  33.0387
 4.98525  33.2426
 5.00825  33.4226
 5.03125  33.442
 5.05425  33.2723
 5.07725  33.2363
 5.10025  33.1979
 5.12325  33.3702
 5.14625  33.8641
 5.16925  34.1097
 5.19225  34.1665
 5.21525  34.0868
 5.23825  34.0296
 5.26125  34.3116
 5.28425  34.2076
 5.30725  34.3136
 5.33025  34.3489
 5.35325  34.4473
 5.37625  34.659
 5.39925  34.8185
 5.42225  34.7871
 5.44525  34.8716
 5.46825  34.9552
 5.49125  34.9947
 5.51425  35.0714
 5.53725  34.9124
 5.56025  34.9326
 5.58325  35.1805
 5.60625  35.3068
 5.62925  35.438
 5.65225  35.4699
 5.67525  35.6205
 5.69825  35.8494
 5.72125  36.0311
 5.74425  36.1065
 5.76725  36.0786
 5.79025  36.0067
 5.81325  36.0413
 5.83625  36.1424
 5.85925  36.329
 5.88225  36.619
 5.90525  37.3759
 5.92825  39.2683
 5.95125  45.1358
 5.97425  50.9118
 5.99725  56.7227
 6.02025  51.6861
 6.04325  45.1504
 6.06625  38.9779
 6.08925  37.7846
 6.11225  37.5231
 6.13525  37.3157
 6.15825  37.0301
 6.18125  37.0623
 6.20425  37.1376
 6.22725  37.3526
 6.25025  37.4375
 6.27325  37.6758
 6.29625  37.7183
 6.31925  37.7715
 6.34225  37.9505
 6.36525  38.2437
 6.38825  38.5233
 6.41125  38.7086
 6.43425  38.776
 6.45725  38.8088
 6.48025  38.7469
 6.50325  38.9642
 6.52625  39.2047
 6.54925  39.4779
 6.57225  39.6288
 6.59525  39.5793
 6.61825  39.6415
 6.64125  39.8335
 6.66425  40.1501
 6.68725  40.2666
 6.71025  40.3633
 6.73325  40.6335
 6.75625  40.9056
 6.77925  41.2264
 6.80225  41.4462
 6.82525  41.6554
 6.84825  41.7607
 6.87125  41.8985
 6.89425  41.9891
 6.91725  42.0275
 6.94025  41.8524
 6.96325  41.9394
 6.98625  42.2044
 7.00925  42.509
 7.03225  42.6015
 7.05525  42.851
 7.07825  42.8498
 7.10125  42.9332
 7.12425  43.2234
 7.14725  43.4771
 7.17025  43.4788
 7.19325  43.6209
 7.21625  43.7715
 7.23925  43.6911
 7.26225  43.6102
 7.28525  43.7452
 7.30825  43.9128
 7.33125  44.0924
 7.35425  43.9751
 7.37725  44.0164
 7.40025  44.0888
 7.42325  44.36
 7.44625  44.447
 7.46925  44.4311
 7.49225  44.4416
 7.51525  44.6074
 7.53825  44.7228
 7.56125  44.7268
 7.58425  44.6563
 7.60725  44.6636
 7.63025  44.6004
 7.65325  44.5455
 7.67625  44.4218
 7.69925  44.2634
 7.72225  44.293
 7.74525  44.2511
 7.76825  44.2337
 7.79125  44.2269
 7.81425  44.2649
 7.83725  44.2474
 7.86025  44.1695
 7.88325  44.0871
 7.90625  43.9061
 7.92925  43.7729
 7.95225  43.8392
 7.97525  43.8057
 7.99825  43.7339
 8.02125  43.5169
 8.04425  43.1448
 8.06725  42.9861
 8.09025  42.9693
 8.11325  42.888
 8.13625  42.5675
 8.15925  42.3775
 8.18225  42.237
 8.20525  42.0751
 8.22825  41.8876
 8.25125  41.689
 8.27425  41.3262
 8.29725  41.0117
 8.32025  40.6198
 8.34325  40.3784
 8.36625  40.1561
 8.38925  39.8867
 8.41225  39.6193
 8.43525  39.2545
 8.45825  38.7733
 8.48125  38.3909
 8.50425  38.104
 8.52725  37.9582
 8.55025  37.5524
 8.57325  37.1965
 8.59625  36.7446
 8.61925  36.3861
 8.64225  36.032
 8.66525  35.6856
 8.68825  35.3496
 8.71125  34.9623
 8.73425  34.4379
 8.75725  34.028
 8.78025  33.7134
 8.80325  33.4419
 8.82625  33.1846
 8.84925  32.9991
 8.87225  32.8462
 8.89525  32.5013
 8.91825  32.1813
 8.94125  31.8981
 8.96425  31.5485
 8.98725  31.0474
 9.01025  30.6965
 9.03325  30.5312
 9.05625  30.4211
 9.07925  30.2622
 9.10225  30.0021
 9.12525  29.6785
 9.14825  29.4021
 9.17125  29.1558
 9.19425  28.8753
 9.21725  28.6859
 9.24025  28.5152
 9.26325  28.3313
 9.28625  28.1707
 9.30925  27.9206
 9.33225  27.6514
 9.35525  27.3975
 9.37825  27.263
 9.40125  27.2569
 9.42425  27.1122
 9.44725  26.8725
 9.47025  26.7082
 9.49325  26.6497
 9.51625  26.3942
 9.53925  26.263
 9.56225  25.99
 9.58525  25.8395
 9.60825  25.9296
 9.63125  25.9669
 9.65425  25.7226
 9.67725  25.5069
 9.70025  25.4376
 9.72325  25.5258
 9.74625  25.5368
 9.76925  25.3513
 9.79225  25.1613
 9.81525  24.9945
 9.83825  24.9907
 9.86125  25.043
 9.88425  24.9103
 9.90725  24.8011
 9.93025  24.6585
 9.95325  24.5381
 9.97625  24.5485
 9.99925  24.536
 10.0222  24.5083
 10.0453  24.3571
 10.0683  24.2251
 10.0913  24.2151
 10.1143  24.1447
 10.1373  24.0752
 10.1603  24.1565
 10.1832  24.2068
 10.2063  24.0674
 10.2293  23.9673
 10.2523  23.8286
 10.2752  23.7897
 10.2982  23.8152
 10.3213  23.7665
 10.3443  23.6887
 10.3673  23.6868
 10.3902  23.6605
 10.4133  23.5199
 10.4363  23.4169
 10.4593  23.3863
 10.4823  23.4353
 10.5053  23.4386
 10.5283  23.426
 10.5512  23.311
 10.5742  23.2849
 10.5973  23.1639
 10.6203  23.174
 10.6433  23.1285
 10.6662  23.0927
 10.6893  23.0891
 10.7123  23.0952
 10.7353  23.0192
 10.7583  22.9466
 10.7813  22.9098
 10.8043  22.9621
 10.8272  22.9759
 10.8503  22.9649
 10.8733  22.9593
 10.8963  22.8488
 10.9192  22.8557
 10.9422  22.8869
 10.9653  22.8592
 10.9883  22.844
 11.0113  22.7898
 11.0343  22.6331
 11.0573  22.5268
 11.0803  22.492
 11.1033  22.5235
 11.1263  22.6854
 11.1493  22.7082
 11.1723  22.7219
 11.1953  22.6962
 11.2182  22.6143
 11.2413  22.5271
 11.2643  22.5281
 11.2873  22.5492
 11.3102  22.6344
 11.3333  22.7479
 11.3563  22.7494
 11.3793  22.8499
 11.4023  22.9892
 11.4253  22.9955
 11.4483  22.9757
 11.4713  23.1356
 11.4942  23.494
 11.5173  24.6872
 11.5403  27.8157
 11.5633  31.7941
 11.5862  34.1529
 11.6093  31.9543
 11.6323  28.5356
 11.6553  25.441
 11.6783  23.5986
 11.7013  23.0222
 11.7243  22.7368
 11.7473  22.6859
 11.7703  22.7183
 11.7933  22.6708
 11.8163  22.715
 11.8393  22.7486
 11.8622  22.7113
 11.8853  22.8099
 11.9083  22.7032
 11.9313  22.7634
 11.9543  22.8938
 11.9773  23.0144
 12.0003  23.1154
 12.0233  23.1871
 12.0463  23.4423
 12.0693  24.3384
 12.0923  25.2162
 12.1153  25.3094
 12.1382  24.3521
 12.1613  23.3175
 12.1843  22.8454
 12.2073  22.7716
 12.2302  22.828
 12.2533  22.7791
 12.2763  22.6769
 12.2993  22.696
 12.3223  22.7503
 12.3453  22.6878
 12.3683  22.6321
 12.3913  22.6325
 12.4142  22.6388
 12.4373  22.7328
 12.4603  22.7685
 12.4833  22.726
 12.5062  22.7481
 12.5292  22.8339
 12.5523  22.9623
 12.5753  23.0002
 12.5983  22.9549
 12.6212  22.9268
 12.6443  22.8977
 12.6673  22.8988
 12.6903  22.9277
 12.7133  23.0132
 12.7363  23.0467
 12.7593  23.0629
 12.7822  23.1008
 12.8052  23.1764
 12.8283  23.1903
 12.8513  23.3138
 12.8742  23.4485
 12.8972  23.6862
 12.9203  23.7968
 12.9433  23.8389
 12.9663  23.9665
 12.9893  24.0747
 13.0123  24.1572
 13.0353  24.2631
 13.0582  24.3753
 13.0813  24.554
 13.1043  24.7929
 13.1273  25.0493
 13.1502  25.2731
 13.1732  25.6231
 13.1963  25.8881
 13.2193  26.1534
 13.2423  26.4768
 13.2652  26.819
 13.2883  27.2092
 13.3113  27.3806
 13.3343  27.6342
 13.3573  27.979
 13.3803  28.2315
 13.4033  28.535
 13.4262  28.7473
 13.4492  28.9218
 13.4723  29.0781
 13.4953  29.2411
 13.5183  29.4214
 13.5412  29.6861
 13.5643  29.7922
 13.5873  29.8876
 13.6103  29.9587
 13.6333  30.0112
 13.6563  30.0435
 13.6793  30.001
 13.7022  29.8595
 13.7253  29.809
 13.7483  29.8487
 13.7713  29.8904
 13.7942  29.883
 13.8172  30.0246
 13.8403  30.219
 13.8633  30.8192
 13.8863  32.3601
 13.9093  36.8938
 13.9323  47.1066
 13.9553  60.7443
 13.9783  64.4366
 14.0013  49.209
 14.0243  36.0447
 14.0473  30.8535
 14.0703  29.1941
 14.0932  28.5503
 14.1163  28.0947
 14.1393  27.7607
 14.1623  27.5549
 14.1852  27.3726
 14.2083  27.1238
 14.2313  26.8355
 14.2543  26.797
 14.2773  26.7253
 14.3003  26.6132
 14.3233  26.313
 14.3463  26.2314
 14.3692  26.345
 14.3923  26.3002
 14.4153  26.1855
 14.4383  26.0032
 14.4612  25.8705
 14.4843  25.7747
 14.5073  25.7493
 14.5303  25.6284
 14.5533  25.6169
 14.5763  25.6159
 14.5993  25.4891
 14.6223  25.4524
 14.6453  25.5564
 14.6683  25.5055
 14.6913  25.4153
 14.7143  25.3572
 14.7372  25.316
 14.7603  25.2054
 14.7833  25.0913
 14.8063  25.0993
 14.8293  25.1371
 14.8523  25.1839
 14.8753  25.1366
 14.8983  25.171
 14.9213  25.113
 14.9443  25.0691
 14.9673  25.0628
 14.9903  24.9727
 15.0132  24.9977
 15.0363  25.0386
 15.0593  25.0545
 15.0823  25.2034
 15.1052  25.4708
 15.1283  26.3996
 15.1513  28.7735
 15.1743  32.5811
 15.1973  34.0621
 15.2203  31.4362
 15.2433  28.0269
 15.2663  26.0917
 15.2892  25.2523
 15.3123  24.9926
 15.3353  24.912
 15.3583  24.8649
 15.3812  24.8514
 15.4043  24.8305
 15.4273  24.8345
 15.4503  24.7779
 15.4733  24.6968
 15.4963  24.6894
 15.5193  24.7193
 15.5423  24.7701
 15.5653  24.719
 15.5883  24.6537
 15.6113  24.6443
 15.6343  24.6284
 15.6572  24.7012
 15.6803  24.7131
 15.7033  24.7197
 15.7263  24.78
 15.7492  24.6987
 15.7723  24.7325
 15.7953  24.7262
 15.8183  24.6944
 15.8413  24.656
 15.8643  24.7633
 15.8873  24.7752
 15.9103  24.7253
 15.9332  24.6287
 15.9563  24.5475
 15.9793  24.6659
 16.0023  24.7218
 16.0253  24.8087
 16.0482  24.8684
 16.0713  24.9107
 16.0943  24.9527
 16.1172  25.0613
 16.1403  25.0807
 16.1633  25.0715
 16.1863  25.0778
 16.2093  25.2063
 16.2323  25.3182
 16.2553  25.3897
 16.2783  25.4203
 16.3012  25.221
 16.3243  25.0118
 16.3472  24.8027
 16.3703  24.6223
 16.3933  24.6296
 16.4163  24.7592
 16.4393  24.7802
 16.4623  24.7516
 16.4853  24.8398
 16.5083  24.8917
 16.5312  24.7945
 16.5543  24.8065
 16.5773  24.7822
 16.6002  24.7685
 16.6233  24.7404
 16.6463  24.7233
 16.6693  24.6589
 16.6923  24.6089
 16.7153  24.6214
 16.7383  24.52
 16.7613  24.433
 16.7843  24.4292
 16.8073  24.4848
 16.8303  24.4466
 16.8533  24.4664
 16.8763  24.5345
 16.8992  24.4917
 16.9223  24.582
 16.9453  24.8407
 16.9683  24.6735
 16.9913  24.4692
 17.0143  24.4154
 17.0373  24.3681
 17.0603  24.2679
 17.0832  24.288
 17.1063  24.2961
 17.1293  24.2733
 17.1522  24.2491
 17.1753  24.2218
 17.1983  24.1821
 17.2213  24.128
 17.2443  24.1427
 17.2673  24.1014
 17.2903  24.0518
 17.3133  24.1783
 17.3362  24.2479
 17.3593  24.1674
 17.3823  24.1774
 17.4053  24.1202
 17.4283  24.021
 17.4513  23.9761
 17.4743  24.1261
 17.4973  24.1568
 17.5203  24.0312
 17.5433  23.9197
 17.5663  23.9076
 17.5893  23.8867
 17.6123  23.8904
 17.6352  23.923
 17.6583  23.8403
 17.6813  23.8916
 17.7042  23.8867
 17.7273  23.895
 17.7503  23.9673
 17.7733  24.0589
 17.7963  24.0849
 17.8193  23.9484
 17.8423  23.8486
 17.8653  23.8615
 17.8882  23.7959
 17.9113  23.8333
 17.9343  23.9887
 17.9573  24.0846
 17.9803  24.3655
 18.0033  25.035
 18.0263  25.564
 18.0493  25.5712
 18.0723  25.359
 18.0953  25.4404
 18.1183  25.3999
 18.1413  25.0282
 18.1643  24.6391
 18.1872  24.2833
 18.2103  24.0992
 18.2333  23.9681
 18.2563  23.8531
 18.2793  23.8754
 18.3023  23.8307
 18.3253  23.7991
 18.3483  23.7855
 18.3712  23.7295
 18.3943  23.734
 18.4173  23.7391
 18.4402  23.616
 18.4633  23.5933
 18.4863  23.6385
 18.5093  23.6785
 18.5323  23.6655
 18.5553  23.6421
 18.5783  23.61
 18.6013  23.6683
 18.6242  23.6456
 18.6473  23.5886
 18.6703  23.606
 18.6933  23.6002
 18.7163  23.6299
 18.7392  23.6614
 18.7623  23.6937
 18.7853  23.6608
 18.8083  23.6443
 18.8313  23.6529
 18.8543  23.6861
 18.8773  23.6232
 18.9003  23.6051
 18.9232  23.6741
 18.9463  23.8082
 18.9693  23.6455
 18.9922  23.5416
 19.0153  23.6106
 19.0383  23.6526
 19.0613  23.6355
 19.0843  23.7088
 19.1073  23.6778
 19.1303  23.6645
 19.1533  23.7564
 19.1762  23.7277
 19.1993  23.7517
 19.2223  23.8308
 19.2453  23.8376
 19.2683  23.8626
 19.2913  23.8338
 19.3143  23.9684
 19.3373  23.918
 19.3603  23.7899
 19.3833  23.7459
 19.4062  23.7435
 19.4293  23.7818
 19.4523  23.8233
 19.4752  23.8522
 19.4983  23.9036
 19.5213  23.9774
 19.5443  24.1102
 19.5673  24.143
 19.5903  24.2243
 19.6133  24.4932
 19.6363  25.1419
 19.6593  26.1783
 19.6823  27.819
 19.7053  29.4915
 19.7283  29.994
 19.7513  28.8593
 19.7742  28.1093
 19.7973  29.5318
 19.8203  34.4183
 19.8433  39.6346
 19.8663  40.0573
 19.8893  35.8859
 19.9123  30.1189
 19.9353  26.5924
 19.9582  25.2814
 19.9813  24.8265
 20.0043  24.5844
 20.0272  24.38
 20.0503  24.1955
 20.0733  24.0005
 20.0963  24.0319
 20.1193  24.0625
 20.1423  24.0707
 20.1653  24.0331
 20.1883  24.031
 20.2112  23.9417
 20.2343  23.932
 20.2573  23.9572
 20.2803  23.8564
 20.3033  23.6793
 20.3263  23.6663
 20.3493  23.7931
 20.3723  23.8516
 20.3953  23.8118
 20.4183  23.8091
 20.4413  23.8856
 20.4643  23.8793
 20.4873  23.8044
 20.5102  23.8326
 20.5333  23.8343
 20.5563  23.9196
 20.5792  23.9831
 20.6023  24.07
 20.6253  24.0558
 20.6483  24.0161
 20.6713  24.2461
 20.6943  24.7587
 20.7173  25.6219
 20.7403  26.4058
 20.7632  26.7305
 20.7863  26.1958
 20.8093  25.4001
 20.8323  24.6746
 20.8553  24.2913
 20.8783  24.1543
 20.9013  24.1092
 20.9243  24.26
 20.9473  24.2693
 20.9703  24.3505
 20.9933  24.309
 21.0163  24.1758
 21.0393  24.1386
 21.0622  24.0207
 21.0853  23.9374
 21.1083  24.0388
 21.1313  24.1309
 21.1543  24.0274
 21.1773  24.0684
 21.2003  24.0078
 21.2233  24.0319
 21.2462  24.0129
 21.2693  23.9724
 21.2923  24.0079
 21.3152  23.9486
 21.3383  23.86
 21.3613  23.9019
 21.3843  24.0009
 21.4073  24.0779
 21.4303  24.1095
 21.4533  24.0194
 21.4763  23.9657
 21.4992  24.0683
 21.5223  24.0494
 21.5453  24.0359
 21.5683  23.9583
 21.5913  24.0135
 21.6142  24.1267
 21.6373  24.2101
 21.6603  24.2612
 21.6833  24.2108
 21.7063  24.1309
 21.7293  24.2008
 21.7523  24.2185
 21.7753  24.155
 21.7982  24.1791
 21.8213  24.2186
 21.8443  24.1407
 21.8672  24.1528
 21.8903  24.1813
 21.9133  24.3137
 21.9363  24.3448
 21.9593  24.3456
 21.9823  24.3973
 22.0053  24.3106
 22.0283  24.3206
 22.0512  24.317
 22.0743  24.3214
 22.0973  24.3751
 22.1203  24.462
 22.1433  24.5276
 22.1663  24.4753
 22.1893  24.4354
 22.2123  24.4421
 22.2353  24.5609
 22.2583  24.6033
 22.2813  24.5356
 22.3043  24.5638
 22.3273  24.585
 22.3502  24.5174
 22.3733  24.5198
 22.3963  24.6165
 22.4193  24.616
 22.4423  24.811
 22.4653  24.7677
 22.4883  24.7137
 22.5113  24.7963
 22.5343  24.9198
 22.5573  24.9675
 22.5803  24.9678
 22.6033  24.9837
 22.6263  25.0813
 22.6493  25.1685
 22.6723  25.1667
 22.6953  25.2889
 22.7183  25.2306
 22.7413  25.2419
 22.7643  25.3238
 22.7873  25.3475
 22.8103  25.4699
 22.8333  25.54
 22.8563  25.5517
 22.8793  25.6516
 22.9022  25.8462
 22.9253  26.0884
 22.9483  26.182
 22.9713  26.4033
 22.9943  26.7532