File: test-data-xrd/xrd-map-34-ID-E/Data_0003.chi
F:\20151113_APS_34IDE\\Brian\Particle1\OCV\Data_0003.tif
2-Theta Angle (Degrees)
Intensity
       2000
 0.01725  0.0000000E+00
 0.04025  0.0000000E+00
 0.06325  0.0000000E+00
 0.08625  0.0000000E+00
 0.10925  0.0000000E+00
 0.13225  0.0000000E+00
 0.15525  0.0000000E+00
 0.17825  0.0000000E+00
 0.20125  0.0000000E+00
 0.22425  0.0000000E+00
 0.24725  0.0000000E+00
 0.27025  0.0000000E+00
 0.29325  0.0000000E+00
 0.31625  0.0000000E+00
 0.33925  0.0000000E+00
 0.36225  0.0000000E+00
 0.38525  0.0000000E+00
 0.40825  0.0000000E+00
 0.43125  0.0000000E+00
 0.45425  0.0000000E+00
 0.47725  0.0000000E+00
 0.50025  0.0000000E+00
 0.52325  0.0000000E+00
 0.54625  0.0000000E+00
 0.56925  0.0000000E+00
 0.59225  0.0000000E+00
 0.61525  0.0000000E+00
 0.63825  0.0000000E+00
 0.66125  0.0000000E+00
 0.68425  0.0000000E+00
 0.70725  0.0000000E+00
 0.73025  0.0000000E+00
 0.75325  0.0000000E+00
 0.77625  0.0000000E+00
 0.79925  0.0000000E+00
 0.82225  0.0000000E+00
 0.84525  0.0000000E+00
 0.86825  0.0000000E+00
 0.89125  0.0000000E+00
 0.91425  0.0000000E+00
 0.93725  0.0000000E+00
 0.96025  0.0000000E+00
 0.98325  0.0000000E+00
 1.00625  0.0000000E+00
 1.02925  0.0000000E+00
 1.05225  0.0000000E+00
 1.07525  0.0000000E+00
 1.09825  0.0000000E+00
 1.12125  0.0000000E+00
 1.14425  0.0000000E+00
 1.16725  0.0000000E+00
 1.19025  0.0000000E+00
 1.21325  0.0000000E+00
 1.23625  0.0000000E+00
 1.25925  0.0000000E+00
 1.28225  0.0000000E+00
 1.30525  0.0000000E+00
 1.32825  0.0000000E+00
 1.35125  0.0000000E+00
 1.37425  0.0000000E+00
 1.39725  0.0000000E+00
 1.42025  0.0000000E+00
 1.44325  0.0000000E+00
 1.46625  0.0000000E+00
 1.48925  0.0000000E+00
 1.51225  0.0000000E+00
 1.53525  0.0000000E+00
 1.55825  0.0000000E+00
 1.58125  0.0000000E+00
 1.60425  0.0000000E+00
 1.62725  0.0000000E+00
 1.65025  0.0000000E+00
 1.67325  0.0000000E+00
 1.69625  0.0000000E+00
 1.71925  0.0000000E+00
 1.74225  0.0000000E+00
 1.76525  0.0000000E+00
 1.78825  0.0000000E+00
 1.81125  0.0000000E+00
 1.83425  0.0000000E+00
 1.85725  0.0000000E+00
 1.88025  0.0000000E+00
 1.90325  0.0000000E+00
 1.92625  0.0000000E+00
 1.94925  0.0000000E+00
 1.97225  0.0000000E+00
 1.99525  0.0000000E+00
 2.01825  0.0000000E+00
 2.04125  0.0000000E+00
 2.06425  0.0000000E+00
 2.08725  0.0000000E+00
 2.11025  0.0000000E+00
 2.13325  0.0000000E+00
 2.15625  0.0000000E+00
 2.17925  0.0000000E+00
 2.20225  0.0000000E+00
 2.22525  0.0000000E+00
 2.24825  0.0000000E+00
 2.27125  0.0000000E+00
 2.29425  0.0000000E+00
 2.31725  0.0000000E+00
 2.34025  0.0000000E+00
 2.36325  0.0000000E+00
 2.38625  0.0000000E+00
 2.40925  0.0000000E+00
 2.43225  0.0000000E+00
 2.45525  0.0000000E+00
 2.47825  0.0000000E+00
 2.50125  0.0000000E+00
 2.52425  0.0000000E+00
 2.54725  0.0000000E+00
 2.57025  0.0000000E+00
 2.59325  0.0000000E+00
 2.61625  0.0000000E+00
 2.63925  0.0000000E+00
 2.66225  0.0000000E+00
 2.68525  0.0000000E+00
 2.70825  0.0000000E+00
 2.73125  0.0000000E+00
 2.75425  0.0000000E+00
 2.77725  0.0000000E+00
 2.80025  0.0000000E+00
 2.82325  32.1812
 2.84625  33.4756
 2.86925  34.4889
 2.89225  36.0848
 2.91525  35.9333
 2.93825  35.7629
 2.96125  35.6604
 2.98425  35.7724
 3.00725  35.7272
 3.03025  35.5481
 3.05325  36.1087
 3.07625  36.3546
 3.09925  36.1149
 3.12225  35.6663
 3.14525  35.6592
 3.16825  35.6261
 3.19125  35.5237
 3.21425  35.3302
 3.23725  35.2139
 3.26025  35.2763
 3.28325  35.0807
 3.30625  34.404
 3.32925  34.7394
 3.35225  35.0131
 3.37525  34.3486
 3.39825  33.9276
 3.42125  34.3159
 3.44425  34.5799
 3.46725  34.4217
 3.49025  34.3844
 3.51325  34.2129
 3.53625  34.107
 3.55925  34.0768
 3.58225  33.9931
 3.60525  33.8718
 3.62825  33.8026
 3.65125  33.7053
 3.67425  33.6421
 3.69725  33.2403
 3.72025  33.0585
 3.74325  33.0009
 3.76625  33.0472
 3.78925  33.0727
 3.81225  32.767
 3.83525  32.7361
 3.85825  32.8529
 3.88125  32.6918
 3.90425  32.0758
 3.92725  32.1498
 3.95025  32.5828
 3.97325  32.6484
 3.99625  32.5547
 4.01925  32.4099
 4.04225  32.4246
 4.06525  32.6858
 4.08825  32.6352
 4.11125  32.6682
 4.13425  32.8473
 4.15725  32.8657
 4.18025  32.569
 4.20325  32.4525
 4.22625  32.3627
 4.24925  32.3054
 4.27225  32.3399
 4.29525  32.5186
 4.31825  32.5631
 4.34125  32.3711
 4.36425  32.3607
 4.38725  32.3575
 4.41025  32.3558
 4.43325  32.4297
 4.45625  32.518
 4.47925  32.7026
 4.50225  32.7165
 4.52525  32.8777
 4.54825  32.8565
 4.57125  32.8267
 4.59425  32.9067
 4.61725  33.2073
 4.64025  33.3557
 4.66325  33.3661
 4.68625  33.1189
 4.70925  32.7912
 4.73225  32.4623
 4.75525  32.4332
 4.77825  32.6161
 4.80125  32.5839
 4.82425  32.4334
 4.84725  32.6815
 4.87025  33.0175
 4.89325  32.8356
 4.91625  32.8421
 4.93925  32.853
 4.96225  32.9766
 4.98525  33.2814
 5.00825  33.5003
 5.03125  33.7036
 5.05425  33.7279
 5.07725  33.492
 5.10025  33.6007
 5.12325  33.71
 5.14625  33.8494
 5.16925  33.9192
 5.19225  33.8693
 5.21525  34.145
 5.23825  34.1208
 5.26125  34.0199
 5.28425  33.9067
 5.30725  34.1207
 5.33025  34.351
 5.35325  34.4487
 5.37625  34.6205
 5.39925  34.8401
 5.42225  34.7964
 5.44525  34.7052
 5.46825  34.9205
 5.49125  35.0817
 5.51425  35.1188
 5.53725  34.9196
 5.56025  34.8753
 5.58325  35.0885
 5.60625  35.2796
 5.62925  35.2891
 5.65225  35.3251
 5.67525  35.3507
 5.69825  35.3874
 5.72125  35.4802
 5.74425  35.6988
 5.76725  35.887
 5.79025  36.1097
 5.81325  35.9659
 5.83625  36.005
 5.85925  35.9791
 5.88225  36.165
 5.90525  36.619
 5.92825  37.3232
 5.95125  38.8379
 5.97425  40.5759
 5.99725  40.4814
 6.02025  38.8831
 6.04325  37.2738
 6.06625  36.8428
 6.08925  37.0809
 6.11225  37.1369
 6.13525  37.0017
 6.15825  36.9397
 6.18125  37.1043
 6.20425  37.3427
 6.22725  37.592
 6.25025  37.6018
 6.27325  37.8153
 6.29625  37.9178
 6.31925  37.9596
 6.34225  38.0399
 6.36525  38.2541
 6.38825  38.4819
 6.41125  38.6873
 6.43425  39.0129
 6.45725  39.1137
 6.48025  39.3062
 6.50325  39.3169
 6.52625  39.386
 6.54925  39.5891
 6.57225  39.8524
 6.59525  39.9322
 6.61825  39.9782
 6.64125  40.1662
 6.66425  40.2695
 6.68725  40.4887
 6.71025  40.7119
 6.73325  40.9543
 6.75625  41.1985
 6.77925  41.3565
 6.80225  41.5253
 6.82525  41.8469
 6.84825  42.048
 6.87125  42.0574
 6.89425  42.2538
 6.91725  42.563
 6.94025  42.3458
 6.96325  42.2595
 6.98625  42.2853
 7.00925  42.5625
 7.03225  43.0042
 7.05525  43.1128
 7.07825  43.2355
 7.10125  43.4156
 7.12425  43.5636
 7.14725  43.674
 7.17025  43.828
 7.19325  43.8724
 7.21625  43.8379
 7.23925  43.7513
 7.26225  43.8611
 7.28525  43.9943
 7.30825  44.1877
 7.33125  44.4147
 7.35425  44.555
 7.37725  44.6038
 7.40025  44.7096
 7.42325  44.7025
 7.44625  44.5254
 7.46925  44.5424
 7.49225  44.6322
 7.51525  44.7531
 7.53825  44.7666
 7.56125  44.88
 7.58425  44.9341
 7.60725  45.0691
 7.63025  45.0758
 7.65325  44.9992
 7.67625  44.9187
 7.69925  44.9693
 7.72225  45.139
 7.74525  45.1967
 7.76825  44.9911
 7.79125  44.9259
 7.81425  44.8642
 7.83725  44.8903
 7.86025  44.9241
 7.88325  44.749
 7.90625  44.6466
 7.92925  44.5886
 7.95225  44.6145
 7.97525  44.4552
 7.99825  44.4146
 8.02125  44.2861
 8.04425  44.1207
 8.06725  43.787
 8.09025  43.5168
 8.11325  43.5032
 8.13625  43.4955
 8.15925  43.4747
 8.18225  43.2979
 8.20525  43.0353
 8.22825  42.6239
 8.25125  42.1717
 8.27425  41.8844
 8.29725  41.5601
 8.32025  41.1648
 8.34325  40.9442
 8.36625  40.7902
 8.38925  40.545
 8.41225  40.1705
 8.43525  39.8124
 8.45825  39.6398
 8.48125  39.2935
 8.50425  38.9178
 8.52725  38.3719
 8.55025  37.8336
 8.57325  37.5075
 8.59625  37.079
 8.61925  36.8556
 8.64225  36.7586
 8.66525  36.4471
 8.68825  36.0877
 8.71125  35.7381
 8.73425  35.3704
 8.75725  34.9581
 8.78025  34.622
 8.80325  34.2421
 8.82625  34.055
 8.84925  33.685
 8.87225  33.2842
 8.89525  33.0684
 8.91825  32.7603
 8.94125  32.3437
 8.96425  31.9839
 8.98725  31.6536
 9.01025  31.1974
 9.03325  31.0484
 9.05625  30.8735
 9.07925  30.5829
 9.10225  30.276
 9.12525  30.1521
 9.14825  29.9428
 9.17125  29.609
 9.19425  29.295
 9.21725  29.0105
 9.24025  28.712
 9.26325  28.6639
 9.28625  28.5465
 9.30925  28.4401
 9.33225  28.2634
 9.35525  28.0718
 9.37825  27.9509
 9.40125  27.7794
 9.42425  27.5769
 9.44725  27.3153
 9.47025  27.1894
 9.49325  27.2267
 9.51625  27.1127
 9.53925  26.9661
 9.56225  26.8231
 9.58525  26.7298
 9.60825  26.6734
 9.63125  26.4683
 9.65425  26.1989
 9.67725  25.966
 9.70025  25.8006
 9.72325  25.8524
 9.74625  25.8108
 9.76925  25.7915
 9.79225  25.6765
 9.81525  25.4503
 9.83825  25.2815
 9.86125  25.2625
 9.88425  25.1726
 9.90725  25.1806
 9.93025  25.2403
 9.95325  25.1747
 9.97625  25.0535
 9.99925  24.9143
 10.0222  24.7646
 10.0453  24.7346
 10.0683  24.648
 10.0913  24.4424
 10.1143  24.3312
 10.1373  24.387
 10.1603  24.5298
 10.1832  24.5066
 10.2063  24.3303
 10.2293  24.1218
 10.2523  24.0956
 10.2752  24.0723
 10.2982  24.126
 10.3213  24.1022
 10.3443  23.9857
 10.3673  23.8909
 10.3902  23.8706
 10.4133  23.8641
 10.4363  23.727
 10.4593  23.6505
 10.4823  23.7148
 10.5053  23.685
 10.5283  23.6766
 10.5512  23.6603
 10.5742  23.6583
 10.5973  23.5356
 10.6203  23.544
 10.6433  23.6051
 10.6662  23.5645
 10.6893  23.4005
 10.7123  23.2984
 10.7353  23.2435
 10.7583  23.3361
 10.7813  23.2838
 10.8043  23.2403
 10.8272  23.1882
 10.8503  23.1202
 10.8733  23.1092
 10.8963  23.0668
 10.9192  23.0304
 10.9422  23.1041
 10.9653  23.099
 10.9883  23.1925
 11.0113  23.1499
 11.0343  23.0563
 11.0573  22.9406
 11.0803  22.9459
 11.1033  22.994
 11.1263  22.8576
 11.1493  22.885
 11.1723  22.97
 11.1953  22.9193
 11.2182  22.9411
 11.2413  22.9009
 11.2643  22.8037
 11.2873  22.7558
 11.3102  22.833
 11.3333  22.8018
 11.3563  22.781
 11.3793  22.9897
 11.4023  23.2214
 11.4253  23.1316
 11.4483  23.0099
 11.4713  23.0683
 11.4942  23.1372
 11.5173  23.3655
 11.5403  23.9545
 11.5633  25.0987
 11.5862  26.3432
 11.6093  26.0716
 11.6323  24.9003
 11.6553  23.668
 11.6783  23.0855
 11.7013  22.8329
 11.7243  22.7506
 11.7473  22.7696
 11.7703  22.6588
 11.7933  22.6629
 11.8163  22.7637
 11.8393  22.7465
 11.8622  22.6881
 11.8853  22.6852
 11.9083  22.8034
 11.9313  22.8879
 11.9543  23.0617
 11.9773  23.2053
 12.0003  23.2323
 12.0233  23.1873
 12.0463  23.2336
 12.0693  23.3773
 12.0923  23.7185
 12.1153  23.6824
 12.1382  23.3838
 12.1613  23.1405
 12.1843  22.8984
 12.2073  22.8161
 12.2302  22.8496
 12.2533  22.8536
 12.2763  22.8117
 12.2993  22.832
 12.3223  22.8977
 12.3453  22.8729
 12.3683  22.9443
 12.3913  22.9025
 12.4142  22.8513
 12.4373  22.8671
 12.4603  22.8795
 12.4833  22.9419
 12.5062  22.9165
 12.5292  22.9757
 12.5523  23.0978
 12.5753  23.1223
 12.5983  23.1352
 12.6212  23.1734
 12.6443  23.4714
 12.6673  24.3572
 12.6903  24.2593
 12.7133  23.601
 12.7363  23.1686
 12.7593  23.2504
 12.7822  23.3526
 12.8052  23.4385
 12.8283  23.5069
 12.8513  23.5704
 12.8742  23.6277
 12.8972  23.6937
 12.9203  23.8379
 12.9433  24.044
 12.9663  24.26
 12.9893  24.4457
 13.0123  24.3819
 13.0353  24.4571
 13.0582  24.6256
 13.0813  24.8061
 13.1043  25.0864
 13.1273  25.3983
 13.1502  25.6216
 13.1732  25.7439
 13.1963  25.8858
 13.2193  26.2185
 13.2423  26.6088
 13.2652  26.8366
 13.2883  27.1316
 13.3113  27.3824
 13.3343  27.7865
 13.3573  28.1772
 13.3803  28.2726
 13.4033  28.4453
 13.4262  28.7777
 13.4492  29.0385
 13.4723  29.2771
 13.4953  29.5303
 13.5183  29.7083
 13.5412  29.8643
 13.5643  29.9515
 13.5873  30.1092
 13.6103  30.1514
 13.6333  30.1389
 13.6563  30.0104
 13.6793  30.1266
 13.7022  29.9998
 13.7253  29.8773
 13.7483  29.6614
 13.7713  29.55
 13.7942  29.5335
 13.8172  29.4971
 13.8403  29.3862
 13.8633  29.4463
 13.8863  29.6209
 13.9093  30.2075
 13.9323  31.344
 13.9553  32.2805
 13.9783  31.7524
 14.0013  30.2307
 14.0243  29.0783
 14.0473  28.4382
 14.0703  28.1446
 14.0932  27.965
 14.1163  27.7931
 14.1393  27.544
 14.1623  27.3552
 14.1852  27.1837
 14.2083  27.0509
 14.2313  26.9402
 14.2543  26.7993
 14.2773  26.6513
 14.3003  26.4969
 14.3233  26.4298
 14.3463  26.3842
 14.3692  26.3931
 14.3923  26.3987
 14.4153  26.2442
 14.4383  26.1448
 14.4612  26.0744
 14.4843  26.0214
 14.5073  26.0239
 14.5303  25.953
 14.5533  25.8321
 14.5763  25.8213
 14.5993  25.7969
 14.6223  25.6767
 14.6453  25.6157
 14.6683  25.5772
 14.6913  25.5949
 14.7143  25.5918
 14.7372  25.4601
 14.7603  25.344
 14.7833  25.3384
 14.8063  25.3036
 14.8293  25.2563
 14.8523  25.2528
 14.8753  25.1849
 14.8983  25.1841
 14.9213  25.2428
 14.9443  25.2396
 14.9673  25.1885
 14.9903  25.12
 15.0132  25.0928
 15.0363  25.0912
 15.0593  25.1124
 15.0823  25.1211
 15.1052  25.2296
 15.1283  25.2857
 15.1513  25.496
 15.1743  25.9409
 15.1973  26.1209
 15.2203  25.9244
 15.2433  25.4605
 15.2663  25.0509
 15.2892  25.0288
 15.3123  24.9859
 15.3353  24.8431
 15.3583  24.7097
 15.3812  24.7157
 15.4043  24.7812
 15.4273  24.8223
 15.4503  24.8903
 15.4733  24.7777
 15.4963  24.7439
 15.5193  24.8389
 15.5423  24.8782
 15.5653  24.9056
 15.5883  24.9563
 15.6113  24.887
 15.6343  24.8601
 15.6572  24.9273
 15.6803  24.913
 15.7033  24.8865
 15.7263  24.7845
 15.7492  24.7693
 15.7723  24.827
 15.7953  24.9084
 15.8183  24.8413
 15.8413  24.7987
 15.8643  24.7975
 15.8873  24.8553
 15.9103  24.8749
 15.9332  24.8375
 15.9563  24.8507
 15.9793  24.8958
 16.0023  24.921
 16.0253  24.9266
 16.0482  25.0873
 16.0713  25.0184
 16.0943  24.9971
 16.1172  25.0822
 16.1403  25.0813
 16.1633  25.3025
 16.1863  25.7086
 16.2093  26.4239
 16.2323  26.9939
 16.2553  27.2326
 16.2783  26.7745
 16.3012  25.8204
 16.3243  25.321
 16.3472  25.1123
 16.3703  24.9363
 16.3933  24.9681
 16.4163  25.1066
 16.4393  25.1022
 16.4623  24.9688
 16.4853  24.9637
 16.5083  24.9658
 16.5312  24.9223
 16.5543  24.8851
 16.5773  24.8097
 16.6002  24.8571
 16.6233  24.7961
 16.6463  24.7239
 16.6693  24.8119
 16.6923  24.8735
 16.7153  24.8262
 16.7383  24.7971
 16.7613  24.8927
 16.7843  24.8811
 16.8073  24.8935
 16.8303  24.7832
 16.8533  24.667
 16.8763  24.6572
 16.8992  24.6467
 16.9223  24.7143
 16.9453  24.6157
 16.9683  24.6582
 16.9913  24.7691
 17.0143  24.7197
 17.0373  24.6281
 17.0603  24.5745
 17.0832  24.6308
 17.1063  24.6664
 17.1293  24.5619
 17.1522  24.5282
 17.1753  24.4697
 17.1983  24.4873
 17.2213  24.4846
 17.2443  24.4281
 17.2673  24.3689
 17.2903  24.2976
 17.3133  24.3598
 17.3362  24.299
 17.3593  24.3081
 17.3823  24.3145
 17.4053  24.299
 17.4283  24.2839
 17.4513  24.2417
 17.4743  24.2932
 17.4973  24.2852
 17.5203  24.2392
 17.5433  24.2701
 17.5663  24.1898
 17.5893  24.1103
 17.6123  24.1672
 17.6352  24.2081
 17.6583  24.1248
 17.6813  24.0724
 17.7042  24.1284
 17.7273  23.9836
 17.7503  23.8944
 17.7733  23.9814
 17.7963  24.1257
 17.8193  24.0653
 17.8423  24.0229
 17.8653  24.0644
 17.8882  24.0536
 17.9113  24.0039
 17.9343  24.0758
 17.9573  24.0421
 17.9803  24.0711
 18.0033  24.148
 18.0263  24.181
 18.0493  24.4169
 18.0723  24.7609
 18.0953  24.9469
 18.1183  24.7688
 18.1413  24.51
 18.1643  24.7879
 18.1872  25.0959
 18.2103  24.5336
 18.2333  23.8993
 18.2563  23.8945
 18.2793  23.8887
 18.3023  23.872
 18.3253  23.8624
 18.3483  23.9039
 18.3712  23.9358
 18.3943  23.8996
 18.4173  23.8815
 18.4402  23.8324
 18.4633  23.8154
 18.4863  23.7805
 18.5093  23.8268
 18.5323  23.8117
 18.5553  23.7076
 18.5783  23.7819
 18.6013  23.844
 18.6242  23.766
 18.6473  23.7562
 18.6703  23.7251
 18.6933  23.8033
 18.7163  23.8317
 18.7392  23.8125
 18.7623  23.8048
 18.7853  23.7046
 18.8083  23.6349
 18.8313  23.6603
 18.8543  23.7678
 18.8773  23.8396
 18.9003  23.8321
 18.9232  23.8871
 18.9463  23.9393
 18.9693  23.8168
 18.9922  23.7164
 19.0153  23.7547
 19.0383  23.8673
 19.0613  23.8575
 19.0843  23.8804
 19.1073  23.7964
 19.1303  23.7836
 19.1533  23.8054
 19.1762  23.7221
 19.1993  23.6753
 19.2223  23.7289
 19.2453  23.8221
 19.2683  23.8514
 19.2913  23.8312
 19.3143  23.8745
 19.3373  23.9227
 19.3603  23.8952
 19.3833  23.9013
 19.4062  23.9522
 19.4293  23.937
 19.4523  23.8931
 19.4752  23.9621
 19.4983  23.943
 19.5213  23.9999
 19.5443  24.0147
 19.5673  23.9889
 19.5903  24.0354
 19.6133  24.1147
 19.6363  24.1686
 19.6593  24.4992
 19.6823  24.9053
 19.7053  25.371
 19.7283  25.2778
 19.7513  24.8809
 19.7742  24.6787
 19.7973  24.6118
 19.8203  24.8406
 19.8433  25.2296
 19.8663  25.1783
 19.8893  24.8043
 19.9123  24.4861
 19.9353  24.2263
 19.9582  24.1308
 19.9813  24.073
 20.0043  24.0139
 20.0272  23.9775
 20.0503  24.0275
 20.0733  24.0181
 20.0963  23.9818
 20.1193  24.0222
 20.1423  23.9775
 20.1653  23.8778
 20.1883  23.8895
 20.2112  24.0614
 20.2343  24.1297
 20.2573  23.9935
 20.2803  23.96
 20.3033  23.9113
 20.3263  23.8831
 20.3493  23.944
 20.3723  23.9505
 20.3953  23.993
 20.4183  24.019
 20.4413  24.0316
 20.4643  23.9665
 20.4873  23.95
 20.5102  23.9065
 20.5333  23.8537
 20.5563  23.9036
 20.5792  23.9907
 20.6023  24.1121
 20.6253  24.091
 20.6483  24.1585
 20.6713  24.1493
 20.6943  24.2874
 20.7173  24.5581
 20.7403  24.7415
 20.7632  25.0246
 20.7863  25.0033
 20.8093  24.7381
 20.8323  24.4108
 20.8553  24.2434
 20.8783  24.1705
 20.9013  24.1969
 20.9243  24.227
 20.9473  24.2325
 20.9703  24.0878
 20.9933  24.0393
 21.0163  24.0183
 21.0393  24.0724
 21.0622  24.1785
 21.0853  24.2515
 21.1083  24.2149
 21.1313  24.2199
 21.1543  24.1187
 21.1773  24.056
 21.2003  24.0957
 21.2233  24.0482
 21.2462  24.0868
 21.2693  24.1239
 21.2923  24.152
 21.3152  24.2049
 21.3383  24.1945
 21.3613  24.2064
 21.3843  24.3253
 21.4073  24.3082
 21.4303  24.2642
 21.4533  24.1647
 21.4763  24.1789
 21.4992  24.2477
 21.5223  24.219
 21.5453  24.1947
 21.5683  24.2156
 21.5913  24.3753
 21.6142  24.4439
 21.6373  24.5052
 21.6603  24.4959
 21.6833  24.5655
 21.7063  24.4021
 21.7293  24.3004
 21.7523  24.2522
 21.7753  24.246
 21.7982  24.3785
 21.8213  24.4435
 21.8443  24.4568
 21.8672  24.5157
 21.8903  24.4315
 21.9133  24.4449
 21.9363  24.5198
 21.9593  24.5606
 21.9823  24.5487
 22.0053  24.5065
 22.0283  24.5338
 22.0512  24.5188
 22.0743  24.5912
 22.0973  24.5663
 22.1203  24.5639
 22.1433  24.7089
 22.1663  24.7361
 22.1893  24.6323
 22.2123  24.668
 22.2353  24.7285
 22.2583  24.6529
 22.2813  24.579
 22.3043  24.7393
 22.3273  24.7847
 22.3502  24.7342
 22.3733  24.7146
 22.3963  24.6307
 22.4193  24.6205
 22.4423  24.7869
 22.4653  24.8503
 22.4883  24.8208
 22.5113  24.8557
 22.5343  24.955
 22.5573  25.0029
 22.5803  25.0028
 22.6033  25.052
 22.6263  25.1433
 22.6493  25.2276
 22.6723  25.2334
 22.6953  25.3718
 22.7183  25.448
 22.7413  25.4846
 22.7643  25.5471
 22.7873  25.5289
 22.8103  25.6182
 22.8333  25.685
 22.8563  25.7263
 22.8793  25.7787
 22.9022  25.8284
 22.9253  26.0674
 22.9483  26.2818
 22.9713  26.3696
 22.9943  26.52