File: test-data-xrd/xrd-map-34-ID-E/Data_0017.chi
F:\20151113_APS_34IDE\\Brian\Particle1\OCV\Data_0017.tif
2-Theta Angle (Degrees)
Intensity
       2000
 0.01725  0.0000000E+00
 0.04025  0.0000000E+00
 0.06325  0.0000000E+00
 0.08625  0.0000000E+00
 0.10925  0.0000000E+00
 0.13225  0.0000000E+00
 0.15525  0.0000000E+00
 0.17825  0.0000000E+00
 0.20125  0.0000000E+00
 0.22425  0.0000000E+00
 0.24725  0.0000000E+00
 0.27025  0.0000000E+00
 0.29325  0.0000000E+00
 0.31625  0.0000000E+00
 0.33925  0.0000000E+00
 0.36225  0.0000000E+00
 0.38525  0.0000000E+00
 0.40825  0.0000000E+00
 0.43125  0.0000000E+00
 0.45425  0.0000000E+00
 0.47725  0.0000000E+00
 0.50025  0.0000000E+00
 0.52325  0.0000000E+00
 0.54625  0.0000000E+00
 0.56925  0.0000000E+00
 0.59225  0.0000000E+00
 0.61525  0.0000000E+00
 0.63825  0.0000000E+00
 0.66125  0.0000000E+00
 0.68425  0.0000000E+00
 0.70725  0.0000000E+00
 0.73025  0.0000000E+00
 0.75325  0.0000000E+00
 0.77625  0.0000000E+00
 0.79925  0.0000000E+00
 0.82225  0.0000000E+00
 0.84525  0.0000000E+00
 0.86825  0.0000000E+00
 0.89125  0.0000000E+00
 0.91425  0.0000000E+00
 0.93725  0.0000000E+00
 0.96025  0.0000000E+00
 0.98325  0.0000000E+00
 1.00625  0.0000000E+00
 1.02925  0.0000000E+00
 1.05225  0.0000000E+00
 1.07525  0.0000000E+00
 1.09825  0.0000000E+00
 1.12125  0.0000000E+00
 1.14425  0.0000000E+00
 1.16725  0.0000000E+00
 1.19025  0.0000000E+00
 1.21325  0.0000000E+00
 1.23625  0.0000000E+00
 1.25925  0.0000000E+00
 1.28225  0.0000000E+00
 1.30525  0.0000000E+00
 1.32825  0.0000000E+00
 1.35125  0.0000000E+00
 1.37425  0.0000000E+00
 1.39725  0.0000000E+00
 1.42025  0.0000000E+00
 1.44325  0.0000000E+00
 1.46625  0.0000000E+00
 1.48925  0.0000000E+00
 1.51225  0.0000000E+00
 1.53525  0.0000000E+00
 1.55825  0.0000000E+00
 1.58125  0.0000000E+00
 1.60425  0.0000000E+00
 1.62725  0.0000000E+00
 1.65025  0.0000000E+00
 1.67325  0.0000000E+00
 1.69625  0.0000000E+00
 1.71925  0.0000000E+00
 1.74225  0.0000000E+00
 1.76525  0.0000000E+00
 1.78825  0.0000000E+00
 1.81125  0.0000000E+00
 1.83425  0.0000000E+00
 1.85725  0.0000000E+00
 1.88025  0.0000000E+00
 1.90325  0.0000000E+00
 1.92625  0.0000000E+00
 1.94925  0.0000000E+00
 1.97225  0.0000000E+00
 1.99525  0.0000000E+00
 2.01825  0.0000000E+00
 2.04125  0.0000000E+00
 2.06425  0.0000000E+00
 2.08725  0.0000000E+00
 2.11025  0.0000000E+00
 2.13325  0.0000000E+00
 2.15625  0.0000000E+00
 2.17925  0.0000000E+00
 2.20225  0.0000000E+00
 2.22525  0.0000000E+00
 2.24825  0.0000000E+00
 2.27125  0.0000000E+00
 2.29425  0.0000000E+00
 2.31725  0.0000000E+00
 2.34025  0.0000000E+00
 2.36325  0.0000000E+00
 2.38625  0.0000000E+00
 2.40925  0.0000000E+00
 2.43225  0.0000000E+00
 2.45525  0.0000000E+00
 2.47825  0.0000000E+00
 2.50125  0.0000000E+00
 2.52425  0.0000000E+00
 2.54725  0.0000000E+00
 2.57025  0.0000000E+00
 2.59325  0.0000000E+00
 2.61625  0.0000000E+00
 2.63925  0.0000000E+00
 2.66225  0.0000000E+00
 2.68525  0.0000000E+00
 2.70825  0.0000000E+00
 2.73125  0.0000000E+00
 2.75425  0.0000000E+00
 2.77725  0.0000000E+00
 2.80025  0.0000000E+00
 2.82325  32.4308
 2.84625  34.5663
 2.86925  34.3546
 2.89225  34.5544
 2.91525  34.5997
 2.93825  34.5789
 2.96125  34.4426
 2.98425  34.4337
 3.00725  35.7052
 3.03025  36.5348
 3.05325  36.0319
 3.07625  35.5175
 3.09925  35.5569
 3.12225  35.5655
 3.14525  35.5261
 3.16825  35.583
 3.19125  35.7532
 3.21425  35.5251
 3.23725  34.9613
 3.26025  34.3798
 3.28325  34.0286
 3.30625  33.7084
 3.32925  33.9305
 3.35225  34.3787
 3.37525  34.6984
 3.39825  35.0614
 3.42125  34.8704
 3.44425  34.4765
 3.46725  34.3483
 3.49025  34.2182
 3.51325  33.7439
 3.53625  33.6331
 3.55925  33.7344
 3.58225  33.4461
 3.60525  33.3165
 3.62825  33.1788
 3.65125  33.033
 3.67425  33.3276
 3.69725  33.5304
 3.72025  33.212
 3.74325  33.1363
 3.76625  33.2462
 3.78925  32.8602
 3.81225  32.9079
 3.83525  33.005
 3.85825  32.896
 3.88125  32.8111
 3.90425  32.6754
 3.92725  32.9438
 3.95025  33.1523
 3.97325  33.3149
 3.99625  33.3211
 4.01925  33.2402
 4.04225  32.9845
 4.06525  32.6966
 4.08825  32.5786
 4.11125  32.6098
 4.13425  32.7408
 4.15725  32.7661
 4.18025  32.5649
 4.20325  32.6839
 4.22625  32.5974
 4.24925  32.1774
 4.27225  32.1701
 4.29525  32.3664
 4.31825  32.3813
 4.34125  32.4166
 4.36425  32.7617
 4.38725  32.8759
 4.41025  32.7298
 4.43325  32.6095
 4.45625  32.4187
 4.47925  32.4924
 4.50225  32.5913
 4.52525  32.8575
 4.54825  33.0846
 4.57125  33.1461
 4.59425  33.3001
 4.61725  33.2689
 4.64025  33.0086
 4.66325  32.9286
 4.68625  32.9019
 4.70925  33.0766
 4.73225  33.0553
 4.75525  32.9427
 4.77825  32.7594
 4.80125  32.6664
 4.82425  32.7867
 4.84725  32.8435
 4.87025  32.8733
 4.89325  32.8098
 4.91625  32.9933
 4.93925  33.0971
 4.96225  33.0577
 4.98525  33.2134
 5.00825  33.5106
 5.03125  33.3371
 5.05425  33.1463
 5.07725  33.1338
 5.10025  33.2534
 5.12325  33.4529
 5.14625  33.5812
 5.16925  33.8709
 5.19225  34.1058
 5.21525  34.1686
 5.23825  34.1276
 5.26125  34.0845
 5.28425  34.2598
 5.30725  34.4474
 5.33025  34.4401
 5.35325  34.3764
 5.37625  34.4271
 5.39925  34.6149
 5.42225  34.5909
 5.44525  34.6275
 5.46825  34.6834
 5.49125  34.7182
 5.51425  34.8874
 5.53725  34.9562
 5.56025  35.2083
 5.58325  35.1814
 5.60625  35.2196
 5.62925  35.4341
 5.65225  35.6128
 5.67525  35.7953
 5.69825  35.7183
 5.72125  35.7588
 5.74425  35.6535
 5.76725  35.5292
 5.79025  35.6272
 5.81325  35.7722
 5.83625  36.0614
 5.85925  36.4631
 5.88225  36.7489
 5.90525  37.4193
 5.92825  38.908
 5.95125  42.7502
 5.97425  48.5581
 5.99725  55.4297
 6.02025  48.3751
 6.04325  42.4328
 6.06625  38.7813
 6.08925  37.7501
 6.11225  37.281
 6.13525  36.9375
 6.15825  36.7231
 6.18125  36.758
 6.20425  36.9829
 6.22725  37.1178
 6.25025  37.239
 6.27325  37.3824
 6.29625  37.4402
 6.31925  37.5878
 6.34225  37.7825
 6.36525  38.0549
 6.38825  38.2841
 6.41125  38.4919
 6.43425  38.5983
 6.45725  38.4823
 6.48025  38.4675
 6.50325  38.7509
 6.52625  39.049
 6.54925  39.267
 6.57225  39.3596
 6.59525  39.3294
 6.61825  39.3819
 6.64125  39.8756
 6.66425  40.2207
 6.68725  40.2234
 6.71025  40.4845
 6.73325  40.8414
 6.75625  41.0201
 6.77925  41.107
 6.80225  41.2503
 6.82525  41.4982
 6.84825  41.6776
 6.87125  41.7937
 6.89425  42.0678
 6.91725  42.1046
 6.94025  41.9959
 6.96325  42.0187
 6.98625  42.056
 7.00925  42.0671
 7.03225  42.367
 7.05525  42.4802
 7.07825  42.5374
 7.10125  42.6511
 7.12425  42.9233
 7.14725  43.0298
 7.17025  43.0501
 7.19325  43.2458
 7.21625  43.4157
 7.23925  43.4707
 7.26225  43.5215
 7.28525  43.553
 7.30825  43.6419
 7.33125  43.7276
 7.35425  43.7825
 7.37725  44.0318
 7.40025  44.3635
 7.42325  44.3878
 7.44625  44.3596
 7.46925  44.3466
 7.49225  44.3434
 7.51525  44.3488
 7.53825  44.3442
 7.56125  44.4252
 7.58425  44.365
 7.60725  44.3692
 7.63025  44.4485
 7.65325  44.4419
 7.67625  44.4141
 7.69925  44.3493
 7.72225  44.5323
 7.74525  44.7114
 7.76825  44.7512
 7.79125  44.7379
 7.81425  44.6833
 7.83725  44.4892
 7.86025  44.214
 7.88325  43.7925
 7.90625  43.7213
 7.92925  43.9372
 7.95225  43.8466
 7.97525  43.6893
 7.99825  43.6982
 8.02125  43.6697
 8.04425  43.5909
 8.06725  43.4832
 8.09025  43.2998
 8.11325  43.104
 8.13625  42.8892
 8.15925  42.6259
 8.18225  42.3284
 8.20525  41.9812
 8.22825  41.7828
 8.25125  41.3817
 8.27425  41.0663
 8.29725  40.8657
 8.32025  40.6785
 8.34325  40.3964
 8.36625  40.2124
 8.38925  39.8245
 8.41225  39.4042
 8.43525  39.0592
 8.45825  38.7336
 8.48125  38.4307
 8.50425  38.0946
 8.52725  37.7128
 8.55025  37.3201
 8.57325  37.1934
 8.59625  37.0046
 8.61925  36.5774
 8.64225  36.1397
 8.66525  35.6935
 8.68825  35.3564
 8.71125  35.1178
 8.73425  34.7101
 8.75725  34.327
 8.78025  34.0226
 8.80325  33.8966
 8.82625  33.6641
 8.84925  33.1817
 8.87225  32.8128
 8.89525  32.4139
 8.91825  32.0878
 8.94125  31.9027
 8.96425  31.5372
 8.98725  31.0912
 9.01025  30.7907
 9.03325  30.6143
 9.05625  30.4238
 9.07925  30.0878
 9.10225  29.771
 9.12525  29.4467
 9.14825  29.2908
 9.17125  29.1303
 9.19425  28.993
 9.21725  28.7287
 9.24025  28.4502
 9.26325  28.2863
 9.28625  28.0255
 9.30925  27.7311
 9.33225  27.472
 9.35525  27.3408
 9.37825  27.3878
 9.40125  27.3774
 9.42425  27.2819
 9.44725  27.0141
 9.47025  26.908
 9.49325  26.7834
 9.51625  26.5375
 9.53925  26.3808
 9.56225  26.2773
 9.58525  26.0771
 9.60825  25.8838
 9.63125  25.7337
 9.65425  25.5503
 9.67725  25.5801
 9.70025  25.5366
 9.72325  25.4813
 9.74625  25.3226
 9.76925  25.2289
 9.79225  25.1783
 9.81525  25.1378
 9.83825  24.9923
 9.86125  24.865
 9.88425  24.8582
 9.90725  24.8507
 9.93025  24.8367
 9.95325  24.7529
 9.97625  24.6157
 9.99925  24.6525
 10.0222  24.6219
 10.0453  24.5605
 10.0683  24.4009
 10.0913  24.2719
 10.1143  24.2378
 10.1373  24.1177
 10.1603  24.0747
 10.1832  24.061
 10.2063  23.956
 10.2293  23.988
 10.2523  24.0162
 10.2752  23.9412
 10.2982  23.9416
 10.3213  23.8612
 10.3443  23.8105
 10.3673  23.6905
 10.3902  23.701
 10.4133  23.7733
 10.4363  23.5925
 10.4593  23.3139
 10.4823  23.357
 10.5053  23.4394
 10.5283  23.3601
 10.5512  23.3047
 10.5742  23.3594
 10.5973  23.3045
 10.6203  23.2384
 10.6433  23.2263
 10.6662  23.1824
 10.6893  23.1768
 10.7123  23.2373
 10.7353  23.2052
 10.7583  23.2121
 10.7813  23.2103
 10.8043  23.1753
 10.8272  23.0467
 10.8503  22.9305
 10.8733  22.8326
 10.8963  22.8226
 10.9192  22.8224
 10.9422  22.8657
 10.9653  22.8899
 10.9883  22.8032
 11.0113  22.738
 11.0343  22.7742
 11.0573  22.724
 11.0803  22.8086
 11.1033  22.7759
 11.1263  22.8508
 11.1493  22.818
 11.1723  22.8739
 11.1953  22.8095
 11.2182  22.682
 11.2413  22.6615
 11.2643  22.691
 11.2873  22.7316
 11.3102  22.8347
 11.3333  22.8964
 11.3563  22.898
 11.3793  22.9968
 11.4023  23.274
 11.4253  23.3337
 11.4483  23.1794
 11.4713  23.2431
 11.4942  23.548
 11.5173  24.9018
 11.5403  28.1679
 11.5633  34.2562
 11.5862  35.5175
 11.6093  31.9476
 11.6323  26.5103
 11.6553  24.1216
 11.6783  23.3827
 11.7013  22.989
 11.7243  22.7951
 11.7473  22.7939
 11.7703  22.7682
 11.7933  22.7862
 11.8163  22.9206
 11.8393  22.9221
 11.8622  22.6998
 11.8853  22.6929
 11.9083  22.7609
 11.9313  23.0285
 11.9543  23.3344
 11.9773  23.4272
 12.0003  23.4583
 12.0233  23.4088
 12.0463  23.5574
 12.0693  24.3282
 12.0923  25.7142
 12.1153  26.7824
 12.1382  26.8177
 12.1613  24.8911
 12.1843  23.5671
 12.2073  23.1477
 12.2302  22.8262
 12.2533  22.8698
 12.2763  22.7403
 12.2993  22.7345
 12.3223  22.7688
 12.3453  22.7764
 12.3683  22.8009
 12.3913  22.7787
 12.4142  22.7436
 12.4373  22.7406
 12.4603  22.7939
 12.4833  22.8295
 12.5062  22.7548
 12.5292  22.7205
 12.5523  22.7585
 12.5753  22.7777
 12.5983  22.882
 12.6212  22.9864
 12.6443  23.0456
 12.6673  23.0104
 12.6903  23.0572
 12.7133  23.2069
 12.7363  23.1692
 12.7593  23.1946
 12.7822  23.2748
 12.8052  23.4366
 12.8283  23.6084
 12.8513  23.5983
 12.8742  23.6099
 12.8972  23.6099
 12.9203  23.7289
 12.9433  23.8214
 12.9663  24.0725
 12.9893  24.1455
 13.0123  24.0903
 13.0353  24.2102
 13.0582  24.4254
 13.0813  24.5555
 13.1043  24.8737
 13.1273  25.1367
 13.1502  25.251
 13.1732  25.4794
 13.1963  25.683
 13.2193  25.994
 13.2423  26.413
 13.2652  26.6292
 13.2883  26.9303
 13.3113  27.1932
 13.3343  27.5607
 13.3573  27.9012
 13.3803  28.1541
 13.4033  28.3418
 13.4262  28.4176
 13.4492  28.5816
 13.4723  28.9344
 13.4953  29.2833
 13.5183  29.4723
 13.5412  29.5971
 13.5643  29.824
 13.5873  30.0656
 13.6103  30.1159
 13.6333  29.9966
 13.6563  30.0123
 13.6793  30.04
 13.7022  29.9178
 13.7253  29.8906
 13.7483  29.8546
 13.7713  29.7886
 13.7942  29.8737
 13.8172  29.8968
 13.8403  30.0307
 13.8633  31.1879
 13.8863  35.2891
 13.9093  40.9453
 13.9323  43.8561
 13.9553  43.9766
 13.9783  40.7339
 14.0013  35.3454
 14.0243  31.086
 14.0473  29.0915
 14.0703  28.4102
 14.0932  28.1095
 14.1163  27.7936
 14.1393  27.3999
 14.1623  27.1787
 14.1852  27.162
 14.2083  26.986
 14.2313  26.7644
 14.2543  26.6341
 14.2773  26.6832
 14.3003  26.5918
 14.3233  26.316
 14.3463  26.1765
 14.3692  26.2126
 14.3923  26.1948
 14.4153  26.0335
 14.4383  25.9749
 14.4612  25.8919
 14.4843  25.7859
 14.5073  25.7993
 14.5303  25.7869
 14.5533  25.822
 14.5763  25.788
 14.5993  25.7061
 14.6223  25.6536
 14.6453  25.5931
 14.6683  25.3634
 14.6913  25.3025
 14.7143  25.3018
 14.7372  25.3172
 14.7603  25.2747
 14.7833  25.1951
 14.8063  25.137
 14.8293  25.0309
 14.8523  25.033
 14.8753  25.0556
 14.8983  25.1279
 14.9213  25.2099
 14.9443  25.1227
 14.9673  24.8989
 14.9903  24.834
 15.0132  25.0342
 15.0363  25.1313
 15.0593  25.0577
 15.0823  24.9769
 15.1052  24.9038
 15.1283  25.0783
 15.1513  25.7794
 15.1743  26.6198
 15.1973  26.9432
 15.2203  26.5478
 15.2433  25.7684
 15.2663  25.1746
 15.2892  24.9537
 15.3123  24.8362
 15.3353  24.8151
 15.3583  24.694
 15.3812  24.6694
 15.4043  24.6771
 15.4273  24.6491
 15.4503  24.5934
 15.4733  24.4704
 15.4963  24.4545
 15.5193  24.4823
 15.5423  24.5332
 15.5653  24.5153
 15.5883  24.4965
 15.6113  24.5052
 15.6343  24.4868
 15.6572  24.4619
 15.6803  24.4896
 15.7033  24.5503
 15.7263  24.6269
 15.7492  24.6126
 15.7723  24.5977
 15.7953  24.5679
 15.8183  24.5513
 15.8413  24.5134
 15.8643  24.5794
 15.8873  24.6802
 15.9103  24.7382
 15.9332  24.7599
 15.9563  24.6795
 15.9793  24.729
 16.0023  24.7496
 16.0253  24.8078
 16.0482  24.819
 16.0713  24.7577
 16.0943  24.8252
 16.1172  24.883
 16.1403  24.9058
 16.1633  24.9901
 16.1863  25.2177
 16.2093  25.5208
 16.2323  25.7345
 16.2553  25.8994
 16.2783  25.829
 16.3012  25.3617
 16.3243  25.0135
 16.3472  24.7744
 16.3703  24.7104
 16.3933  24.7416
 16.4163  24.8403
 16.4393  24.9087
 16.4623  24.7486
 16.4853  24.6623
 16.5083  24.6498
 16.5312  24.6046
 16.5543  24.6259
 16.5773  24.5992
 16.6002  24.6007
 16.6233  24.5343
 16.6463  24.4858
 16.6693  24.4587
 16.6923  24.5846
 16.7153  24.6078
 16.7383  24.5222
 16.7613  24.4169
 16.7843  24.3909
 16.8073  24.4812
 16.8303  24.5405
 16.8533  24.4551
 16.8763  24.4531
 16.8992  24.4972
 16.9223  24.4912
 16.9453  24.5053
 16.9683  24.4813
 16.9913  24.3851
 17.0143  24.3556
 17.0373  24.3247
 17.0603  24.3277
 17.0832  24.3791
 17.1063  24.2413
 17.1293  24.2523
 17.1522  24.3166
 17.1753  24.2923
 17.1983  24.1627
 17.2213  24.0902
 17.2443  24.0137
 17.2673  24.0385
 17.2903  24.1287
 17.3133  24.2467
 17.3362  24.2678
 17.3593  24.2873
 17.3823  24.2719
 17.4053  24.2405
 17.4283  24.1996
 17.4513  24.1226
 17.4743  24.0847
 17.4973  24.1201
 17.5203  24.1496
 17.5433  24.0725
 17.5663  23.9585
 17.5893  23.957
 17.6123  23.9182
 17.6352  23.9318
 17.6583  23.8913
 17.6813  23.9184
 17.7042  24.0233
 17.7273  24.0008
 17.7503  23.929
 17.7733  23.9814
 17.7963  24.0212
 17.8193  23.9254
 17.8423  23.8454
 17.8653  23.8977
 17.8882  23.96
 17.9113  23.9601
 17.9343  24.0197
 17.9573  24.1397
 17.9803  24.3683
 18.0033  24.8251
 18.0263  25.8403
 18.0493  26.6482
 18.0723  26.7854
 18.0953  26.9283
 18.1183  26.7736
 18.1413  26.0803
 18.1643  25.0543
 18.1872  24.255
 18.2103  23.9162
 18.2333  23.8319
 18.2563  23.8279
 18.2793  23.9106
 18.3023  23.8707
 18.3253  23.7339
 18.3483  23.7538
 18.3712  23.7891
 18.3943  23.7817
 18.4173  23.8397
 18.4402  23.8238
 18.4633  23.7346
 18.4863  23.691
 18.5093  23.7176
 18.5323  23.6286
 18.5553  23.6164
 18.5783  23.671
 18.6013  23.786
 18.6242  23.7132
 18.6473  23.604
 18.6703  23.5195
 18.6933  23.6308
 18.7163  23.7567
 18.7392  23.7262
 18.7623  23.7067
 18.7853  23.6736
 18.8083  23.6932
 18.8313  23.6549
 18.8543  23.6031
 18.8773  23.6632
 18.9003  23.6384
 18.9232  23.656
 18.9463  23.7485
 18.9693  23.6547
 18.9922  23.5342
 19.0153  23.5465
 19.0383  23.5775
 19.0613  23.5653
 19.0843  23.5966
 19.1073  23.5222
 19.1303  23.5919
 19.1533  23.5837
 19.1762  23.5647
 19.1993  23.6265
 19.2223  23.6082
 19.2453  23.6012
 19.2683  23.6656
 19.2913  23.7179
 19.3143  23.7896
 19.3373  23.8114
 19.3603  23.8197
 19.3833  23.7632
 19.4062  23.6957
 19.4293  23.6524
 19.4523  23.7495
 19.4752  23.9734
 19.4983  24.0225
 19.5213  24.0057
 19.5443  24.4752
 19.5673  24.7435
 19.5903  24.3971
 19.6133  24.3388
 19.6363  24.606
 19.6593  25.1657
 19.6823  26.3312
 19.7053  28.4415
 19.7283  29.9332
 19.7513  29.7209
 19.7742  27.109
 19.7973  25.7305
 19.8203  25.5853
 19.8433  26.112
 19.8663  26.5815
 19.8893  26.2632
 19.9123  25.3629
 19.9353  24.6983
 19.9582  24.3326
 19.9813  24.1215
 20.0043  23.9719
 20.0272  23.903
 20.0503  23.9107
 20.0733  23.8853
 20.0963  23.8357
 20.1193  23.777
 20.1423  23.7887
 20.1653  23.8242
 20.1883  23.8449
 20.2112  23.8574
 20.2343  23.8438
 20.2573  23.7725
 20.2803  23.8599
 20.3033  23.8256
 20.3263  23.7513
 20.3493  23.7306
 20.3723  23.7227
 20.3953  23.7698
 20.4183  23.9541
 20.4413  23.9734
 20.4643  23.8638
 20.4873  23.8395
 20.5102  23.789
 20.5333  23.7128
 20.5563  23.8724
 20.5792  23.9586
 20.6023  24.1029
 20.6253  24.1045
 20.6483  24.047
 20.6713  24.1334
 20.6943  24.4077
 20.7173  25.0963
 20.7403  25.9445
 20.7632  26.1183
 20.7863  25.7397
 20.8093  24.9728
 20.8323  24.4467
 20.8553  24.1794
 20.8783  24.0504
 20.9013  23.9165
 20.9243  23.9938
 20.9473  24.0724
 20.9703  24.092
 20.9933  24.0512
 21.0163  23.9536
 21.0393  23.9145
 21.0622  23.8653
 21.0853  23.847
 21.1083  23.8577
 21.1313  23.9819
 21.1543  23.9292
 21.1773  23.9575
 21.2003  24.0727
 21.2233  24.0556
 21.2462  24.0048
 21.2693  24.0337
 21.2923  24.033
 21.3152  23.9845
 21.3383  24.0839
 21.3613  24.0699
 21.3843  24.0711
 21.4073  24.0556
 21.4303  24.1011
 21.4533  24.036
 21.4763  24.0322
 21.4992  24.2025
 21.5223  24.1953
 21.5453  24.192
 21.5683  24.1586
 21.5913  24.1815
 21.6142  24.1719
 21.6373  24.2354
 21.6603  24.2608
 21.6833  24.1724
 21.7063  24.1647
 21.7293  24.1882
 21.7523  24.2051
 21.7753  24.3019
 21.7982  24.2906
 21.8213  24.2595
 21.8443  24.1109
 21.8672  24.1507
 21.8903  24.1707
 21.9133  24.2289
 21.9363  24.226
 21.9593  24.2563
 21.9823  24.2904
 22.0053  24.2868
 22.0283  24.2922
 22.0512  24.3268
 22.0743  24.3779
 22.0973  24.3817
 22.1203  24.4354
 22.1433  24.3961
 22.1663  24.3628
 22.1893  24.293
 22.2123  24.384
 22.2353  24.4635
 22.2583  24.4225
 22.2813  24.4565
 22.3043  24.5289
 22.3273  24.5382
 22.3502  24.6024
 22.3733  24.6355
 22.3963  24.4992
 22.4193  24.5034
 22.4423  24.7367
 22.4653  24.9076
 22.4883  24.848
 22.5113  24.8733
 22.5343  24.85
 22.5573  24.8759
 22.5803  24.9042
 22.6033  24.8653
 22.6263  24.9135
 22.6493  24.9643
 22.6723  25.0116
 22.6953  25.1592
 22.7183  25.2512
 22.7413  25.2753
 22.7643  25.335
 22.7873  25.3265
 22.8103  25.5013
 22.8333  25.4663
 22.8563  25.541
 22.8793  25.6324
 22.9022  25.8065
 22.9253  25.9568
 22.9483  25.897
 22.9713  26.0963
 22.9943  26.3513