File: test-data-xrd/xrd-map-34-ID-E/Data_0122.chi
F:\20151113_APS_34IDE\\Brian\Particle1\OCV\Data_0122.tif
2-Theta Angle (Degrees)
Intensity
       2000
 0.01725  0.0000000E+00
 0.04025  0.0000000E+00
 0.06325  0.0000000E+00
 0.08625  0.0000000E+00
 0.10925  0.0000000E+00
 0.13225  0.0000000E+00
 0.15525  0.0000000E+00
 0.17825  0.0000000E+00
 0.20125  0.0000000E+00
 0.22425  0.0000000E+00
 0.24725  0.0000000E+00
 0.27025  0.0000000E+00
 0.29325  0.0000000E+00
 0.31625  0.0000000E+00
 0.33925  0.0000000E+00
 0.36225  0.0000000E+00
 0.38525  0.0000000E+00
 0.40825  0.0000000E+00
 0.43125  0.0000000E+00
 0.45425  0.0000000E+00
 0.47725  0.0000000E+00
 0.50025  0.0000000E+00
 0.52325  0.0000000E+00
 0.54625  0.0000000E+00
 0.56925  0.0000000E+00
 0.59225  0.0000000E+00
 0.61525  0.0000000E+00
 0.63825  0.0000000E+00
 0.66125  0.0000000E+00
 0.68425  0.0000000E+00
 0.70725  0.0000000E+00
 0.73025  0.0000000E+00
 0.75325  0.0000000E+00
 0.77625  0.0000000E+00
 0.79925  0.0000000E+00
 0.82225  0.0000000E+00
 0.84525  0.0000000E+00
 0.86825  0.0000000E+00
 0.89125  0.0000000E+00
 0.91425  0.0000000E+00
 0.93725  0.0000000E+00
 0.96025  0.0000000E+00
 0.98325  0.0000000E+00
 1.00625  0.0000000E+00
 1.02925  0.0000000E+00
 1.05225  0.0000000E+00
 1.07525  0.0000000E+00
 1.09825  0.0000000E+00
 1.12125  0.0000000E+00
 1.14425  0.0000000E+00
 1.16725  0.0000000E+00
 1.19025  0.0000000E+00
 1.21325  0.0000000E+00
 1.23625  0.0000000E+00
 1.25925  0.0000000E+00
 1.28225  0.0000000E+00
 1.30525  0.0000000E+00
 1.32825  0.0000000E+00
 1.35125  0.0000000E+00
 1.37425  0.0000000E+00
 1.39725  0.0000000E+00
 1.42025  0.0000000E+00
 1.44325  0.0000000E+00
 1.46625  0.0000000E+00
 1.48925  0.0000000E+00
 1.51225  0.0000000E+00
 1.53525  0.0000000E+00
 1.55825  0.0000000E+00
 1.58125  0.0000000E+00
 1.60425  0.0000000E+00
 1.62725  0.0000000E+00
 1.65025  0.0000000E+00
 1.67325  0.0000000E+00
 1.69625  0.0000000E+00
 1.71925  0.0000000E+00
 1.74225  0.0000000E+00
 1.76525  0.0000000E+00
 1.78825  0.0000000E+00
 1.81125  0.0000000E+00
 1.83425  0.0000000E+00
 1.85725  0.0000000E+00
 1.88025  0.0000000E+00
 1.90325  0.0000000E+00
 1.92625  0.0000000E+00
 1.94925  0.0000000E+00
 1.97225  0.0000000E+00
 1.99525  0.0000000E+00
 2.01825  0.0000000E+00
 2.04125  0.0000000E+00
 2.06425  0.0000000E+00
 2.08725  0.0000000E+00
 2.11025  0.0000000E+00
 2.13325  0.0000000E+00
 2.15625  0.0000000E+00
 2.17925  0.0000000E+00
 2.20225  0.0000000E+00
 2.22525  0.0000000E+00
 2.24825  0.0000000E+00
 2.27125  0.0000000E+00
 2.29425  0.0000000E+00
 2.31725  0.0000000E+00
 2.34025  0.0000000E+00
 2.36325  0.0000000E+00
 2.38625  0.0000000E+00
 2.40925  0.0000000E+00
 2.43225  0.0000000E+00
 2.45525  0.0000000E+00
 2.47825  0.0000000E+00
 2.50125  0.0000000E+00
 2.52425  0.0000000E+00
 2.54725  0.0000000E+00
 2.57025  0.0000000E+00
 2.59325  0.0000000E+00
 2.61625  0.0000000E+00
 2.63925  0.0000000E+00
 2.66225  0.0000000E+00
 2.68525  0.0000000E+00
 2.70825  0.0000000E+00
 2.73125  0.0000000E+00
 2.75425  0.0000000E+00
 2.77725  0.0000000E+00
 2.80025  0.0000000E+00
 2.82325  37.7267
 2.84625  34.7384
 2.86925  34.5638
 2.89225  35.1471
 2.91525  35.6786
 2.93825  35.4508
 2.96125  36.1822
 2.98425  36.856
 3.00725  36.9827
 3.03025  36.4709
 3.05325  36.3955
 3.07625  35.6069
 3.09925  35.1442
 3.12225  34.673
 3.14525  35.0624
 3.16825  35.3327
 3.19125  35.0745
 3.21425  35.2918
 3.23725  34.9031
 3.26025  34.6685
 3.28325  34.4614
 3.30625  34.5416
 3.32925  34.8871
 3.35225  34.8583
 3.37525  34.5277
 3.39825  34.1771
 3.42125  34.0255
 3.44425  34.5356
 3.46725  34.7822
 3.49025  34.2749
 3.51325  33.6533
 3.53625  33.4071
 3.55925  33.0582
 3.58225  32.8369
 3.60525  32.5037
 3.62825  32.5084
 3.65125  32.8043
 3.67425  33.3107
 3.69725  33.2827
 3.72025  33.1036
 3.74325  33.0588
 3.76625  33.2416
 3.78925  33.0815
 3.81225  32.8614
 3.83525  32.6134
 3.85825  32.4524
 3.88125  32.3146
 3.90425  32.1401
 3.92725  32.2422
 3.95025  32.2225
 3.97325  32.6976
 3.99625  33.1943
 4.01925  33.1994
 4.04225  33.1433
 4.06525  33.0557
 4.08825  32.6889
 4.11125  32.3197
 4.13425  32.1767
 4.15725  31.913
 4.18025  31.2837
 4.20325  31.5136
 4.22625  31.9472
 4.24925  32.0585
 4.27225  31.9859
 4.29525  31.9457
 4.31825  32.2068
 4.34125  32.6275
 4.36425  32.6391
 4.38725  32.4907
 4.41025  32.4307
 4.43325  32.2982
 4.45625  32.3451
 4.47925  32.253
 4.50225  32.3106
 4.52525  32.6027
 4.54825  32.6725
 4.57125  32.7718
 4.59425  32.6834
 4.61725  32.4387
 4.64025  32.6099
 4.66325  32.7077
 4.68625  32.6677
 4.70925  32.7805
 4.73225  32.9396
 4.75525  32.6498
 4.77825  32.6184
 4.80125  32.5028
 4.82425  32.3199
 4.84725  32.4133
 4.87025  32.7078
 4.89325  32.874
 4.91625  33.024
 4.93925  33.1288
 4.96225  32.9109
 4.98525  32.7709
 5.00825  32.8807
 5.03125  32.8468
 5.05425  32.9402
 5.07725  33.0989
 5.10025  33.3955
 5.12325  33.3981
 5.14625  33.3089
 5.16925  33.2242
 5.19225  33.3881
 5.21525  33.6874
 5.23825  33.877
 5.26125  34.0473
 5.28425  34.1266
 5.30725  34.2908
 5.33025  34.4815
 5.35325  34.457
 5.37625  34.6589
 5.39925  34.8251
 5.42225  34.7358
 5.44525  34.7134
 5.46825  34.652
 5.49125  34.7065
 5.51425  34.7991
 5.53725  34.9236
 5.56025  35.049
 5.58325  35.0987
 5.60625  35.289
 5.62925  35.1266
 5.65225  35.0652
 5.67525  35.2653
 5.69825  35.1557
 5.72125  35.2426
 5.74425  35.3809
 5.76725  35.4319
 5.79025  35.6142
 5.81325  35.6824
 5.83625  35.8359
 5.85925  35.8872
 5.88225  35.8644
 5.90525  35.9831
 5.92825  36.3351
 5.95125  37.9278
 5.97425  39.9424
 5.99725  40.5857
 6.02025  39.7815
 6.04325  38.161
 6.06625  36.7502
 6.08925  36.4864
 6.11225  36.5186
 6.13525  36.5628
 6.15825  36.6319
 6.18125  36.7868
 6.20425  36.6634
 6.22725  36.8654
 6.25025  37.1092
 6.27325  37.3314
 6.29625  37.3717
 6.31925  37.4278
 6.34225  37.7047
 6.36525  38.0675
 6.38825  38.3478
 6.41125  38.5746
 6.43425  38.6136
 6.45725  38.6807
 6.48025  38.9072
 6.50325  38.9684
 6.52625  39.2108
 6.54925  39.4352
 6.57225  39.6658
 6.59525  39.6359
 6.61825  39.7816
 6.64125  40.0009
 6.66425  40.0251
 6.68725  39.9721
 6.71025  40.2084
 6.73325  40.4543
 6.75625  40.6809
 6.77925  40.9122
 6.80225  41.0121
 6.82525  41.2829
 6.84825  41.5095
 6.87125  41.4867
 6.89425  41.3922
 6.91725  41.3251
 6.94025  41.4892
 6.96325  41.9848
 6.98625  42.2308
 7.00925  42.2232
 7.03225  42.3419
 7.05525  42.6272
 7.07825  42.5535
 7.10125  42.5413
 7.12425  42.7979
 7.14725  43.0517
 7.17025  43.3129
 7.19325  43.3812
 7.21625  43.2924
 7.23925  43.3302
 7.26225  43.5841
 7.28525  43.7332
 7.30825  43.8874
 7.33125  43.9799
 7.35425  43.9221
 7.37725  43.9806
 7.40025  44.0608
 7.42325  44.1591
 7.44625  44.1282
 7.46925  44.1463
 7.49225  44.2401
 7.51525  44.4044
 7.53825  44.5366
 7.56125  44.5329
 7.58425  44.5944
 7.60725  44.451
 7.63025  44.3559
 7.65325  44.2639
 7.67625  44.2818
 7.69925  44.438
 7.72225  44.4882
 7.74525  44.5316
 7.76825  44.3712
 7.79125  44.5713
 7.81425  44.6362
 7.83725  44.4172
 7.86025  44.1225
 7.88325  43.8885
 7.90625  43.9083
 7.92925  43.995
 7.95225  43.7863
 7.97525  43.5184
 7.99825  43.453
 8.02125  43.4124
 8.04425  43.4647
 8.06725  43.3114
 8.09025  42.9443
 8.11325  42.7151
 8.13625  42.5355
 8.15925  42.3526
 8.18225  42.1487
 8.20525  41.7991
 8.22825  41.5259
 8.25125  41.2557
 8.27425  40.9669
 8.29725  40.8165
 8.32025  40.7049
 8.34325  40.4814
 8.36625  40.1593
 8.38925  39.8005
 8.41225  39.3939
 8.43525  39.0618
 8.45825  38.8548
 8.48125  38.515
 8.50425  38.0992
 8.52725  37.6449
 8.55025  37.3381
 8.57325  37.0454
 8.59625  36.5128
 8.61925  36.2342
 8.64225  35.9612
 8.66525  35.6295
 8.68825  35.3161
 8.71125  35.0271
 8.73425  34.5054
 8.75725  34.0906
 8.78025  33.9862
 8.80325  33.7438
 8.82625  33.4701
 8.84925  33.1891
 8.87225  32.8104
 8.89525  32.3407
 8.91825  32.0091
 8.94125  31.6725
 8.96425  31.5619
 8.98725  31.3636
 9.01025  30.7971
 9.03325  30.3309
 9.05625  30.1282
 9.07925  30.1243
 9.10225  29.9048
 9.12525  29.6923
 9.14825  29.5316
 9.17125  29.2507
 9.19425  28.9301
 9.21725  28.6738
 9.24025  28.4638
 9.26325  28.2823
 9.28625  28.1146
 9.30925  27.8463
 9.33225  27.6346
 9.35525  27.4289
 9.37825  27.2451
 9.40125  27.0574
 9.42425  26.9321
 9.44725  26.931
 9.47025  26.957
 9.49325  26.8244
 9.51625  26.5728
 9.53925  26.3448
 9.56225  26.3406
 9.58525  26.1514
 9.60825  25.9486
 9.63125  25.8148
 9.65425  25.6592
 9.67725  25.4842
 9.70025  25.3443
 9.72325  25.4547
 9.74625  25.4663
 9.76925  25.3006
 9.79225  25.1521
 9.81525  25.0985
 9.83825  24.9672
 9.86125  24.8136
 9.88425  24.7234
 9.90725  24.707
 9.93025  24.5322
 9.95325  24.3706
 9.97625  24.4039
 9.99925  24.3746
 10.0222  24.3537
 10.0453  24.265
 10.0683  24.2843
 10.0913  24.2332
 10.1143  24.1526
 10.1373  24.0267
 10.1603  24.0548
 10.1832  23.9662
 10.2063  23.9681
 10.2293  23.9263
 10.2523  23.8429
 10.2752  23.7797
 10.2982  23.8129
 10.3213  23.7296
 10.3443  23.5722
 10.3673  23.4904
 10.3902  23.6256
 10.4133  23.6042
 10.4363  23.4295
 10.4593  23.3045
 10.4823  23.3369
 10.5053  23.2984
 10.5283  23.1207
 10.5512  23.0461
 10.5742  23.0161
 10.5973  22.9726
 10.6203  23.0752
 10.6433  23.1241
 10.6662  23.0378
 10.6893  22.9858
 10.7123  23.0631
 10.7353  23.1296
 10.7583  23.128
 10.7813  22.9884
 10.8043  22.9138
 10.8272  22.8623
 10.8503  22.8935
 10.8733  22.8843
 10.8963  22.7851
 10.9192  22.7836
 10.9422  22.8013
 10.9653  22.7282
 10.9883  22.631
 11.0113  22.6514
 11.0343  22.7239
 11.0573  22.6375
 11.0803  22.5162
 11.1033  22.5182
 11.1263  22.6015
 11.1493  22.7047
 11.1723  22.6698
 11.1953  22.5932
 11.2182  22.5043
 11.2413  22.4156
 11.2643  22.3101
 11.2873  22.22
 11.3102  22.3333
 11.3333  22.3795
 11.3563  22.4254
 11.3793  22.536
 11.4023  22.6158
 11.4253  22.6009
 11.4483  22.5981
 11.4713  22.6624
 11.4942  22.5366
 11.5173  22.4565
 11.5403  22.5814
 11.5633  23.0944
 11.5862  23.6334
 11.6093  23.7098
 11.6323  23.2435
 11.6553  22.7868
 11.6783  22.542
 11.7013  22.4075
 11.7243  22.3747
 11.7473  22.4279
 11.7703  22.3029
 11.7933  22.2409
 11.8163  22.3264
 11.8393  22.3889
 11.8622  22.3341
 11.8853  22.4292
 11.9083  22.5599
 11.9313  22.6016
 11.9543  22.6326
 11.9773  22.6545
 12.0003  22.7198
 12.0233  22.764
 12.0463  22.7814
 12.0693  22.8986
 12.0923  22.9775
 12.1153  22.8986
 12.1382  22.8807
 12.1613  22.8177
 12.1843  22.6985
 12.2073  22.5372
 12.2302  22.3747
 12.2533  22.3649
 12.2763  22.4477
 12.2993  22.456
 12.3223  22.4323
 12.3453  22.4225
 12.3683  22.5609
 12.3913  22.5801
 12.4142  22.5116
 12.4373  22.5207
 12.4603  22.5331
 12.4833  22.6558
 12.5062  22.6553
 12.5292  22.8822
 12.5523  23.2148
 12.5753  23.2374
 12.5983  23.0348
 12.6212  22.9175
 12.6443  22.8862
 12.6673  22.8289
 12.6903  22.8355
 12.7133  22.9504
 12.7363  22.9603
 12.7593  22.9969
 12.7822  23.0314
 12.8052  23.1448
 12.8283  23.3152
 12.8513  23.3282
 12.8742  23.3597
 12.8972  23.3308
 12.9203  23.4394
 12.9433  23.5149
 12.9663  23.6537
 12.9893  23.7998
 13.0123  23.9716
 13.0353  24.0897
 13.0582  24.2264
 13.0813  24.416
 13.1043  24.6054
 13.1273  24.9544
 13.1502  25.0744
 13.1732  25.2388
 13.1963  25.5122
 13.2193  25.8256
 13.2423  26.2059
 13.2652  26.4677
 13.2883  26.7515
 13.3113  27.0294
 13.3343  27.4424
 13.3573  27.7932
 13.3803  28.163
 13.4033  28.3184
 13.4262  28.4524
 13.4492  28.6464
 13.4723  28.8066
 13.4953  28.9899
 13.5183  29.1484
 13.5412  29.3162
 13.5643  29.4499
 13.5873  29.5057
 13.6103  29.5083
 13.6333  29.5782
 13.6563  29.6372
 13.6793  29.6384
 13.7022  29.5308
 13.7253  29.3431
 13.7483  29.1679
 13.7713  28.9985
 13.7942  28.8682
 13.8172  28.8003
 13.8403  28.7999
 13.8633  28.8303
 13.8863  28.8207
 13.9093  28.986
 13.9323  29.1828
 13.9553  29.223
 13.9783  28.9069
 14.0013  28.324
 14.0243  27.7749
 14.0473  27.4302
 14.0703  27.4259
 14.0932  27.3511
 14.1163  27.0979
 14.1393  26.9348
 14.1623  26.7252
 14.1852  26.5242
 14.2083  26.4352
 14.2313  26.3859
 14.2543  26.2533
 14.2773  26.2609
 14.3003  26.2754
 14.3233  26.2351
 14.3463  26.1412
 14.3692  26.0972
 14.3923  26.1233
 14.4153  26.0466
 14.4383  25.9388
 14.4612  25.7938
 14.4843  25.6152
 14.5073  25.5567
 14.5303  25.5299
 14.5533  25.4725
 14.5763  25.4649
 14.5993  25.4675
 14.6223  25.4415
 14.6453  25.323
 14.6683  25.1971
 14.6913  25.1861
 14.7143  25.1419
 14.7372  24.9827
 14.7603  24.863
 14.7833  24.9294
 14.8063  24.9889
 14.8293  24.9804
 14.8523  24.9566
 14.8753  24.8574
 14.8983  24.9258
 14.9213  24.969
 14.9443  24.9199
 14.9673  24.811
 14.9903  24.7614
 15.0132  24.7668
 15.0363  24.701
 15.0593  24.6128
 15.0823  24.6086
 15.1052  24.646
 15.1283  24.7314
 15.1513  24.8634
 15.1743  24.9704
 15.1973  24.8809
 15.2203  24.9003
 15.2433  24.6967
 15.2663  24.5334
 15.2892  24.5253
 15.3123  24.5544
 15.3353  24.4928
 15.3583  24.4333
 15.3812  24.5193
 15.4043  24.5366
 15.4273  24.5562
 15.4503  24.4119
 15.4733  24.3768
 15.4963  24.4865
 15.5193  24.4932
 15.5423  24.5112
 15.5653  24.5195
 15.5883  24.4692
 15.6113  24.4775
 15.6343  24.4195
 15.6572  24.4515
 15.6803  24.4741
 15.7033  24.4703
 15.7263  24.439
 15.7492  24.3894
 15.7723  24.4767
 15.7953  24.5378
 15.8183  24.526
 15.8413  24.5181
 15.8643  24.54
 15.8873  24.6086
 15.9103  24.6599
 15.9332  24.6275
 15.9563  24.5607
 15.9793  24.5741
 16.0023  24.5849
 16.0253  24.624
 16.0482  24.7014
 16.0713  24.7063
 16.0943  24.7546
 16.1172  24.8727
 16.1403  24.9191
 16.1633  24.9812
 16.1863  25.355
 16.2093  26.5538
 16.2323  28.4758
 16.2553  29.7027
 16.2783  28.4217
 16.3012  26.2437
 16.3243  25.1851
 16.3472  24.8561
 16.3703  24.6243
 16.3933  24.6389
 16.4163  24.7124
 16.4393  24.7563
 16.4623  24.7477
 16.4853  24.7226
 16.5083  24.6417
 16.5312  24.5061
 16.5543  24.4395
 16.5773  24.5086
 16.6002  24.5432
 16.6233  24.5072
 16.6463  24.4363
 16.6693  24.4048
 16.6923  24.4438
 16.7153  24.3116
 16.7383  24.263
 16.7613  24.2991
 16.7843  24.3863
 16.8073  24.311
 16.8303  24.2953
 16.8533  24.3028
 16.8763  24.3336
 16.8992  24.26
 16.9223  24.2602
 16.9453  24.2172
 16.9683  24.2246
 16.9913  24.2461
 17.0143  24.2283
 17.0373  24.2101
 17.0603  24.0546
 17.0832  24.0593
 17.1063  24.1347
 17.1293  24.1896
 17.1522  24.2105
 17.1753  24.14
 17.1983  24.115
 17.2213  23.984
 17.2443  23.9706
 17.2673  23.9494
 17.2903  23.9512
 17.3133  23.9765
 17.3362  24.0564
 17.3593  24.1848
 17.3823  24.1096
 17.4053  24.0661
 17.4283  23.9942
 17.4513  23.8674
 17.4743  23.808
 17.4973  23.7705
 17.5203  23.7569
 17.5433  23.8038
 17.5663  23.8226
 17.5893  23.708
 17.6123  23.6792
 17.6352  23.7073
 17.6583  23.692
 17.6813  23.6775
 17.7042  23.6689
 17.7273  23.6851
 17.7503  23.7227
 17.7733  23.6897
 17.7963  23.7701
 17.8193  23.7252
 17.8423  23.7145
 17.8653  23.694
 17.8882  23.7156
 17.9113  23.7252
 17.9343  23.6832
 17.9573  23.6744
 17.9803  23.7329
 18.0033  23.8872
 18.0263  23.9298
 18.0493  23.8841
 18.0723  23.7764
 18.0953  23.8141
 18.1183  23.9352
 18.1413  24.0201
 18.1643  23.8223
 18.1872  23.5894
 18.2103  23.5557
 18.2333  23.4639
 18.2563  23.4287
 18.2793  23.4974
 18.3023  23.5305
 18.3253  23.4761
 18.3483  23.532
 18.3712  23.5799
 18.3943  23.5651
 18.4173  23.5382
 18.4402  23.5135
 18.4633  23.5529
 18.4863  23.4931
 18.5093  23.4347
 18.5323  23.374
 18.5553  23.4751
 18.5783  23.5394
 18.6013  23.546
 18.6242  23.4949
 18.6473  23.4352
 18.6703  23.4775
 18.6933  23.5427
 18.7163  23.5733
 18.7392  23.5173
 18.7623  23.4247
 18.7853  23.3411
 18.8083  23.3809
 18.8313  23.4184
 18.8543  23.411
 18.8773  23.337
 18.9003  23.4188
 18.9232  23.5114
 18.9463  23.6366
 18.9693  23.5288
 18.9922  23.4558
 19.0153  23.4902
 19.0383  23.5001
 19.0613  23.4493
 19.0843  23.4787
 19.1073  23.4032
 19.1303  23.3388
 19.1533  23.4315
 19.1762  23.4872
 19.1993  23.5592
 19.2223  23.4672
 19.2453  23.4153
 19.2683  23.497
 19.2913  23.532
 19.3143  23.5894
 19.3373  23.5582
 19.3603  23.5105
 19.3833  23.547
 19.4062  23.5739
 19.4293  23.5623
 19.4523  23.5457
 19.4752  23.5648
 19.4983  23.5529
 19.5213  23.6242
 19.5443  23.7126
 19.5673  23.74
 19.5903  23.747
 19.6133  23.8049
 19.6363  23.99
 19.6593  23.9647
 19.6823  23.9903
 19.7053  24.2306
 19.7283  24.336
 19.7513  24.2238
 19.7742  24.0035
 19.7973  23.9278
 19.8203  24.2655
 19.8433  24.4397
 19.8663  24.3589
 19.8893  24.3553
 19.9123  24.2643
 19.9353  23.9732
 19.9582  23.76
 19.9813  23.7055
 20.0043  23.6271
 20.0272  23.6048
 20.0503  23.5466
 20.0733  23.6117
 20.0963  23.6063
 20.1193  23.5669
 20.1423  23.5461
 20.1653  23.4734
 20.1883  23.4949
 20.2112  23.5062
 20.2343  23.6373
 20.2573  23.7073
 20.2803  23.659
 20.3033  23.5997
 20.3263  23.6159
 20.3493  23.716
 20.3723  23.6795
 20.3953  23.6878
 20.4183  23.7573
 20.4413  23.7388
 20.4643  23.7474
 20.4873  23.7758
 20.5102  23.6508
 20.5333  23.5201
 20.5563  23.603
 20.5792  23.6476
 20.6023  23.7109
 20.6253  23.7155
 20.6483  23.6746
 20.6713  23.7365
 20.6943  23.8324
 20.7173  23.9296
 20.7403  24.1591
 20.7632  24.3076
 20.7863  24.1365
 20.8093  23.9833
 20.8323  23.842
 20.8553  23.7748
 20.8783  23.7764
 20.9013  23.8736
 20.9243  23.8687
 20.9473  23.8045
 20.9703  23.7737
 20.9933  23.6996
 21.0163  23.7021
 21.0393  23.8397
 21.0622  23.891
 21.0853  23.8702
 21.1083  23.8092
 21.1313  23.7993
 21.1543  23.6468
 21.1773  23.7291
 21.2003  23.8405
 21.2233  23.8674
 21.2462  23.9396
 21.2693  23.9899
 21.2923  24.1903
 21.3152  24.5144
 21.3383  24.4593
 21.3613  24.1761
 21.3843  24.0338
 21.4073  23.9131
 21.4303  23.8891
 21.4533  23.8755
 21.4763  23.8465
 21.4992  23.9403
 21.5223  23.9314
 21.5453  23.9784
 21.5683  23.9323
 21.5913  23.9805
 21.6142  23.9965
 21.6373  24.0021
 21.6603  24.0269
 21.6833  24.0306
 21.7063  23.9697
 21.7293  23.9699
 21.7523  23.9927
 21.7753  24.0056
 21.7982  24.0254
 21.8213  24.0569
 21.8443  24.026
 21.8672  24.1131
 21.8903  24.1018
 21.9133  24.1171
 21.9363  24.1005
 21.9593  24.1113
 21.9823  24.173
 22.0053  24.2379
 22.0283  24.2838
 22.0512  24.1803
 22.0743  24.2324
 22.0973  24.2026
 22.1203  24.1545
 22.1433  24.1977
 22.1663  24.2072
 22.1893  24.1578
 22.2123  24.2134
 22.2353  24.257
 22.2583  24.2485
 22.2813  24.3361
 22.3043  24.3686
 22.3273  24.3994
 22.3502  24.3799
 22.3733  24.3628
 22.3963  24.3614
 22.4193  24.398
 22.4423  24.5095
 22.4653  24.5613
 22.4883  24.4758
 22.5113  24.4515
 22.5343  24.5859
 22.5573  24.7019
 22.5803  24.6672
 22.6033  24.7277
 22.6263  24.8632
 22.6493  24.8435
 22.6723  24.8032
 22.6953  24.9333
 22.7183  25.0166
 22.7413  25.0701
 22.7643  25.0583
 22.7873  24.991
 22.8103  25.1649
 22.8333  25.3256
 22.8563  25.4
 22.8793  25.5818
 22.9022  25.6082
 22.9253  25.7708
 22.9483  25.8121
 22.9713  25.8958
 22.9943  26.0431