File: test-data-xrd/xrd-map-34-ID-E/Data_0039.chi
F:\20151113_APS_34IDE\\Brian\Particle1\OCV\Data_0039.tif
2-Theta Angle (Degrees)
Intensity
       2000
 0.01725  0.0000000E+00
 0.04025  0.0000000E+00
 0.06325  0.0000000E+00
 0.08625  0.0000000E+00
 0.10925  0.0000000E+00
 0.13225  0.0000000E+00
 0.15525  0.0000000E+00
 0.17825  0.0000000E+00
 0.20125  0.0000000E+00
 0.22425  0.0000000E+00
 0.24725  0.0000000E+00
 0.27025  0.0000000E+00
 0.29325  0.0000000E+00
 0.31625  0.0000000E+00
 0.33925  0.0000000E+00
 0.36225  0.0000000E+00
 0.38525  0.0000000E+00
 0.40825  0.0000000E+00
 0.43125  0.0000000E+00
 0.45425  0.0000000E+00
 0.47725  0.0000000E+00
 0.50025  0.0000000E+00
 0.52325  0.0000000E+00
 0.54625  0.0000000E+00
 0.56925  0.0000000E+00
 0.59225  0.0000000E+00
 0.61525  0.0000000E+00
 0.63825  0.0000000E+00
 0.66125  0.0000000E+00
 0.68425  0.0000000E+00
 0.70725  0.0000000E+00
 0.73025  0.0000000E+00
 0.75325  0.0000000E+00
 0.77625  0.0000000E+00
 0.79925  0.0000000E+00
 0.82225  0.0000000E+00
 0.84525  0.0000000E+00
 0.86825  0.0000000E+00
 0.89125  0.0000000E+00
 0.91425  0.0000000E+00
 0.93725  0.0000000E+00
 0.96025  0.0000000E+00
 0.98325  0.0000000E+00
 1.00625  0.0000000E+00
 1.02925  0.0000000E+00
 1.05225  0.0000000E+00
 1.07525  0.0000000E+00
 1.09825  0.0000000E+00
 1.12125  0.0000000E+00
 1.14425  0.0000000E+00
 1.16725  0.0000000E+00
 1.19025  0.0000000E+00
 1.21325  0.0000000E+00
 1.23625  0.0000000E+00
 1.25925  0.0000000E+00
 1.28225  0.0000000E+00
 1.30525  0.0000000E+00
 1.32825  0.0000000E+00
 1.35125  0.0000000E+00
 1.37425  0.0000000E+00
 1.39725  0.0000000E+00
 1.42025  0.0000000E+00
 1.44325  0.0000000E+00
 1.46625  0.0000000E+00
 1.48925  0.0000000E+00
 1.51225  0.0000000E+00
 1.53525  0.0000000E+00
 1.55825  0.0000000E+00
 1.58125  0.0000000E+00
 1.60425  0.0000000E+00
 1.62725  0.0000000E+00
 1.65025  0.0000000E+00
 1.67325  0.0000000E+00
 1.69625  0.0000000E+00
 1.71925  0.0000000E+00
 1.74225  0.0000000E+00
 1.76525  0.0000000E+00
 1.78825  0.0000000E+00
 1.81125  0.0000000E+00
 1.83425  0.0000000E+00
 1.85725  0.0000000E+00
 1.88025  0.0000000E+00
 1.90325  0.0000000E+00
 1.92625  0.0000000E+00
 1.94925  0.0000000E+00
 1.97225  0.0000000E+00
 1.99525  0.0000000E+00
 2.01825  0.0000000E+00
 2.04125  0.0000000E+00
 2.06425  0.0000000E+00
 2.08725  0.0000000E+00
 2.11025  0.0000000E+00
 2.13325  0.0000000E+00
 2.15625  0.0000000E+00
 2.17925  0.0000000E+00
 2.20225  0.0000000E+00
 2.22525  0.0000000E+00
 2.24825  0.0000000E+00
 2.27125  0.0000000E+00
 2.29425  0.0000000E+00
 2.31725  0.0000000E+00
 2.34025  0.0000000E+00
 2.36325  0.0000000E+00
 2.38625  0.0000000E+00
 2.40925  0.0000000E+00
 2.43225  0.0000000E+00
 2.45525  0.0000000E+00
 2.47825  0.0000000E+00
 2.50125  0.0000000E+00
 2.52425  0.0000000E+00
 2.54725  0.0000000E+00
 2.57025  0.0000000E+00
 2.59325  0.0000000E+00
 2.61625  0.0000000E+00
 2.63925  0.0000000E+00
 2.66225  0.0000000E+00
 2.68525  0.0000000E+00
 2.70825  0.0000000E+00
 2.73125  0.0000000E+00
 2.75425  0.0000000E+00
 2.77725  0.0000000E+00
 2.80025  0.0000000E+00
 2.82325  34.1045
 2.84625  34.026
 2.86925  34.5263
 2.89225  35.4067
 2.91525  36.6379
 2.93825  36.9474
 2.96125  37.0992
 2.98425  36.1867
 3.00725  36.2488
 3.03025  36.2063
 3.05325  35.2167
 3.07625  35.4284
 3.09925  35.9685
 3.12225  36.1305
 3.14525  35.9132
 3.16825  35.4786
 3.19125  35.2935
 3.21425  35.288
 3.23725  34.9787
 3.26025  34.1218
 3.28325  33.3325
 3.30625  33.583
 3.32925  34.2202
 3.35225  34.5838
 3.37525  34.4816
 3.39825  33.6891
 3.42125  33.2117
 3.44425  33.6631
 3.46725  33.9233
 3.49025  34.2737
 3.51325  33.9196
 3.53625  33.4878
 3.55925  33.2322
 3.58225  32.9607
 3.60525  32.8953
 3.62825  32.7784
 3.65125  32.8027
 3.67425  32.8951
 3.69725  32.842
 3.72025  32.6109
 3.74325  32.5577
 3.76625  32.6167
 3.78925  32.6753
 3.81225  32.2264
 3.83525  32.0629
 3.85825  32.0359
 3.88125  32.1388
 3.90425  32.0539
 3.92725  31.9785
 3.95025  32.1496
 3.97325  32.1239
 3.99625  32.1583
 4.01925  32.1059
 4.04225  31.9615
 4.06525  32.0731
 4.08825  32.4851
 4.11125  32.4858
 4.13425  32.2896
 4.15725  32.2263
 4.18025  31.9144
 4.20325  31.8392
 4.22625  32.1333
 4.24925  32.3655
 4.27225  32.3837
 4.29525  32.2521
 4.31825  32.2144
 4.34125  32.2874
 4.36425  32.0997
 4.38725  32.0407
 4.41025  32.0704
 4.43325  32.1417
 4.45625  32.1187
 4.47925  32.0822
 4.50225  32.072
 4.52525  31.9735
 4.54825  31.9548
 4.57125  32.1027
 4.59425  32.3194
 4.61725  32.2163
 4.64025  32.1934
 4.66325  32.5353
 4.68625  32.6142
 4.70925  32.5683
 4.73225  32.27
 4.75525  32.1534
 4.77825  32.1375
 4.80125  32.1351
 4.82425  32.3253
 4.84725  32.3528
 4.87025  32.5734
 4.89325  32.653
 4.91625  32.5916
 4.93925  32.5588
 4.96225  32.5771
 4.98525  32.7548
 5.00825  32.742
 5.03125  32.7072
 5.05425  32.6895
 5.07725  32.7023
 5.10025  32.9601
 5.12325  32.9911
 5.14625  33.1997
 5.16925  33.2697
 5.19225  33.4992
 5.21525  33.4785
 5.23825  33.5347
 5.26125  33.6417
 5.28425  33.8599
 5.30725  34.0622
 5.33025  34.0643
 5.35325  34.2317
 5.37625  34.2828
 5.39925  34.0695
 5.42225  34.0289
 5.44525  34.1702
 5.46825  34.324
 5.49125  34.3046
 5.51425  34.3806
 5.53725  34.4378
 5.56025  34.4252
 5.58325  34.7163
 5.60625  34.9593
 5.62925  34.9527
 5.65225  34.991
 5.67525  35.2015
 5.69825  35.307
 5.72125  35.3655
 5.74425  35.6222
 5.76725  35.6303
 5.79025  35.8883
 5.81325  36.0773
 5.83625  36.1142
 5.85925  36.2194
 5.88225  36.7802
 5.90525  38.8354
 5.92825  43.3933
 5.95125  50.3072
 5.97425  56.9446
 5.99725  53.1149
 6.02025  46.2081
 6.04325  40.2854
 6.06625  38.0631
 6.08925  37.3947
 6.11225  37.2194
 6.13525  36.95
 6.15825  36.9566
 6.18125  37.0177
 6.20425  37.0319
 6.22725  37.2306
 6.25025  37.2951
 6.27325  37.2757
 6.29625  37.4431
 6.31925  37.4152
 6.34225  37.4464
 6.36525  37.6834
 6.38825  38.0761
 6.41125  38.1279
 6.43425  38.1814
 6.45725  38.2302
 6.48025  38.3151
 6.50325  38.6195
 6.52625  38.9472
 6.54925  38.8212
 6.57225  38.8797
 6.59525  38.9548
 6.61825  39.1548
 6.64125  39.3944
 6.66425  39.6607
 6.68725  39.848
 6.71025  40.0634
 6.73325  40.2698
 6.75625  40.5638
 6.77925  40.6777
 6.80225  40.7241
 6.82525  40.9369
 6.84825  41.1769
 6.87125  41.5727
 6.89425  41.7877
 6.91725  41.8657
 6.94025  41.8452
 6.96325  41.484
 6.98625  41.4602
 7.00925  41.5423
 7.03225  41.7611
 7.05525  42.1197
 7.07825  42.3686
 7.10125  42.4834
 7.12425  42.7273
 7.14725  42.7946
 7.17025  42.7931
 7.19325  42.906
 7.21625  42.9695
 7.23925  43.0712
 7.26225  43.2181
 7.28525  43.3528
 7.30825  43.5224
 7.33125  43.5977
 7.35425  43.5484
 7.37725  43.4808
 7.40025  43.6245
 7.42325  43.8013
 7.44625  43.943
 7.46925  44.0356
 7.49225  43.9584
 7.51525  43.9248
 7.53825  44.0976
 7.56125  44.0485
 7.58425  44.0229
 7.60725  44.0052
 7.63025  43.9818
 7.65325  43.867
 7.67625  43.7378
 7.69925  43.6854
 7.72225  43.8627
 7.74525  44.0636
 7.76825  44.1663
 7.79125  44.1064
 7.81425  43.9442
 7.83725  43.9231
 7.86025  43.7606
 7.88325  43.2732
 7.90625  43.2324
 7.92925  43.317
 7.95225  43.2836
 7.97525  43.2805
 7.99825  43.4851
 8.02125  43.3894
 8.04425  43.0287
 8.06725  42.6158
 8.09025  42.356
 8.11325  42.4023
 8.13625  42.2573
 8.15925  41.9498
 8.18225  41.667
 8.20525  41.5609
 8.22825  41.2925
 8.25125  41.03
 8.27425  40.6768
 8.29725  40.3721
 8.32025  40.1362
 8.34325  39.9577
 8.36625  39.7368
 8.38925  39.5063
 8.41225  39.3576
 8.43525  38.9599
 8.45825  38.537
 8.48125  38.0242
 8.50425  37.4328
 8.52725  37.0884
 8.55025  36.9109
 8.57325  36.7449
 8.59625  36.4672
 8.61925  36.1904
 8.64225  35.8336
 8.66525  35.2441
 8.68825  34.8485
 8.71125  34.5151
 8.73425  34.1868
 8.75725  33.8895
 8.78025  33.5271
 8.80325  33.1908
 8.82625  32.9733
 8.84925  32.7522
 8.87225  32.5057
 8.89525  32.2375
 8.91825  31.8371
 8.94125  31.4644
 8.96425  31.2015
 8.98725  30.8546
 9.01025  30.3501
 9.03325  30.0551
 9.05625  29.9226
 9.07925  29.8748
 9.10225  29.7922
 9.12525  29.3725
 9.14825  28.9911
 9.17125  28.7755
 9.19425  28.5358
 9.21725  28.3306
 9.24025  28.175
 9.26325  28.0535
 9.28625  27.888
 9.30925  27.6994
 9.33225  27.4789
 9.35525  27.4132
 9.37825  27.3899
 9.40125  27.1801
 9.42425  26.922
 9.44725  26.7098
 9.47025  26.5768
 9.49325  26.4891
 9.51625  26.5692
 9.53925  26.3678
 9.56225  26.1081
 9.58525  25.7897
 9.60825  25.7019
 9.63125  25.67
 9.65425  25.5507
 9.67725  25.3841
 9.70025  25.312
 9.72325  25.3409
 9.74625  25.2026
 9.76925  25.093
 9.79225  24.9497
 9.81525  24.7975
 9.83825  24.7672
 9.86125  24.8508
 9.88425  24.7738
 9.90725  24.7446
 9.93025  24.6198
 9.95325  24.4382
 9.97625  24.2963
 9.99925  24.2072
 10.0222  24.1878
 10.0453  24.1414
 10.0683  24.0709
 10.0913  24.0213
 10.1143  24.0038
 10.1373  23.9792
 10.1603  23.9713
 10.1832  23.9511
 10.2063  23.9051
 10.2293  23.8336
 10.2523  23.7474
 10.2752  23.6987
 10.2982  23.682
 10.3213  23.6837
 10.3443  23.59
 10.3673  23.4801
 10.3902  23.4138
 10.4133  23.4364
 10.4363  23.3175
 10.4593  23.2325
 10.4823  23.3498
 10.5053  23.3254
 10.5283  23.198
 10.5512  23.1339
 10.5742  23.0627
 10.5973  22.9911
 10.6203  22.9501
 10.6433  23.0747
 10.6662  23.1155
 10.6893  23.0043
 10.7123  22.98
 10.7353  23.0282
 10.7583  22.9681
 10.7813  22.8915
 10.8043  22.8251
 10.8272  22.7898
 10.8503  22.824
 10.8733  22.7881
 10.8963  22.6298
 10.9192  22.6632
 10.9422  22.6694
 10.9653  22.667
 10.9883  22.6404
 11.0113  22.6894
 11.0343  22.7091
 11.0573  22.6192
 11.0803  22.6294
 11.1033  22.6615
 11.1263  22.6952
 11.1493  22.6218
 11.1723  22.6542
 11.1953  22.5759
 11.2182  22.5335
 11.2413  22.604
 11.2643  22.6091
 11.2873  22.451
 11.3102  22.3122
 11.3333  22.342
 11.3563  22.4613
 11.3793  22.6956
 11.4023  22.9857
 11.4253  23.0508
 11.4483  22.9365
 11.4713  23.0313
 11.4942  23.0654
 11.5173  23.3713
 11.5403  24.6497
 11.5633  26.8709
 11.5862  29.8653
 11.6093  29.8329
 11.6323  27.1333
 11.6553  24.5297
 11.6783  23.2888
 11.7013  22.8271
 11.7243  22.6079
 11.7473  22.6455
 11.7703  22.6672
 11.7933  22.5935
 11.8163  22.6662
 11.8393  22.7484
 11.8622  22.7206
 11.8853  22.6549
 11.9083  22.6654
 11.9313  22.9319
 11.9543  23.3831
 11.9773  23.747
 12.0003  23.9944
 12.0233  24.0276
 12.0463  24.3086
 12.0693  25.4543
 12.0923  27.5541
 12.1153  28.0568
 12.1382  26.3962
 12.1613  24.4977
 12.1843  23.3351
 12.2073  22.8795
 12.2302  22.7243
 12.2533  22.6599
 12.2763  22.6003
 12.2993  22.6064
 12.3223  22.7346
 12.3453  22.7219
 12.3683  22.7443
 12.3913  22.806
 12.4142  22.606
 12.4373  22.6115
 12.4603  22.6924
 12.4833  22.694
 12.5062  22.6792
 12.5292  22.6948
 12.5523  22.7807
 12.5753  22.8547
 12.5983  22.8749
 12.6212  22.9211
 12.6443  22.969
 12.6673  22.8559
 12.6903  22.8955
 12.7133  23.0594
 12.7363  23.1606
 12.7593  23.2442
 12.7822  23.2465
 12.8052  23.2403
 12.8283  23.3021
 12.8513  23.3103
 12.8742  23.3231
 12.8972  23.4705
 12.9203  23.6761
 12.9433  23.7402
 12.9663  23.8213
 12.9893  23.9333
 13.0123  24.0761
 13.0353  24.2538
 13.0582  24.4266
 13.0813  24.4891
 13.1043  24.7317
 13.1273  24.9758
 13.1502  25.2084
 13.1732  25.4811
 13.1963  25.6708
 13.2193  25.954
 13.2423  26.3649
 13.2652  26.5493
 13.2883  26.7915
 13.3113  26.9729
 13.3343  27.2208
 13.3573  27.5745
 13.3803  27.9528
 13.4033  28.2588
 13.4262  28.4404
 13.4492  28.6813
 13.4723  28.868
 13.4953  29.101
 13.5183  29.3269
 13.5412  29.4545
 13.5643  29.4845
 13.5873  29.539
 13.6103  29.583
 13.6333  29.6992
 13.6563  29.6814
 13.6793  29.6517
 13.7022  29.5299
 13.7253  29.5627
 13.7483  29.587
 13.7713  29.5698
 13.7942  29.6566
 13.8172  29.9082
 13.8403  30.1083
 13.8633  30.8381
 13.8863  34.0168
 13.9093  40.9283
 13.9323  48.3719
 13.9553  50.9879
 13.9783  46.6922
 14.0013  38.7014
 14.0243  32.4574
 14.0473  29.8176
 14.0703  28.8985
 14.0932  28.4074
 14.1163  27.9031
 14.1393  27.5145
 14.1623  27.3267
 14.1852  27.1139
 14.2083  26.8723
 14.2313  26.6518
 14.2543  26.4733
 14.2773  26.3491
 14.3003  26.393
 14.3233  26.3097
 14.3463  26.2794
 14.3692  26.2223
 14.3923  26.1189
 14.4153  25.9655
 14.4383  25.855
 14.4612  25.8348
 14.4843  25.676
 14.5073  25.5733
 14.5303  25.6256
 14.5533  25.6642
 14.5763  25.5957
 14.5993  25.4498
 14.6223  25.4226
 14.6453  25.3182
 14.6683  25.3093
 14.6913  25.3342
 14.7143  25.2703
 14.7372  25.2762
 14.7603  25.169
 14.7833  25.1174
 14.8063  25.0029
 14.8293  24.945
 14.8523  25.0076
 14.8753  24.9644
 14.8983  24.9
 14.9213  24.8597
 14.9443  24.8885
 14.9673  24.8611
 14.9903  24.9002
 15.0132  24.9242
 15.0363  24.9085
 15.0593  24.7787
 15.0823  24.6827
 15.1052  24.8522
 15.1283  25.1318
 15.1513  25.5745
 15.1743  26.3886
 15.1973  27.2147
 15.2203  27.0822
 15.2433  26.1353
 15.2663  25.2862
 15.2892  25.0604
 15.3123  24.9032
 15.3353  24.8
 15.3583  24.7347
 15.3812  24.6618
 15.4043  24.596
 15.4273  24.5693
 15.4503  24.5818
 15.4733  24.5236
 15.4963  24.5933
 15.5193  24.6623
 15.5423  24.644
 15.5653  24.6263
 15.5883  24.5156
 15.6113  24.5234
 15.6343  24.6153
 15.6572  24.6352
 15.6803  24.6313
 15.7033  24.6043
 15.7263  24.6097
 15.7492  24.653
 15.7723  24.6636
 15.7953  24.6898
 15.8183  24.7188
 15.8413  24.6358
 15.8643  24.5914
 15.8873  24.7403
 15.9103  24.8403
 15.9332  24.7996
 15.9563  24.5778
 15.9793  24.5749
 16.0023  24.7009
 16.0253  24.7718
 16.0482  24.7346
 16.0713  24.729
 16.0943  24.7155
 16.1172  24.7759
 16.1403  24.8452
 16.1633  24.9477
 16.1863  25.0765
 16.2093  25.3227
 16.2323  25.563
 16.2553  25.8138
 16.2783  25.7052
 16.3012  25.2251
 16.3243  24.9105
 16.3472  24.7721
 16.3703  24.7234
 16.3933  24.7269
 16.4163  24.6877
 16.4393  24.6976
 16.4623  24.6812
 16.4853  24.6795
 16.5083  24.6552
 16.5312  24.6028
 16.5543  24.6188
 16.5773  24.612
 16.6002  24.6915
 16.6233  24.74
 16.6463  24.653
 16.6693  24.6456
 16.6923  24.642
 16.7153  24.6287
 16.7383  24.5867
 16.7613  24.5469
 16.7843  24.4691
 16.8073  24.5301
 16.8303  24.5216
 16.8533  24.5509
 16.8763  24.5448
 16.8992  24.5177
 16.9223  24.4692
 16.9453  24.4535
 16.9683  24.376
 16.9913  24.3379
 17.0143  24.3781
 17.0373  24.3796
 17.0603  24.3653
 17.0832  24.3017
 17.1063  24.2761
 17.1293  24.2901
 17.1522  24.3494
 17.1753  24.3205
 17.1983  24.22
 17.2213  24.2369
 17.2443  24.2592
 17.2673  24.2037
 17.2903  24.1336
 17.3133  24.1709
 17.3362  24.2021
 17.3593  24.0953
 17.3823  24.0041
 17.4053  24.0614
 17.4283  24.1242
 17.4513  24.1628
 17.4743  24.0717
 17.4973  24.0045
 17.5203  24.0291
 17.5433  24.1255
 17.5663  24.1036
 17.5893  24.0955
 17.6123  24.0602
 17.6352  23.9464
 17.6583  23.819
 17.6813  23.8682
 17.7042  23.9575
 17.7273  23.8941
 17.7503  23.8094
 17.7733  23.8776
 17.7963  23.9601
 17.8193  23.9362
 17.8423  23.9573
 17.8653  23.933
 17.8882  23.8841
 17.9113  23.9439
 17.9343  23.9606
 17.9573  24.0021
 17.9803  24.1725
 18.0033  24.4457
 18.0263  24.6763
 18.0493  24.7905
 18.0723  24.9395
 18.0953  25.3638
 18.1183  25.6284
 18.1413  25.2869
 18.1643  24.5736
 18.1872  24.0901
 18.2103  23.8927
 18.2333  23.8467
 18.2563  23.8633
 18.2793  23.8542
 18.3023  23.8112
 18.3253  23.7594
 18.3483  23.7988
 18.3712  23.7662
 18.3943  23.7221
 18.4173  23.7448
 18.4402  23.7232
 18.4633  23.7052
 18.4863  23.6649
 18.5093  23.6443
 18.5323  23.5476
 18.5553  23.6268
 18.5783  23.6965
 18.6013  23.7557
 18.6242  23.675
 18.6473  23.6582
 18.6703  23.6243
 18.6933  23.7252
 18.7163  23.6597
 18.7392  23.6298
 18.7623  23.5998
 18.7853  23.5549
 18.8083  23.5568
 18.8313  23.5634
 18.8543  23.6006
 18.8773  23.4863
 18.9003  23.4851
 18.9232  23.583
 18.9463  23.6807
 18.9693  23.7336
 18.9922  23.6422
 19.0153  23.6096
 19.0383  23.6188
 19.0613  23.6214
 19.0843  23.6744
 19.1073  23.5911
 19.1303  23.6757
 19.1533  23.7044
 19.1762  23.5876
 19.1993  23.6344
 19.2223  23.6968
 19.2453  23.6518
 19.2683  23.6716
 19.2913  23.7218
 19.3143  23.7561
 19.3373  23.7449
 19.3603  23.7946
 19.3833  23.839
 19.4062  23.8677
 19.4293  23.8033
 19.4523  23.8145
 19.4752  23.8153
 19.4983  23.7901
 19.5213  23.8631
 19.5443  24.0213
 19.5673  24.098
 19.5903  24.1497
 19.6133  24.2863
 19.6363  24.7643
 19.6593  25.8811
 19.6823  27.5821
 19.7053  29.5811
 19.7283  29.9392
 19.7513  28.1786
 19.7742  26.3229
 19.7973  25.9012
 19.8203  26.5672
 19.8433  27.9798
 19.8663  28.6106
 19.8893  27.6966
 19.9123  26.102
 19.9353  24.9192
 19.9582  24.3658
 19.9813  24.1238
 20.0043  24.0778
 20.0272  24.0139
 20.0503  24.0042
 20.0733  23.9899
 20.0963  24.0274
 20.1193  24.0274
 20.1423  23.9288
 20.1653  23.8469
 20.1883  23.8777
 20.2112  23.8931
 20.2343  23.8697
 20.2573  23.8781
 20.2803  23.9254
 20.3033  23.9749
 20.3263  23.9239
 20.3493  23.9888
 20.3723  23.9128
 20.3953  23.8715
 20.4183  23.9682
 20.4413  23.9187
 20.4643  23.8383
 20.4873  23.8603
 20.5102  23.8795
 20.5333  25.1385
 20.5563  62.1368
 20.5792  110.863
 20.6023  105.666
 20.6253  72.805
 20.6483  24.3741
 20.6713  24.3229
 20.6943  24.8094
 20.7173  25.9069
 20.7403  27.3208
 20.7632  28.6445
 20.7863  28.6344
 20.8093  26.9746
 20.8323  25.3377
 20.8553  24.6007
 20.8783  24.3162
 20.9013  24.2596
 20.9243  24.2184
 20.9473  24.2382
 20.9703  24.1408
 20.9933  24.0939
 21.0163  24.1297
 21.0393  24.0906
 21.0622  23.9267
 21.0853  23.9286
 21.1083  23.892
 21.1313  24.0146
 21.1543  23.9493
 21.1773  23.9763
 21.2003  24.0119
 21.2233  24.0356
 21.2462  24.0579
 21.2693  24.0819
 21.2923  24.0819
 21.3152  24.0685
 21.3383  24.0532
 21.3613  24.0351
 21.3843  24.0844
 21.4073  24.0854
 21.4303  24.0774
 21.4533  24.0025
 21.4763  24.012
 21.4992  24.0327
 21.5223  24.0882
 21.5453  24.0565
 21.5683  24.0701
 21.5913  24.1054
 21.6142  24.3176
 21.6373  24.2261
 21.6603  24.1947
 21.6833  24.1598
 21.7063  24.1298
 21.7293  24.1491
 21.7523  24.1317
 21.7753  24.2174
 21.7982  24.329
 21.8213  24.391
 21.8443  24.305
 21.8672  24.2952
 21.8903  24.2926
 21.9133  24.2383
 21.9363  24.3459
 21.9593  24.3446
 21.9823  24.314
 22.0053  24.2649
 22.0283  24.2816
 22.0512  24.2856
 22.0743  24.2951
 22.0973  24.3705
 22.1203  24.4313
 22.1433  24.4478
 22.1663  24.4156
 22.1893  24.3219
 22.2123  24.342
 22.2353  24.4497
 22.2583  24.475
 22.2813  24.4736
 22.3043  24.5485
 22.3273  24.5836
 22.3502  24.5294
 22.3733  24.5677
 22.3963  24.6035
 22.4193  24.6069
 22.4423  24.7232
 22.4653  24.7664
 22.4883  24.7532
 22.5113  24.8939
 22.5343  24.9501
 22.5573  25.003
 22.5803  24.9523
 22.6033  25.0209
 22.6263  25.086
 22.6493  25.0113
 22.6723  24.9673
 22.6953  25.1566
 22.7183  25.2265
 22.7413  25.2983
 22.7643  25.4386
 22.7873  25.4846
 22.8103  25.5873
 22.8333  25.6576
 22.8563  25.6435
 22.8793  25.7787
 22.9022  25.991
 22.9253  26.1566
 22.9483  26.2539
 22.9713  26.4363
 22.9943  26.784