File: test-data-xrd/xrd-map-34-ID-E/Data_0013.chi
F:\20151113_APS_34IDE\\Brian\Particle1\OCV\Data_0013.tif
2-Theta Angle (Degrees)
Intensity
       2000
 0.01725  0.0000000E+00
 0.04025  0.0000000E+00
 0.06325  0.0000000E+00
 0.08625  0.0000000E+00
 0.10925  0.0000000E+00
 0.13225  0.0000000E+00
 0.15525  0.0000000E+00
 0.17825  0.0000000E+00
 0.20125  0.0000000E+00
 0.22425  0.0000000E+00
 0.24725  0.0000000E+00
 0.27025  0.0000000E+00
 0.29325  0.0000000E+00
 0.31625  0.0000000E+00
 0.33925  0.0000000E+00
 0.36225  0.0000000E+00
 0.38525  0.0000000E+00
 0.40825  0.0000000E+00
 0.43125  0.0000000E+00
 0.45425  0.0000000E+00
 0.47725  0.0000000E+00
 0.50025  0.0000000E+00
 0.52325  0.0000000E+00
 0.54625  0.0000000E+00
 0.56925  0.0000000E+00
 0.59225  0.0000000E+00
 0.61525  0.0000000E+00
 0.63825  0.0000000E+00
 0.66125  0.0000000E+00
 0.68425  0.0000000E+00
 0.70725  0.0000000E+00
 0.73025  0.0000000E+00
 0.75325  0.0000000E+00
 0.77625  0.0000000E+00
 0.79925  0.0000000E+00
 0.82225  0.0000000E+00
 0.84525  0.0000000E+00
 0.86825  0.0000000E+00
 0.89125  0.0000000E+00
 0.91425  0.0000000E+00
 0.93725  0.0000000E+00
 0.96025  0.0000000E+00
 0.98325  0.0000000E+00
 1.00625  0.0000000E+00
 1.02925  0.0000000E+00
 1.05225  0.0000000E+00
 1.07525  0.0000000E+00
 1.09825  0.0000000E+00
 1.12125  0.0000000E+00
 1.14425  0.0000000E+00
 1.16725  0.0000000E+00
 1.19025  0.0000000E+00
 1.21325  0.0000000E+00
 1.23625  0.0000000E+00
 1.25925  0.0000000E+00
 1.28225  0.0000000E+00
 1.30525  0.0000000E+00
 1.32825  0.0000000E+00
 1.35125  0.0000000E+00
 1.37425  0.0000000E+00
 1.39725  0.0000000E+00
 1.42025  0.0000000E+00
 1.44325  0.0000000E+00
 1.46625  0.0000000E+00
 1.48925  0.0000000E+00
 1.51225  0.0000000E+00
 1.53525  0.0000000E+00
 1.55825  0.0000000E+00
 1.58125  0.0000000E+00
 1.60425  0.0000000E+00
 1.62725  0.0000000E+00
 1.65025  0.0000000E+00
 1.67325  0.0000000E+00
 1.69625  0.0000000E+00
 1.71925  0.0000000E+00
 1.74225  0.0000000E+00
 1.76525  0.0000000E+00
 1.78825  0.0000000E+00
 1.81125  0.0000000E+00
 1.83425  0.0000000E+00
 1.85725  0.0000000E+00
 1.88025  0.0000000E+00
 1.90325  0.0000000E+00
 1.92625  0.0000000E+00
 1.94925  0.0000000E+00
 1.97225  0.0000000E+00
 1.99525  0.0000000E+00
 2.01825  0.0000000E+00
 2.04125  0.0000000E+00
 2.06425  0.0000000E+00
 2.08725  0.0000000E+00
 2.11025  0.0000000E+00
 2.13325  0.0000000E+00
 2.15625  0.0000000E+00
 2.17925  0.0000000E+00
 2.20225  0.0000000E+00
 2.22525  0.0000000E+00
 2.24825  0.0000000E+00
 2.27125  0.0000000E+00
 2.29425  0.0000000E+00
 2.31725  0.0000000E+00
 2.34025  0.0000000E+00
 2.36325  0.0000000E+00
 2.38625  0.0000000E+00
 2.40925  0.0000000E+00
 2.43225  0.0000000E+00
 2.45525  0.0000000E+00
 2.47825  0.0000000E+00
 2.50125  0.0000000E+00
 2.52425  0.0000000E+00
 2.54725  0.0000000E+00
 2.57025  0.0000000E+00
 2.59325  0.0000000E+00
 2.61625  0.0000000E+00
 2.63925  0.0000000E+00
 2.66225  0.0000000E+00
 2.68525  0.0000000E+00
 2.70825  0.0000000E+00
 2.73125  0.0000000E+00
 2.75425  0.0000000E+00
 2.77725  0.0000000E+00
 2.80025  0.0000000E+00
 2.82325  31.4162
 2.84625  34.6976
 2.86925  34.9972
 2.89225  35.1933
 2.91525  35.9281
 2.93825  36.2806
 2.96125  35.8286
 2.98425  35.4598
 3.00725  35.9804
 3.03025  36.8248
 3.05325  36.3433
 3.07625  34.8143
 3.09925  34.4118
 3.12225  34.5034
 3.14525  34.5608
 3.16825  34.8186
 3.19125  34.7649
 3.21425  35.0966
 3.23725  35.2161
 3.26025  35.1143
 3.28325  34.8134
 3.30625  34.9499
 3.32925  34.816
 3.35225  34.5581
 3.37525  35.0411
 3.39825  35.6204
 3.42125  34.7567
 3.44425  34.3676
 3.46725  34.2681
 3.49025  34.0967
 3.51325  33.9938
 3.53625  34.2881
 3.55925  34.3992
 3.58225  34.3496
 3.60525  34.3743
 3.62825  34.2577
 3.65125  34.2087
 3.67425  33.8373
 3.69725  33.3912
 3.72025  33.4486
 3.74325  33.6111
 3.76625  33.6803
 3.78925  33.4885
 3.81225  33.6786
 3.83525  33.6086
 3.85825  33.2471
 3.88125  33.0453
 3.90425  32.8262
 3.92725  32.9575
 3.95025  33.0746
 3.97325  33.3036
 3.99625  33.1497
 4.01925  32.6405
 4.04225  32.4119
 4.06525  32.5261
 4.08825  32.8953
 4.11125  32.831
 4.13425  32.7209
 4.15725  32.8325
 4.18025  32.6463
 4.20325  32.6726
 4.22625  32.7588
 4.24925  32.5205
 4.27225  32.1966
 4.29525  32.1346
 4.31825  32.3667
 4.34125  32.5852
 4.36425  32.7473
 4.38725  32.841
 4.41025  32.8533
 4.43325  32.9801
 4.45625  32.8211
 4.47925  32.9103
 4.50225  32.8685
 4.52525  32.917
 4.54825  32.9632
 4.57125  32.8851
 4.59425  32.9254
 4.61725  32.9018
 4.64025  32.8617
 4.66325  32.9921
 4.68625  32.9798
 4.70925  32.9643
 4.73225  32.911
 4.75525  32.6943
 4.77825  32.7312
 4.80125  32.7499
 4.82425  32.9957
 4.84725  33.1391
 4.87025  33.2081
 4.89325  33.2881
 4.91625  33.3769
 4.93925  33.4561
 4.96225  33.3881
 4.98525  33.4405
 5.00825  33.545
 5.03125  33.7832
 5.05425  33.7887
 5.07725  33.7462
 5.10025  33.7487
 5.12325  33.7233
 5.14625  33.8789
 5.16925  34.0358
 5.19225  34.2327
 5.21525  34.0506
 5.23825  33.9787
 5.26125  34.2425
 5.28425  34.434
 5.30725  34.4626
 5.33025  34.4757
 5.35325  34.4855
 5.37625  34.5817
 5.39925  34.9191
 5.42225  34.9464
 5.44525  34.9128
 5.46825  34.9317
 5.49125  34.8467
 5.51425  34.9677
 5.53725  35.0031
 5.56025  35.036
 5.58325  35.2586
 5.60625  35.4719
 5.62925  35.5499
 5.65225  35.6252
 5.67525  35.8099
 5.69825  35.8087
 5.72125  36.0328
 5.74425  36.1694
 5.76725  36.2514
 5.79025  36.3764
 5.81325  36.2677
 5.83625  36.3209
 5.85925  36.461
 5.88225  36.8065
 5.90525  37.3223
 5.92825  38.2853
 5.95125  41.1815
 5.97425  44.1999
 5.99725  44.077
 6.02025  41.4015
 6.04325  39.1844
 6.06625  38.0651
 6.08925  37.4549
 6.11225  37.2543
 6.13525  37.14
 6.15825  37.1036
 6.18125  37.3
 6.20425  37.4848
 6.22725  37.821
 6.25025  37.8941
 6.27325  38.1308
 6.29625  38.3782
 6.31925  38.4493
 6.34225  38.5369
 6.36525  38.5748
 6.38825  38.7897
 6.41125  38.9066
 6.43425  38.9459
 6.45725  38.982
 6.48025  39.1448
 6.50325  39.5217
 6.52625  39.5982
 6.54925  39.7709
 6.57225  39.8895
 6.59525  39.9708
 6.61825  40.1502
 6.64125  40.453
 6.66425  40.6249
 6.68725  40.5248
 6.71025  40.5879
 6.73325  40.9364
 6.75625  41.1724
 6.77925  41.3351
 6.80225  41.5045
 6.82525  41.7456
 6.84825  41.8941
 6.87125  42.0433
 6.89425  42.3283
 6.91725  42.57
 6.94025  42.5081
 6.96325  42.4534
 6.98625  42.3791
 7.00925  42.7399
 7.03225  43.0588
 7.05525  43.3368
 7.07825  43.3785
 7.10125  43.3577
 7.12425  43.493
 7.14725  43.632
 7.17025  43.6912
 7.19325  43.9557
 7.21625  44.2809
 7.23925  44.3278
 7.26225  44.2988
 7.28525  44.323
 7.30825  44.3517
 7.33125  44.4249
 7.35425  44.4803
 7.37725  44.6334
 7.40025  44.6659
 7.42325  44.6889
 7.44625  44.7252
 7.46925  44.7444
 7.49225  44.8965
 7.51525  44.8532
 7.53825  44.7746
 7.56125  44.8125
 7.58425  44.9181
 7.60725  45.0506
 7.63025  44.9613
 7.65325  45.0173
 7.67625  45.037
 7.69925  45.0859
 7.72225  45.1881
 7.74525  45.1645
 7.76825  45.0985
 7.79125  45.1382
 7.81425  45.0048
 7.83725  44.8352
 7.86025  44.6518
 7.88325  44.5947
 7.90625  44.5187
 7.92925  44.4231
 7.95225  44.3504
 7.97525  44.2948
 7.99825  44.2955
 8.02125  44.1982
 8.04425  43.8838
 8.06725  43.649
 8.09025  43.6463
 8.11325  43.6697
 8.13625  43.5042
 8.15925  43.0609
 8.18225  42.7137
 8.20525  42.5952
 8.22825  42.444
 8.25125  42.2209
 8.27425  41.9419
 8.29725  41.656
 8.32025  41.4069
 8.34325  41.2425
 8.36625  40.8302
 8.38925  40.5379
 8.41225  40.281
 8.43525  39.9186
 8.45825  39.5136
 8.48125  39.1871
 8.50425  38.7292
 8.52725  38.4885
 8.55025  38.1415
 8.57325  37.6599
 8.59625  37.2404
 8.61925  36.8652
 8.64225  36.5286
 8.66525  36.1146
 8.68825  35.899
 8.71125  35.7044
 8.73425  35.2819
 8.75725  34.8273
 8.78025  34.4625
 8.80325  34.2239
 8.82625  33.9796
 8.84925  33.5891
 8.87225  33.3309
 8.89525  33.1075
 8.91825  32.7685
 8.94125  32.3041
 8.96425  31.9884
 8.98725  31.7611
 9.01025  31.4056
 9.03325  30.9559
 9.05625  30.6543
 9.07925  30.4955
 9.10225  30.3838
 9.12525  30.1881
 9.14825  30.0261
 9.17125  29.7471
 9.19425  29.5067
 9.21725  29.306
 9.24025  29.0495
 9.26325  28.7317
 9.28625  28.4875
 9.30925  28.4916
 9.33225  28.3314
 9.35525  28.1032
 9.37825  27.8933
 9.40125  27.6945
 9.42425  27.6002
 9.44725  27.4635
 9.47025  27.3373
 9.49325  27.1338
 9.51625  26.9157
 9.53925  26.7527
 9.56225  26.6453
 9.58525  26.4983
 9.60825  26.4043
 9.63125  26.3708
 9.65425  26.2551
 9.67725  26.0321
 9.70025  25.9818
 9.72325  26.0716
 9.74625  26.0802
 9.76925  25.9491
 9.79225  25.6635
 9.81525  25.5126
 9.83825  25.4925
 9.86125  25.3509
 9.88425  25.3043
 9.90725  25.2744
 9.93025  25.1494
 9.95325  25.0875
 9.97625  24.9657
 9.99925  24.907
 10.0222  24.8328
 10.0453  24.8159
 10.0683  24.8553
 10.0913  24.8024
 10.1143  24.7025
 10.1373  24.6349
 10.1603  24.5233
 10.1832  24.3387
 10.2063  24.2378
 10.2293  24.2087
 10.2523  24.2317
 10.2752  24.1253
 10.2982  24.0901
 10.3213  24.1009
 10.3443  24.0106
 10.3673  23.9306
 10.3902  23.8107
 10.4133  23.7852
 10.4363  23.7415
 10.4593  23.7643
 10.4823  23.7199
 10.5053  23.6373
 10.5283  23.5909
 10.5512  23.6081
 10.5742  23.5978
 10.5973  23.5136
 10.6203  23.4433
 10.6433  23.4982
 10.6662  23.5085
 10.6893  23.5173
 10.7123  23.4809
 10.7353  23.3683
 10.7583  23.2108
 10.7813  23.2088
 10.8043  23.1932
 10.8272  23.1572
 10.8503  23.1795
 10.8733  23.2017
 10.8963  23.1219
 10.9192  23.0229
 10.9422  23.0127
 10.9653  23.0304
 10.9883  22.9817
 11.0113  22.8909
 11.0343  22.9595
 11.0573  22.8756
 11.0803  22.923
 11.1033  22.9996
 11.1263  22.992
 11.1493  22.8565
 11.1723  22.7896
 11.1953  22.7343
 11.2182  22.7238
 11.2413  22.7301
 11.2643  22.7358
 11.2873  22.7164
 11.3102  22.7992
 11.3333  22.7874
 11.3563  22.7686
 11.3793  22.8264
 11.4023  23.0913
 11.4253  23.1614
 11.4483  23.1143
 11.4713  23.1964
 11.4942  23.3293
 11.5173  23.6736
 11.5403  24.6375
 11.5633  26.5098
 11.5862  28.1566
 11.6093  27.7755
 11.6323  25.9352
 11.6553  24.3209
 11.6783  23.3825
 11.7013  23.0683
 11.7243  22.9779
 11.7473  22.9011
 11.7703  22.8291
 11.7933  22.8
 11.8163  22.8751
 11.8393  22.8127
 11.8622  22.7971
 11.8853  22.73
 11.9083  22.8016
 11.9313  22.974
 11.9543  23.1899
 11.9773  23.3946
 12.0003  23.3767
 12.0233  23.2401
 12.0463  23.4176
 12.0693  23.9668
 12.0923  24.6295
 12.1153  24.4208
 12.1382  23.8073
 12.1613  23.3244
 12.1843  23.0602
 12.2073  22.932
 12.2302  22.8903
 12.2533  22.9035
 12.2763  22.8723
 12.2993  22.8516
 12.3223  22.7677
 12.3453  22.7699
 12.3683  22.8316
 12.3913  22.8122
 12.4142  22.7852
 12.4373  22.8746
 12.4603  22.9047
 12.4833  22.9449
 12.5062  22.9728
 12.5292  23.0011
 12.5523  23.145
 12.5753  23.0927
 12.5983  23.121
 12.6212  23.2408
 12.6443  23.2557
 12.6673  23.168
 12.6903  23.1833
 12.7133  23.2911
 12.7363  23.3105
 12.7593  23.2751
 12.7822  23.2585
 12.8052  23.3967
 12.8283  23.6196
 12.8513  23.7404
 12.8742  23.8201
 12.8972  23.8699
 12.9203  23.9398
 12.9433  24.012
 12.9663  24.1353
 12.9893  24.2719
 13.0123  24.3651
 13.0353  24.4664
 13.0582  24.5565
 13.0813  24.78
 13.1043  25.0592
 13.1273  25.3778
 13.1502  25.5499
 13.1732  25.7087
 13.1963  25.9483
 13.2193  26.2166
 13.2423  26.6059
 13.2652  26.9673
 13.2883  27.2188
 13.3113  27.5079
 13.3343  27.7569
 13.3573  27.9925
 13.3803  28.1887
 13.4033  28.5131
 13.4262  28.7858
 13.4492  28.9354
 13.4723  29.2049
 13.4953  29.4485
 13.5183  29.6706
 13.5412  29.7824
 13.5643  29.9757
 13.5873  30.1692
 13.6103  30.2937
 13.6333  30.228
 13.6563  30.1279
 13.6793  30.245
 13.7022  30.1315
 13.7253  29.972
 13.7483  29.8313
 13.7713  29.7154
 13.7942  29.6569
 13.8172  29.4791
 13.8403  29.518
 13.8633  29.7981
 13.8863  30.3453
 13.9093  32.1406
 13.9323  35.57
 13.9553  37.7741
 13.9783  36.303
 14.0013  32.2977
 14.0243  29.7304
 14.0473  28.7826
 14.0703  28.4349
 14.0932  28.1466
 14.1163  27.9108
 14.1393  27.6569
 14.1623  27.4152
 14.1852  27.2205
 14.2083  27.1866
 14.2313  27.0482
 14.2543  26.7943
 14.2773  26.7434
 14.3003  26.7057
 14.3233  26.6639
 14.3463  26.6271
 14.3692  26.5271
 14.3923  26.4354
 14.4153  26.3046
 14.4383  26.1908
 14.4612  26.1464
 14.4843  26.0708
 14.5073  26.0183
 14.5303  25.9276
 14.5533  25.8857
 14.5763  25.8482
 14.5993  25.8109
 14.6223  25.7749
 14.6453  25.6845
 14.6683  25.6377
 14.6913  25.6774
 14.7143  25.7046
 14.7372  25.6052
 14.7603  25.4682
 14.7833  25.4107
 14.8063  25.3559
 14.8293  25.3471
 14.8523  25.3897
 14.8753  25.3552
 14.8983  25.4984
 14.9213  25.4982
 14.9443  25.2441
 14.9673  25.1097
 14.9903  25.1366
 15.0132  25.2548
 15.0363  25.2297
 15.0593  25.1538
 15.0823  25.0405
 15.1052  25.0562
 15.1283  25.2574
 15.1513  25.4736
 15.1743  25.7229
 15.1973  25.8966
 15.2203  25.8539
 15.2433  25.4817
 15.2663  25.0911
 15.2892  24.941
 15.3123  24.9746
 15.3353  25.004
 15.3583  25.0564
 15.3812  25.0297
 15.4043  24.9806
 15.4273  24.9847
 15.4503  24.9002
 15.4733  24.7448
 15.4963  24.7852
 15.5193  24.8118
 15.5423  24.8577
 15.5653  24.9072
 15.5883  25.0406
 15.6113  24.9931
 15.6343  24.9309
 15.6572  24.8927
 15.6803  24.9638
 15.7033  24.9311
 15.7263  24.8662
 15.7492  24.7883
 15.7723  24.8997
 15.7953  24.9159
 15.8183  24.9536
 15.8413  24.8024
 15.8643  24.7898
 15.8873  24.8595
 15.9103  24.8735
 15.9332  24.8151
 15.9563  24.7833
 15.9793  24.897
 16.0023  24.9672
 16.0253  24.968
 16.0482  25.1059
 16.0713  25.0692
 16.0943  25.0069
 16.1172  25.0633
 16.1403  25.248
 16.1633  25.5176
 16.1863  26.0892
 16.2093  27.2946
 16.2323  28.6866
 16.2553  29.0953
 16.2783  27.8708
 16.3012  26.1914
 16.3243  25.5062
 16.3472  25.3072
 16.3703  25.2003
 16.3933  25.1192
 16.4163  25.0878
 16.4393  25.1501
 16.4623  25.1549
 16.4853  25.0398
 16.5083  25.0134
 16.5312  24.978
 16.5543  25.0181
 16.5773  25.018
 16.6002  24.9959
 16.6233  24.8863
 16.6463  24.8108
 16.6693  24.8547
 16.6923  24.9304
 16.7153  24.9462
 16.7383  24.9939
 16.7613  24.9847
 16.7843  24.9352
 16.8073  24.818
 16.8303  24.7013
 16.8533  24.6347
 16.8763  24.6713
 16.8992  24.6422
 16.9223  24.6146
 16.9453  24.558
 16.9683  24.5235
 16.9913  24.5692
 17.0143  24.5617
 17.0373  24.5448
 17.0603  24.49
 17.0832  24.4919
 17.1063  24.554
 17.1293  24.5029
 17.1522  24.4741
 17.1753  24.3967
 17.1983  24.4772
 17.2213  24.5388
 17.2443  24.5049
 17.2673  24.4475
 17.2903  24.4534
 17.3133  24.4326
 17.3362  24.3556
 17.3593  24.2402
 17.3823  24.2111
 17.4053  24.2178
 17.4283  24.2078
 17.4513  24.2704
 17.4743  24.2344
 17.4973  24.2185
 17.5203  24.1683
 17.5433  24.2455
 17.5663  24.1748
 17.5893  24.1491
 17.6123  24.1549
 17.6352  24.1014
 17.6583  24.085
 17.6813  24.1498
 17.7042  24.1789
 17.7273  24.1349
 17.7503  24.0216
 17.7733  23.9807
 17.7963  24.0876
 17.8193  24.0135
 17.8423  24.0351
 17.8653  24.0535
 17.8882  24.0167
 17.9113  24.011
 17.9343  24.0953
 17.9573  24.1281
 17.9803  24.1242
 18.0033  24.1767
 18.0263  24.2753
 18.0493  24.3707
 18.0723  24.5006
 18.0953  24.747
 18.1183  24.7396
 18.1413  24.4747
 18.1643  24.1665
 18.1872  23.9959
 18.2103  23.9632
 18.2333  23.9372
 18.2563  23.8848
 18.2793  23.8757
 18.3023  23.8971
 18.3253  23.9688
 18.3483  24.0449
 18.3712  24.042
 18.3943  24.0597
 18.4173  24.0862
 18.4402  23.9641
 18.4633  23.8338
 18.4863  23.7945
 18.5093  23.8063
 18.5323  23.8343
 18.5553  23.8103
 18.5783  23.7799
 18.6013  23.8911
 18.6242  23.8703
 18.6473  23.8858
 18.6703  23.8857
 18.6933  23.8935
 18.7163  23.8479
 18.7392  23.8987
 18.7623  23.9437
 18.7853  23.8858
 18.8083  23.8122
 18.8313  23.7565
 18.8543  23.7116
 18.8773  23.7155
 18.9003  23.7873
 18.9232  23.8843
 18.9463  23.8469
 18.9693  23.7523
 18.9922  23.6666
 19.0153  23.6805
 19.0383  23.7984
 19.0613  23.8679
 19.0843  23.8869
 19.1073  23.8233
 19.1303  23.8621
 19.1533  23.8664
 19.1762  23.8723
 19.1993  23.8868
 19.2223  23.7707
 19.2453  23.6714
 19.2683  23.8026
 19.2913  23.8113
 19.3143  23.7237
 19.3373  23.7738
 19.3603  23.8513
 19.3833  23.9376
 19.4062  23.9427
 19.4293  23.884
 19.4523  23.8443
 19.4752  23.886
 19.4983  23.8555
 19.5213  23.8769
 19.5443  24.0102
 19.5673  24.0547
 19.5903  24.0331
 19.6133  24.0064
 19.6363  24.1901
 19.6593  24.4341
 19.6823  24.6856
 19.7053  24.9466
 19.7283  25.0696
 19.7513  25.0479
 19.7742  24.9066
 19.7973  24.8136
 19.8203  25.0189
 19.8433  25.4502
 19.8663  25.3754
 19.8893  24.9797
 19.9123  24.5639
 19.9353  24.3309
 19.9582  24.2017
 19.9813  24.1188
 20.0043  24.0661
 20.0272  24.0372
 20.0503  24.0445
 20.0733  23.9946
 20.0963  24.0012
 20.1193  24.0793
 20.1423  24.0843
 20.1653  24.13
 20.1883  24.0411
 20.2112  24.058
 20.2343  24.0641
 20.2573  24.0229
 20.2803  23.9942
 20.3033  23.9352
 20.3263  23.8279
 20.3493  23.9837
 20.3723  23.9957
 20.3953  23.8792
 20.4183  24.0123
 20.4413  24.1042
 20.4643  24.0316
 20.4873  24.0208
 20.5102  24.0223
 20.5333  24.016
 20.5563  24.0634
 20.5792  24.0377
 20.6023  24.1191
 20.6253  24.1885
 20.6483  24.3245
 20.6713  24.4222
 20.6943  24.5522
 20.7173  24.8401
 20.7403  25.0823
 20.7632  25.1832
 20.7863  25.0157
 20.8093  24.6916
 20.8323  24.4074
 20.8553  24.203
 20.8783  24.1943
 20.9013  24.2597
 20.9243  24.2931
 20.9473  24.2861
 20.9703  24.1385
 20.9933  24.1676
 21.0163  24.2204
 21.0393  24.1691
 21.0622  24.0172
 21.0853  24.1142
 21.1083  24.111
 21.1313  24.1407
 21.1543  24.1158
 21.1773  24.1649
 21.2003  24.1582
 21.2233  24.0767
 21.2462  24.1748
 21.2693  24.2615
 21.2923  24.279
 21.3152  24.1812
 21.3383  24.2753
 21.3613  24.3471
 21.3843  24.2155
 21.4073  24.0961
 21.4303  24.2294
 21.4533  24.1979
 21.4763  24.3127
 21.4992  24.3607
 21.5223  24.3102
 21.5453  24.2847
 21.5683  24.2894
 21.5913  24.4294
 21.6142  24.4576
 21.6373  24.401
 21.6603  24.3769
 21.6833  24.399
 21.7063  24.3792
 21.7293  24.432
 21.7523  24.4379
 21.7753  24.4351
 21.7982  24.4775
 21.8213  24.5373
 21.8443  24.4552
 21.8672  24.4887
 21.8903  24.4354
 21.9133  24.4882
 21.9363  24.5477
 21.9593  24.5302
 21.9823  24.4629
 22.0053  24.4026
 22.0283  24.4912
 22.0512  24.4668
 22.0743  24.5108
 22.0973  24.5383
 22.1203  24.6429
 22.1433  24.6083
 22.1663  24.5489
 22.1893  24.4863
 22.2123  24.5819
 22.2353  24.6387
 22.2583  24.6191
 22.2813  24.5819
 22.3043  24.7184
 22.3273  24.7782
 22.3502  24.841
 22.3733  24.8613
 22.3963  24.7822
 22.4193  24.7364
 22.4423  24.884
 22.4653  24.9568
 22.4883  24.9849
 22.5113  24.9857
 22.5343  25.0127
 22.5573  25.018
 22.5803  25.0803
 22.6033  25.154
 22.6263  25.1305
 22.6493  25.1437
 22.6723  25.2307
 22.6953  25.3354
 22.7183  25.3964
 22.7413  25.3953
 22.7643  25.4537
 22.7873  25.4393
 22.8103  25.5507
 22.8333  25.7438
 22.8563  25.7185
 22.8793  25.757
 22.9022  25.9117
 22.9253  26.0725
 22.9483  26.1465
 22.9713  26.382
 22.9943  26.7035