File: test-data-xrd/xrd-map-34-ID-E/Data_0018.chi
F:\20151113_APS_34IDE\\Brian\Particle1\OCV\Data_0018.tif
2-Theta Angle (Degrees)
Intensity
       2000
 0.01725  0.0000000E+00
 0.04025  0.0000000E+00
 0.06325  0.0000000E+00
 0.08625  0.0000000E+00
 0.10925  0.0000000E+00
 0.13225  0.0000000E+00
 0.15525  0.0000000E+00
 0.17825  0.0000000E+00
 0.20125  0.0000000E+00
 0.22425  0.0000000E+00
 0.24725  0.0000000E+00
 0.27025  0.0000000E+00
 0.29325  0.0000000E+00
 0.31625  0.0000000E+00
 0.33925  0.0000000E+00
 0.36225  0.0000000E+00
 0.38525  0.0000000E+00
 0.40825  0.0000000E+00
 0.43125  0.0000000E+00
 0.45425  0.0000000E+00
 0.47725  0.0000000E+00
 0.50025  0.0000000E+00
 0.52325  0.0000000E+00
 0.54625  0.0000000E+00
 0.56925  0.0000000E+00
 0.59225  0.0000000E+00
 0.61525  0.0000000E+00
 0.63825  0.0000000E+00
 0.66125  0.0000000E+00
 0.68425  0.0000000E+00
 0.70725  0.0000000E+00
 0.73025  0.0000000E+00
 0.75325  0.0000000E+00
 0.77625  0.0000000E+00
 0.79925  0.0000000E+00
 0.82225  0.0000000E+00
 0.84525  0.0000000E+00
 0.86825  0.0000000E+00
 0.89125  0.0000000E+00
 0.91425  0.0000000E+00
 0.93725  0.0000000E+00
 0.96025  0.0000000E+00
 0.98325  0.0000000E+00
 1.00625  0.0000000E+00
 1.02925  0.0000000E+00
 1.05225  0.0000000E+00
 1.07525  0.0000000E+00
 1.09825  0.0000000E+00
 1.12125  0.0000000E+00
 1.14425  0.0000000E+00
 1.16725  0.0000000E+00
 1.19025  0.0000000E+00
 1.21325  0.0000000E+00
 1.23625  0.0000000E+00
 1.25925  0.0000000E+00
 1.28225  0.0000000E+00
 1.30525  0.0000000E+00
 1.32825  0.0000000E+00
 1.35125  0.0000000E+00
 1.37425  0.0000000E+00
 1.39725  0.0000000E+00
 1.42025  0.0000000E+00
 1.44325  0.0000000E+00
 1.46625  0.0000000E+00
 1.48925  0.0000000E+00
 1.51225  0.0000000E+00
 1.53525  0.0000000E+00
 1.55825  0.0000000E+00
 1.58125  0.0000000E+00
 1.60425  0.0000000E+00
 1.62725  0.0000000E+00
 1.65025  0.0000000E+00
 1.67325  0.0000000E+00
 1.69625  0.0000000E+00
 1.71925  0.0000000E+00
 1.74225  0.0000000E+00
 1.76525  0.0000000E+00
 1.78825  0.0000000E+00
 1.81125  0.0000000E+00
 1.83425  0.0000000E+00
 1.85725  0.0000000E+00
 1.88025  0.0000000E+00
 1.90325  0.0000000E+00
 1.92625  0.0000000E+00
 1.94925  0.0000000E+00
 1.97225  0.0000000E+00
 1.99525  0.0000000E+00
 2.01825  0.0000000E+00
 2.04125  0.0000000E+00
 2.06425  0.0000000E+00
 2.08725  0.0000000E+00
 2.11025  0.0000000E+00
 2.13325  0.0000000E+00
 2.15625  0.0000000E+00
 2.17925  0.0000000E+00
 2.20225  0.0000000E+00
 2.22525  0.0000000E+00
 2.24825  0.0000000E+00
 2.27125  0.0000000E+00
 2.29425  0.0000000E+00
 2.31725  0.0000000E+00
 2.34025  0.0000000E+00
 2.36325  0.0000000E+00
 2.38625  0.0000000E+00
 2.40925  0.0000000E+00
 2.43225  0.0000000E+00
 2.45525  0.0000000E+00
 2.47825  0.0000000E+00
 2.50125  0.0000000E+00
 2.52425  0.0000000E+00
 2.54725  0.0000000E+00
 2.57025  0.0000000E+00
 2.59325  0.0000000E+00
 2.61625  0.0000000E+00
 2.63925  0.0000000E+00
 2.66225  0.0000000E+00
 2.68525  0.0000000E+00
 2.70825  0.0000000E+00
 2.73125  0.0000000E+00
 2.75425  0.0000000E+00
 2.77725  0.0000000E+00
 2.80025  0.0000000E+00
 2.82325  31.0373
 2.84625  33.2543
 2.86925  34.2684
 2.89225  34.7097
 2.91525  35.0223
 2.93825  35.0867
 2.96125  35.4617
 2.98425  35.7595
 3.00725  36.2922
 3.03025  36.696
 3.05325  36.4125
 3.07625  35.797
 3.09925  36.0873
 3.12225  36.3562
 3.14525  35.7829
 3.16825  35.0479
 3.19125  35.1826
 3.21425  35.6799
 3.23725  35.5116
 3.26025  35.4217
 3.28325  35.359
 3.30625  35.1971
 3.32925  35.1501
 3.35225  34.7322
 3.37525  34.1148
 3.39825  34.0045
 3.42125  33.9026
 3.44425  34.0037
 3.46725  34.1384
 3.49025  34.1497
 3.51325  34.1919
 3.53625  33.9736
 3.55925  33.4798
 3.58225  32.9687
 3.60525  32.8016
 3.62825  33.0202
 3.65125  33.021
 3.67425  33.1377
 3.69725  33.5248
 3.72025  33.5111
 3.74325  33.2488
 3.76625  33.3712
 3.78925  33.1805
 3.81225  33.0724
 3.83525  32.6298
 3.85825  32.4733
 3.88125  32.6342
 3.90425  32.3061
 3.92725  32.1165
 3.95025  32.0615
 3.97325  32.3461
 3.99625  32.2781
 4.01925  32.4875
 4.04225  32.3668
 4.06525  32.4313
 4.08825  32.3224
 4.11125  32.0099
 4.13425  31.8092
 4.15725  32.2349
 4.18025  32.3231
 4.20325  32.262
 4.22625  32.4988
 4.24925  32.4992
 4.27225  32.2459
 4.29525  32.3482
 4.31825  32.5407
 4.34125  32.6984
 4.36425  32.6169
 4.38725  32.3834
 4.41025  32.2919
 4.43325  32.2429
 4.45625  32.2594
 4.47925  32.6741
 4.50225  32.5139
 4.52525  32.488
 4.54825  32.4927
 4.57125  32.4703
 4.59425  32.7081
 4.61725  32.6874
 4.64025  32.6244
 4.66325  32.9116
 4.68625  32.9939
 4.70925  32.8685
 4.73225  32.6831
 4.75525  32.484
 4.77825  32.5397
 4.80125  32.5086
 4.82425  32.5986
 4.84725  32.7824
 4.87025  32.7681
 4.89325  32.5239
 4.91625  32.5598
 4.93925  32.5625
 4.96225  32.6716
 4.98525  32.8718
 5.00825  33.0172
 5.03125  33.1306
 5.05425  33.3434
 5.07725  33.4381
 5.10025  33.4393
 5.12325  33.2943
 5.14625  33.7411
 5.16925  33.9143
 5.19225  33.8063
 5.21525  33.7468
 5.23825  33.9396
 5.26125  34.0587
 5.28425  34.0416
 5.30725  34.1866
 5.33025  34.3534
 5.35325  34.4785
 5.37625  34.5067
 5.39925  34.5109
 5.42225  34.4226
 5.44525  34.4603
 5.46825  34.3632
 5.49125  34.3078
 5.51425  34.3074
 5.53725  34.5209
 5.56025  34.7173
 5.58325  34.7074
 5.60625  34.7577
 5.62925  34.9221
 5.65225  35.0151
 5.67525  35.3847
 5.69825  35.3623
 5.72125  35.4438
 5.74425  35.5095
 5.76725  35.5582
 5.79025  35.7182
 5.81325  35.8578
 5.83625  36.0376
 5.85925  36.3009
 5.88225  36.4217
 5.90525  37.0431
 5.92825  40.0617
 5.95125  43.9373
 5.97425  46.9435
 5.99725  44.636
 6.02025  41.517
 6.04325  38.6782
 6.06625  37.3566
 6.08925  37.058
 6.11225  36.8446
 6.13525  36.7487
 6.15825  36.8262
 6.18125  37.0388
 6.20425  37.2098
 6.22725  37.4286
 6.25025  37.5525
 6.27325  37.7957
 6.29625  37.8898
 6.31925  37.8267
 6.34225  37.8089
 6.36525  38.0309
 6.38825  38.2333
 6.41125  38.4543
 6.43425  38.4807
 6.45725  38.4325
 6.48025  38.6632
 6.50325  38.9771
 6.52625  39.1978
 6.54925  39.3319
 6.57225  39.5066
 6.59525  39.6937
 6.61825  39.8881
 6.64125  40.0093
 6.66425  40.0884
 6.68725  40.1437
 6.71025  40.2751
 6.73325  40.4579
 6.75625  40.7325
 6.77925  40.9214
 6.80225  41.0877
 6.82525  41.2972
 6.84825  41.5534
 6.87125  41.5537
 6.89425  41.6299
 6.91725  41.8135
 6.94025  41.923
 6.96325  41.925
 6.98625  42.0907
 7.00925  42.2365
 7.03225  42.5425
 7.05525  42.6126
 7.07825  42.7198
 7.10125  42.8336
 7.12425  42.9589
 7.14725  42.9367
 7.17025  42.9942
 7.19325  43.1701
 7.21625  43.326
 7.23925  43.6128
 7.26225  43.7604
 7.28525  43.8038
 7.30825  43.7859
 7.33125  43.8903
 7.35425  43.8993
 7.37725  44.0162
 7.40025  44.5694
 7.42325  45.4834
 7.44625  44.2965
 7.46925  44.1593
 7.49225  44.3917
 7.51525  44.6055
 7.53825  44.7241
 7.56125  44.4545
 7.58425  44.3833
 7.60725  44.4934
 7.63025  44.5223
 7.65325  44.4318
 7.67625  44.3304
 7.69925  44.3215
 7.72225  44.3816
 7.74525  44.4097
 7.76825  44.2089
 7.79125  44.3406
 7.81425  44.4528
 7.83725  44.391
 7.86025  44.332
 7.88325  44.1689
 7.90625  44.1145
 7.92925  44.26
 7.95225  44.2769
 7.97525  44.1142
 7.99825  44.014
 8.02125  43.7838
 8.04425  43.5166
 8.06725  43.2687
 8.09025  43.0572
 8.11325  42.8907
 8.13625  42.6132
 8.15925  42.3987
 8.18225  42.2367
 8.20525  42.0554
 8.22825  41.7334
 8.25125  41.6429
 8.27425  41.4342
 8.29725  41.1552
 8.32025  40.9354
 8.34325  40.6343
 8.36625  40.3891
 8.38925  40.1073
 8.41225  39.7228
 8.43525  39.3013
 8.45825  38.9366
 8.48125  38.6266
 8.50425  38.3635
 8.52725  38.0624
 8.55025  37.6857
 8.57325  37.1432
 8.59625  36.6989
 8.61925  36.4583
 8.64225  36.246
 8.66525  35.7866
 8.68825  35.4737
 8.71125  35.0477
 8.73425  34.6809
 8.75725  34.2859
 8.78025  34.0572
 8.80325  33.7761
 8.82625  33.5354
 8.84925  33.0909
 8.87225  32.7824
 8.89525  32.4905
 8.91825  32.1827
 8.94125  31.7058
 8.96425  31.4282
 8.98725  31.2224
 9.01025  30.9475
 9.03325  30.6582
 9.05625  30.4809
 9.07925  30.1699
 9.10225  29.8518
 9.12525  29.6431
 9.14825  29.5001
 9.17125  29.2731
 9.19425  28.8774
 9.21725  28.7052
 9.24025  28.4886
 9.26325  28.3573
 9.28625  28.2063
 9.30925  27.9673
 9.33225  27.8164
 9.35525  27.6615
 9.37825  27.5133
 9.40125  27.2545
 9.42425  27.0242
 9.44725  26.9433
 9.47025  26.8716
 9.49325  26.7559
 9.51625  26.5957
 9.53925  26.4187
 9.56225  26.2292
 9.58525  25.9917
 9.60825  25.9807
 9.63125  25.9801
 9.65425  25.9228
 9.67725  25.6587
 9.70025  25.4076
 9.72325  25.4001
 9.74625  25.3101
 9.76925  25.3217
 9.79225  25.2312
 9.81525  25.1517
 9.83825  25.0811
 9.86125  25.0106
 9.88425  24.89
 9.90725  24.7324
 9.93025  24.6566
 9.95325  24.4623
 9.97625  24.3651
 9.99925  24.3607
 10.0222  24.3203
 10.0453  24.2559
 10.0683  24.2506
 10.0913  24.2049
 10.1143  24.1939
 10.1373  24.1261
 10.1603  24.185
 10.1832  24.1116
 10.2063  23.9525
 10.2293  23.9557
 10.2523  23.8703
 10.2752  23.7353
 10.2982  23.7533
 10.3213  23.7909
 10.3443  23.6529
 10.3673  23.5263
 10.3902  23.6041
 10.4133  23.5921
 10.4363  23.4813
 10.4593  23.4652
 10.4823  23.4213
 10.5053  23.3512
 10.5283  23.231
 10.5512  23.1661
 10.5742  23.2499
 10.5973  23.2596
 10.6203  23.2776
 10.6433  23.3028
 10.6662  23.2851
 10.6893  23.2069
 10.7123  23.0279
 10.7353  22.9569
 10.7583  22.8651
 10.7813  22.835
 10.8043  22.7987
 10.8272  22.7952
 10.8503  22.7353
 10.8733  22.7262
 10.8963  22.6892
 10.9192  22.7326
 10.9422  22.7539
 10.9653  22.7021
 10.9883  22.6059
 11.0113  22.6022
 11.0343  22.6401
 11.0573  22.6169
 11.0803  22.6907
 11.1033  22.7783
 11.1263  22.8953
 11.1493  22.8114
 11.1723  22.7431
 11.1953  22.7001
 11.2182  22.662
 11.2413  22.5873
 11.2643  22.5992
 11.2873  22.5019
 11.3102  22.5084
 11.3333  22.5533
 11.3563  22.6913
 11.3793  22.8958
 11.4023  23.1633
 11.4253  23.215
 11.4483  23.0339
 11.4713  22.9212
 11.4942  22.9881
 11.5173  23.2743
 11.5403  24.0382
 11.5633  25.4265
 11.5862  26.896
 11.6093  26.8491
 11.6323  25.373
 11.6553  24.0946
 11.6783  23.4118
 11.7013  22.9738
 11.7243  22.7244
 11.7473  22.6741
 11.7703  22.6545
 11.7933  22.6323
 11.8163  22.7354
 11.8393  22.7342
 11.8622  22.6495
 11.8853  22.6325
 11.9083  22.7761
 11.9313  23.0108
 11.9543  23.2661
 11.9773  23.6815
 12.0003  23.9007
 12.0233  23.9172
 12.0463  24.7766
 12.0693  28.0302
 12.0923  32.9002
 12.1153  31.4848
 12.1382  27.522
 12.1613  24.5124
 12.1843  23.3657
 12.2073  23.0595
 12.2302  22.9761
 12.2533  22.8297
 12.2763  22.7575
 12.2993  22.7624
 12.3223  22.7152
 12.3453  22.7161
 12.3683  22.7451
 12.3913  22.8096
 12.4142  22.719
 12.4373  22.71
 12.4603  22.6868
 12.4833  22.7533
 12.5062  22.7134
 12.5292  22.6725
 12.5523  22.7861
 12.5753  22.9106
 12.5983  22.9625
 12.6212  22.9437
 12.6443  22.9448
 12.6673  22.9612
 12.6903  23.0194
 12.7133  23.083
 12.7363  23.1634
 12.7593  23.2036
 12.7822  23.2735
 12.8052  23.3679
 12.8283  23.5297
 12.8513  23.6071
 12.8742  23.5956
 12.8972  23.607
 12.9203  23.7441
 12.9433  23.9098
 12.9663  23.9559
 12.9893  24.0729
 13.0123  24.1786
 13.0353  24.2793
 13.0582  24.4149
 13.0813  24.5773
 13.1043  24.9452
 13.1273  25.1618
 13.1502  25.2131
 13.1732  25.446
 13.1963  25.8713
 13.2193  26.1763
 13.2423  26.3907
 13.2652  26.6375
 13.2883  26.8399
 13.3113  27.1371
 13.3343  27.475
 13.3573  27.8266
 13.3803  28.0566
 13.4033  28.3985
 13.4262  28.6646
 13.4492  28.8619
 13.4723  28.9282
 13.4953  29.1093
 13.5183  29.3573
 13.5412  29.5687
 13.5643  29.7536
 13.5873  29.7609
 13.6103  29.7458
 13.6333  29.7866
 13.6563  29.6972
 13.6793  29.8646
 13.7022  29.8006
 13.7253  29.6628
 13.7483  29.6058
 13.7713  29.628
 13.7942  29.6821
 13.8172  29.5604
 13.8403  29.5733
 13.8633  30.0658
 13.8863  31.2186
 13.9093  33.9826
 13.9323  37.6317
 13.9553  39.4955
 13.9783  37.4151
 14.0013  33.1888
 14.0243  30.0556
 14.0473  28.6479
 14.0703  28.1766
 14.0932  27.8027
 14.1163  27.5953
 14.1393  27.5478
 14.1623  27.2953
 14.1852  26.9982
 14.2083  26.8481
 14.2313  26.6879
 14.2543  26.5014
 14.2773  26.4112
 14.3003  26.2885
 14.3233  26.2625
 14.3463  26.2744
 14.3692  26.1766
 14.3923  26.0659
 14.4153  26.0637
 14.4383  26.0686
 14.4612  26.0278
 14.4843  25.8714
 14.5073  25.8109
 14.5303  25.7258
 14.5533  25.6212
 14.5763  25.5449
 14.5993  25.492
 14.6223  25.4821
 14.6453  25.4887
 14.6683  25.4103
 14.6913  25.4277
 14.7143  25.326
 14.7372  25.1455
 14.7603  25.1386
 14.7833  25.157
 14.8063  25.2455
 14.8293  25.2218
 14.8523  25.1851
 14.8753  25.0653
 14.8983  25.0317
 14.9213  25.0511
 14.9443  24.95
 14.9673  24.8486
 14.9903  24.8245
 15.0132  24.8874
 15.0363  24.9009
 15.0593  24.8419
 15.0823  24.8256
 15.1052  24.8129
 15.1283  24.8476
 15.1513  25.2101
 15.1743  25.7849
 15.1973  26.1522
 15.2203  25.9127
 15.2433  25.3158
 15.2663  24.8816
 15.2892  24.7223
 15.3123  24.7206
 15.3353  24.7947
 15.3583  24.7312
 15.3812  24.6907
 15.4043  24.6932
 15.4273  24.6326
 15.4503  24.6782
 15.4733  24.5728
 15.4963  24.528
 15.5193  24.6426
 15.5423  24.6478
 15.5653  24.5989
 15.5883  24.678
 15.6113  24.6439
 15.6343  24.5866
 15.6572  24.5414
 15.6803  24.5347
 15.7033  24.6425
 15.7263  24.7689
 15.7492  24.6916
 15.7723  24.7232
 15.7953  24.6638
 15.8183  24.6206
 15.8413  24.5964
 15.8643  24.5423
 15.8873  24.578
 15.9103  24.6242
 15.9332  24.5574
 15.9563  24.6307
 15.9793  24.6399
 16.0023  24.6876
 16.0253  24.6922
 16.0482  24.6945
 16.0713  24.7536
 16.0943  24.8579
 16.1172  24.9574
 16.1403  24.9491
 16.1633  24.9752
 16.1863  25.0673
 16.2093  25.233
 16.2323  25.4235
 16.2553  25.725
 16.2783  25.7954
 16.3012  25.3759
 16.3243  24.9211
 16.3472  24.748
 16.3703  24.6727
 16.3933  24.6283
 16.4163  24.6139
 16.4393  24.5739
 16.4623  24.5672
 16.4853  24.6504
 16.5083  24.7294
 16.5312  24.7173
 16.5543  24.6056
 16.5773  24.5127
 16.6002  24.4969
 16.6233  24.5325
 16.6463  24.5443
 16.6693  24.5286
 16.6923  24.5186
 16.7153  24.4905
 16.7383  24.5431
 16.7613  24.5896
 16.7843  24.5684
 16.8073  24.5701
 16.8303  24.638
 16.8533  24.6181
 16.8763  24.5478
 16.8992  24.4731
 16.9223  24.3984
 16.9453  24.2852
 16.9683  24.295
 16.9913  24.3297
 17.0143  24.3079
 17.0373  24.3172
 17.0603  24.2832
 17.0832  24.2801
 17.1063  24.226
 17.1293  24.153
 17.1522  24.0753
 17.1753  24.0793
 17.1983  24.1112
 17.2213  24.1756
 17.2443  24.1351
 17.2673  24.0496
 17.2903  24.0113
 17.3133  24.1179
 17.3362  24.1456
 17.3593  24.1597
 17.3823  24.1466
 17.4053  23.9525
 17.4283  23.9423
 17.4513  24.012
 17.4743  24.0757
 17.4973  24.1217
 17.5203  24.0281
 17.5433  24.0577
 17.5663  24.0167
 17.5893  23.9178
 17.6123  23.859
 17.6352  23.9233
 17.6583  23.8989
 17.6813  23.8587
 17.7042  23.7713
 17.7273  23.681
 17.7503  23.7323
 17.7733  23.8901
 17.7963  23.9786
 17.8193  23.8322
 17.8423  23.8933
 17.8653  23.9244
 17.8882  23.7854
 17.9113  23.771
 17.9343  23.8252
 17.9573  23.8618
 17.9803  23.9186
 18.0033  24.1279
 18.0263  24.3097
 18.0493  24.4432
 18.0723  24.4784
 18.0953  24.4837
 18.1183  24.4385
 18.1413  24.3375
 18.1643  24.0893
 18.1872  23.9025
 18.2103  23.7475
 18.2333  23.6741
 18.2563  23.669
 18.2793  23.7129
 18.3023  23.7996
 18.3253  23.7729
 18.3483  23.8904
 18.3712  23.8746
 18.3943  23.7955
 18.4173  23.7819
 18.4402  23.6333
 18.4633  23.5928
 18.4863  23.6036
 18.5093  23.6551
 18.5323  23.586
 18.5553  23.5905
 18.5783  23.6855
 18.6013  23.7346
 18.6242  23.6301
 18.6473  23.6003
 18.6703  23.4676
 18.6933  23.5415
 18.7163  23.5661
 18.7392  23.5301
 18.7623  23.5179
 18.7853  23.5561
 18.8083  23.5488
 18.8313  23.5605
 18.8543  23.5206
 18.8773  23.521
 18.9003  23.6042
 18.9232  23.6698
 18.9463  23.7518
 18.9693  23.6283
 18.9922  23.522
 19.0153  23.5672
 19.0383  23.6207
 19.0613  23.6395
 19.0843  23.6231
 19.1073  23.6141
 19.1303  23.5683
 19.1533  23.6534
 19.1762  23.5106
 19.1993  23.49
 19.2223  23.5381
 19.2453  23.522
 19.2683  23.624
 19.2913  23.5382
 19.3143  23.5634
 19.3373  23.5937
 19.3603  23.6376
 19.3833  23.6872
 19.4062  23.7643
 19.4293  23.728
 19.4523  23.6692
 19.4752  23.6979
 19.4983  23.728
 19.5213  23.8918
 19.5443  23.9718
 19.5673  23.8881
 19.5903  23.8626
 19.6133  23.972
 19.6363  24.1466
 19.6593  24.5358
 19.6823  25.4155
 19.7053  26.427
 19.7283  26.6296
 19.7513  25.7974
 19.7742  24.9892
 19.7973  24.6485
 19.8203  24.7932
 19.8433  25.3589
 19.8663  25.6978
 19.8893  25.422
 19.9123  24.9101
 19.9353  24.3444
 19.9582  24.0199
 19.9813  24.0173
 20.0043  23.9595
 20.0272  23.935
 20.0503  23.9192
 20.0733  23.8492
 20.0963  23.787
 20.1193  23.7637
 20.1423  23.756
 20.1653  23.8042
 20.1883  23.7986
 20.2112  23.8251
 20.2343  23.8538
 20.2573  23.8707
 20.2803  23.8639
 20.3033  23.7907
 20.3263  23.7114
 20.3493  23.7698
 20.3723  23.8209
 20.3953  23.8438
 20.4183  23.8463
 20.4413  23.8072
 20.4643  23.7853
 20.4873  23.7724
 20.5102  23.7412
 20.5333  23.6691
 20.5563  23.7393
 20.5792  23.7819
 20.6023  23.7807
 20.6253  23.8771
 20.6483  23.9417
 20.6713  24.0832
 20.6943  24.2846
 20.7173  24.5544
 20.7403  24.9922
 20.7632  25.2029
 20.7863  24.8878
 20.8093  24.5563
 20.8323  24.2681
 20.8553  24.1406
 20.8783  24.0607
 20.9013  24.0452
 20.9243  23.9578
 20.9473  23.952
 20.9703  23.9588
 20.9933  24.0344
 21.0163  24.0016
 21.0393  24.0087
 21.0622  23.992
 21.0853  23.9427
 21.1083  23.8627
 21.1313  23.9455
 21.1543  23.9131
 21.1773  23.9807
 21.2003  23.9865
 21.2233  23.8923
 21.2462  23.87
 21.2693  23.9732
 21.2923  23.9961
 21.3152  23.9632
 21.3383  23.9705
 21.3613  23.9852
 21.3843  24.002
 21.4073  23.9992
 21.4303  24.193
 21.4533  24.0801
 21.4763  23.9945
 21.4992  24.0795
 21.5223  24.069
 21.5453  24.0625
 21.5683  24.0419
 21.5913  24.1638
 21.6142  24.1922
 21.6373  24.1373
 21.6603  24.1985
 21.6833  24.2972
 21.7063  24.2966
 21.7293  24.317
 21.7523  24.2537
 21.7753  24.2469
 21.7982  24.2382
 21.8213  24.2029
 21.8443  24.1547
 21.8672  24.2221
 21.8903  24.1826
 21.9133  24.2579
 21.9363  24.1928
 21.9593  24.271
 21.9823  24.3
 22.0053  24.2064
 22.0283  24.2185
 22.0512  24.2497
 22.0743  24.3009
 22.0973  24.3047
 22.1203  24.3451
 22.1433  24.4132
 22.1663  24.455
 22.1893  24.5215
 22.2123  24.4733
 22.2353  24.5077
 22.2583  24.4762
 22.2813  24.3921
 22.3043  24.4954
 22.3273  24.5854
 22.3502  24.6127
 22.3733  24.6659
 22.3963  24.6056
 22.4193  24.4407
 22.4423  24.5669
 22.4653  24.7097
 22.4883  24.7364
 22.5113  24.8301
 22.5343  24.8768
 22.5573  24.8429
 22.5803  24.8755
 22.6033  24.9829
 22.6263  24.9968
 22.6493  25.0107
 22.6723  25.0753
 22.6953  25.1935
 22.7183  25.2233
 22.7413  25.3108
 22.7643  25.4129
 22.7873  25.4595
 22.8103  25.5938
 22.8333  25.668
 22.8563  25.7597
 22.8793  25.924
 22.9022  25.9816
 22.9253  26.1293
 22.9483  26.2224
 22.9713  26.5233
 22.9943  27.0763