File: test-data-xrd/xrd-map-34-ID-E/Data_0126.chi
F:\20151113_APS_34IDE\\Brian\Particle1\OCV\Data_0126.tif
2-Theta Angle (Degrees)
Intensity
       2000
 0.01725  0.0000000E+00
 0.04025  0.0000000E+00
 0.06325  0.0000000E+00
 0.08625  0.0000000E+00
 0.10925  0.0000000E+00
 0.13225  0.0000000E+00
 0.15525  0.0000000E+00
 0.17825  0.0000000E+00
 0.20125  0.0000000E+00
 0.22425  0.0000000E+00
 0.24725  0.0000000E+00
 0.27025  0.0000000E+00
 0.29325  0.0000000E+00
 0.31625  0.0000000E+00
 0.33925  0.0000000E+00
 0.36225  0.0000000E+00
 0.38525  0.0000000E+00
 0.40825  0.0000000E+00
 0.43125  0.0000000E+00
 0.45425  0.0000000E+00
 0.47725  0.0000000E+00
 0.50025  0.0000000E+00
 0.52325  0.0000000E+00
 0.54625  0.0000000E+00
 0.56925  0.0000000E+00
 0.59225  0.0000000E+00
 0.61525  0.0000000E+00
 0.63825  0.0000000E+00
 0.66125  0.0000000E+00
 0.68425  0.0000000E+00
 0.70725  0.0000000E+00
 0.73025  0.0000000E+00
 0.75325  0.0000000E+00
 0.77625  0.0000000E+00
 0.79925  0.0000000E+00
 0.82225  0.0000000E+00
 0.84525  0.0000000E+00
 0.86825  0.0000000E+00
 0.89125  0.0000000E+00
 0.91425  0.0000000E+00
 0.93725  0.0000000E+00
 0.96025  0.0000000E+00
 0.98325  0.0000000E+00
 1.00625  0.0000000E+00
 1.02925  0.0000000E+00
 1.05225  0.0000000E+00
 1.07525  0.0000000E+00
 1.09825  0.0000000E+00
 1.12125  0.0000000E+00
 1.14425  0.0000000E+00
 1.16725  0.0000000E+00
 1.19025  0.0000000E+00
 1.21325  0.0000000E+00
 1.23625  0.0000000E+00
 1.25925  0.0000000E+00
 1.28225  0.0000000E+00
 1.30525  0.0000000E+00
 1.32825  0.0000000E+00
 1.35125  0.0000000E+00
 1.37425  0.0000000E+00
 1.39725  0.0000000E+00
 1.42025  0.0000000E+00
 1.44325  0.0000000E+00
 1.46625  0.0000000E+00
 1.48925  0.0000000E+00
 1.51225  0.0000000E+00
 1.53525  0.0000000E+00
 1.55825  0.0000000E+00
 1.58125  0.0000000E+00
 1.60425  0.0000000E+00
 1.62725  0.0000000E+00
 1.65025  0.0000000E+00
 1.67325  0.0000000E+00
 1.69625  0.0000000E+00
 1.71925  0.0000000E+00
 1.74225  0.0000000E+00
 1.76525  0.0000000E+00
 1.78825  0.0000000E+00
 1.81125  0.0000000E+00
 1.83425  0.0000000E+00
 1.85725  0.0000000E+00
 1.88025  0.0000000E+00
 1.90325  0.0000000E+00
 1.92625  0.0000000E+00
 1.94925  0.0000000E+00
 1.97225  0.0000000E+00
 1.99525  0.0000000E+00
 2.01825  0.0000000E+00
 2.04125  0.0000000E+00
 2.06425  0.0000000E+00
 2.08725  0.0000000E+00
 2.11025  0.0000000E+00
 2.13325  0.0000000E+00
 2.15625  0.0000000E+00
 2.17925  0.0000000E+00
 2.20225  0.0000000E+00
 2.22525  0.0000000E+00
 2.24825  0.0000000E+00
 2.27125  0.0000000E+00
 2.29425  0.0000000E+00
 2.31725  0.0000000E+00
 2.34025  0.0000000E+00
 2.36325  0.0000000E+00
 2.38625  0.0000000E+00
 2.40925  0.0000000E+00
 2.43225  0.0000000E+00
 2.45525  0.0000000E+00
 2.47825  0.0000000E+00
 2.50125  0.0000000E+00
 2.52425  0.0000000E+00
 2.54725  0.0000000E+00
 2.57025  0.0000000E+00
 2.59325  0.0000000E+00
 2.61625  0.0000000E+00
 2.63925  0.0000000E+00
 2.66225  0.0000000E+00
 2.68525  0.0000000E+00
 2.70825  0.0000000E+00
 2.73125  0.0000000E+00
 2.75425  0.0000000E+00
 2.77725  0.0000000E+00
 2.80025  0.0000000E+00
 2.82325  32.4092
 2.84625  33.0463
 2.86925  34.1969
 2.89225  35.9736
 2.91525  36.034
 2.93825  35.3875
 2.96125  34.971
 2.98425  35.7335
 3.00725  36.0788
 3.03025  35.8905
 3.05325  35.2415
 3.07625  35.4949
 3.09925  35.7408
 3.12225  35.7436
 3.14525  36.0737
 3.16825  36.2796
 3.19125  35.8898
 3.21425  35.6598
 3.23725  35.613
 3.26025  35.6218
 3.28325  35.3571
 3.30625  34.7697
 3.32925  34.9203
 3.35225  35.3416
 3.37525  35.3273
 3.39825  34.6892
 3.42125  34.3837
 3.44425  34.2821
 3.46725  34.6995
 3.49025  34.6769
 3.51325  34.431
 3.53625  34.269
 3.55925  33.6949
 3.58225  33.4235
 3.60525  33.2848
 3.62825  33.274
 3.65125  33.4512
 3.67425  33.4134
 3.69725  33.4725
 3.72025  33.4903
 3.74325  33.4706
 3.76625  33.3668
 3.78925  33.143
 3.81225  32.7473
 3.83525  32.2986
 3.85825  32.3295
 3.88125  32.3268
 3.90425  32.2452
 3.92725  32.3401
 3.95025  32.4181
 3.97325  32.23
 3.99625  32.419
 4.01925  32.7341
 4.04225  32.9978
 4.06525  33.1561
 4.08825  32.8998
 4.11125  32.6709
 4.13425  32.3246
 4.15725  32.3136
 4.18025  32.4319
 4.20325  32.4834
 4.22625  32.5128
 4.24925  32.4638
 4.27225  32.1428
 4.29525  32.3345
 4.31825  32.5723
 4.34125  32.3874
 4.36425  32.0891
 4.38725  32.2106
 4.41025  32.5811
 4.43325  32.6561
 4.45625  32.6077
 4.47925  32.801
 4.50225  32.7015
 4.52525  32.6425
 4.54825  32.1838
 4.57125  32.038
 4.59425  32.0916
 4.61725  32.3587
 4.64025  32.5275
 4.66325  32.544
 4.68625  32.3676
 4.70925  32.4285
 4.73225  32.4864
 4.75525  32.2315
 4.77825  32.0945
 4.80125  32.2208
 4.82425  32.51
 4.84725  32.7052
 4.87025  32.9958
 4.89325  33.1299
 4.91625  33.3123
 4.93925  33.1595
 4.96225  32.9308
 4.98525  33.0141
 5.00825  33.2909
 5.03125  33.4571
 5.05425  33.6532
 5.07725  33.6667
 5.10025  33.5908
 5.12325  33.4479
 5.14625  33.4745
 5.16925  33.4873
 5.19225  33.6599
 5.21525  33.9373
 5.23825  33.9696
 5.26125  34.1506
 5.28425  34.2442
 5.30725  34.4924
 5.33025  34.6544
 5.35325  34.4665
 5.37625  34.2802
 5.39925  34.3051
 5.42225  34.5477
 5.44525  34.5287
 5.46825  34.6423
 5.49125  34.7012
 5.51425  35.0225
 5.53725  35.4478
 5.56025  35.5272
 5.58325  35.3559
 5.60625  35.1863
 5.62925  35.2442
 5.65225  35.2627
 5.67525  35.5366
 5.69825  35.5054
 5.72125  35.5568
 5.74425  35.6794
 5.76725  35.6974
 5.79025  35.8329
 5.81325  36.1194
 5.83625  36.4203
 5.85925  36.5928
 5.88225  36.9349
 5.90525  37.8743
 5.92825  42.7578
 5.95125  52.0139
 5.97425  56.8717
 5.99725  57.0386
 6.02025  47.0939
 6.04325  41.5777
 6.06625  37.7959
 6.08925  37.1769
 6.11225  37.2867
 6.13525  37.1591
 6.15825  37.0731
 6.18125  37.2501
 6.20425  37.4259
 6.22725  37.4355
 6.25025  37.3237
 6.27325  37.4932
 6.29625  37.6978
 6.31925  37.7582
 6.34225  37.9741
 6.36525  38.2049
 6.38825  38.2133
 6.41125  38.2678
 6.43425  38.5022
 6.45725  38.6515
 6.48025  38.7628
 6.50325  39.0497
 6.52625  39.2194
 6.54925  39.1547
 6.57225  39.244
 6.59525  39.3784
 6.61825  39.6371
 6.64125  39.913
 6.66425  40.1852
 6.68725  40.2894
 6.71025  40.3476
 6.73325  40.5411
 6.75625  40.7427
 6.77925  40.8281
 6.80225  40.9573
 6.82525  41.2959
 6.84825  41.4892
 6.87125  41.5198
 6.89425  41.7539
 6.91725  41.9632
 6.94025  41.9753
 6.96325  41.9409
 6.98625  42.1413
 7.00925  42.3477
 7.03225  42.5273
 7.05525  42.612
 7.07825  42.7223
 7.10125  42.7878
 7.12425  42.8832
 7.14725  43.0603
 7.17025  43.2031
 7.19325  43.3585
 7.21625  43.6713
 7.23925  43.8963
 7.26225  43.9233
 7.28525  43.8271
 7.30825  43.6092
 7.33125  43.6891
 7.35425  43.777
 7.37725  43.7177
 7.40025  43.8019
 7.42325  43.9223
 7.44625  43.9479
 7.46925  44.1105
 7.49225  44.2151
 7.51525  44.3542
 7.53825  44.5357
 7.56125  44.715
 7.58425  44.7944
 7.60725  44.6503
 7.63025  44.5288
 7.65325  44.3752
 7.67625  44.2109
 7.69925  44.1397
 7.72225  44.1333
 7.74525  44.2123
 7.76825  44.2002
 7.79125  44.0939
 7.81425  44.0396
 7.83725  44.1361
 7.86025  44.1251
 7.88325  44.064
 7.90625  43.9729
 7.92925  44.06
 7.95225  43.8706
 7.97525  43.5818
 7.99825  43.4295
 8.02125  43.3002
 8.04425  43.0296
 8.06725  42.9978
 8.09025  42.9959
 8.11325  42.883
 8.13625  42.752
 8.15925  42.6224
 8.18225  42.2365
 8.20525  42.0273
 8.22825  41.7156
 8.25125  41.4219
 8.27425  41.1167
 8.29725  40.7367
 8.32025  40.2418
 8.34325  39.978
 8.36625  39.8499
 8.38925  39.5405
 8.41225  39.302
 8.43525  38.8888
 8.45825  38.4083
 8.48125  38.0334
 8.50425  37.7791
 8.52725  37.3779
 8.55025  37.0673
 8.57325  36.8193
 8.59625  36.4124
 8.61925  36.0823
 8.64225  35.77
 8.66525  35.4693
 8.68825  35.3446
 8.71125  35.0007
 8.73425  34.5136
 8.75725  34.0247
 8.78025  33.63
 8.80325  33.2899
 8.82625  32.992
 8.84925  32.5717
 8.87225  32.3202
 8.89525  31.9868
 8.91825  31.813
 8.94125  31.5998
 8.96425  31.2552
 8.98725  30.9362
 9.01025  30.583
 9.03325  30.2277
 9.05625  29.9513
 9.07925  29.8591
 9.10225  29.6427
 9.12525  29.434
 9.14825  29.1848
 9.17125  28.8884
 9.19425  28.4922
 9.21725  28.3013
 9.24025  28.1246
 9.26325  27.9078
 9.28625  27.6873
 9.30925  27.4882
 9.33225  27.3675
 9.35525  27.2276
 9.37825  27.1529
 9.40125  27.0204
 9.42425  26.8464
 9.44725  26.6562
 9.47025  26.4491
 9.49325  26.1607
 9.51625  26.0134
 9.53925  25.8719
 9.56225  25.7103
 9.58525  25.5583
 9.60825  25.479
 9.63125  25.5553
 9.65425  25.5864
 9.67725  25.3851
 9.70025  25.1602
 9.72325  25.1888
 9.74625  25.2049
 9.76925  25.0688
 9.79225  24.9219
 9.81525  24.8343
 9.83825  24.6816
 9.86125  24.5462
 9.88425  24.4722
 9.90725  24.526
 9.93025  24.5535
 9.95325  24.5086
 9.97625  24.4325
 9.99925  24.2797
 10.0222  24.1724
 10.0453  24.1887
 10.0683  24.0648
 10.0913  23.9826
 10.1143  23.9255
 10.1373  23.9107
 10.1603  23.922
 10.1832  23.8289
 10.2063  23.6883
 10.2293  23.7085
 10.2523  23.6216
 10.2752  23.3652
 10.2982  23.3417
 10.3213  23.4252
 10.3443  23.4977
 10.3673  23.5138
 10.3902  23.4681
 10.4133  23.4436
 10.4363  23.3895
 10.4593  23.2534
 10.4823  23.2079
 10.5053  23.2609
 10.5283  23.1782
 10.5512  23.043
 10.5742  22.9778
 10.5973  22.9372
 10.6203  23.0071
 10.6433  22.8474
 10.6662  22.7384
 10.6893  22.7114
 10.7123  22.8126
 10.7353  22.8695
 10.7583  22.7896
 10.7813  22.7573
 10.8043  22.8029
 10.8272  22.8054
 10.8503  22.6755
 10.8733  22.6616
 10.8963  22.6477
 10.9192  22.7508
 10.9422  22.767
 10.9653  22.7553
 10.9883  22.6304
 11.0113  22.4629
 11.0343  22.4721
 11.0573  22.4664
 11.0803  22.4621
 11.1033  22.4156
 11.1263  22.3621
 11.1493  22.3162
 11.1723  22.3316
 11.1953  22.2485
 11.2182  22.2727
 11.2413  22.262
 11.2643  22.3314
 11.2873  22.3377
 11.3102  22.3144
 11.3333  22.3139
 11.3563  22.3723
 11.3793  22.4604
 11.4023  22.512
 11.4253  22.4927
 11.4483  22.5405
 11.4713  22.6033
 11.4942  22.6404
 11.5173  22.9333
 11.5403  24.0017
 11.5633  25.5691
 11.5862  26.4507
 11.6093  25.7699
 11.6323  24.4348
 11.6553  23.4309
 11.6783  22.8186
 11.7013  22.4992
 11.7243  22.3505
 11.7473  22.3651
 11.7703  22.2835
 11.7933  22.2451
 11.8163  22.3281
 11.8393  22.3289
 11.8622  22.2704
 11.8853  22.2974
 11.9083  22.3737
 11.9313  22.4887
 11.9543  22.5733
 11.9773  22.6276
 12.0003  22.6869
 12.0233  22.7917
 12.0463  23.0915
 12.0693  23.5136
 12.0923  24.0529
 12.1153  24.0421
 12.1382  23.5228
 12.1613  22.8734
 12.1843  22.5832
 12.2073  22.4325
 12.2302  22.3543
 12.2533  22.3791
 12.2763  22.4552
 12.2993  22.4694
 12.3223  22.5186
 12.3453  22.4524
 12.3683  22.4152
 12.3913  22.4656
 12.4142  22.5375
 12.4373  22.4814
 12.4603  22.3622
 12.4833  22.484
 12.5062  22.4737
 12.5292  22.4915
 12.5523  22.5834
 12.5753  22.6301
 12.5983  22.6858
 12.6212  22.7266
 12.6443  22.644
 12.6673  22.6211
 12.6903  22.7518
 12.7133  22.7925
 12.7363  22.9433
 12.7593  22.9771
 12.7822  22.9412
 12.8052  22.9425
 12.8283  23.0137
 12.8513  23.1589
 12.8742  23.1542
 12.8972  23.2078
 12.9203  23.4503
 12.9433  23.6756
 12.9663  23.7083
 12.9893  23.693
 13.0123  23.7582
 13.0353  23.9969
 13.0582  24.0626
 13.0813  24.0848
 13.1043  24.4014
 13.1273  24.7148
 13.1502  24.8284
 13.1732  25.0685
 13.1963  25.3992
 13.2193  25.7938
 13.2423  26.0083
 13.2652  26.2128
 13.2883  26.5004
 13.3113  26.8277
 13.3343  27.2057
 13.3573  27.6124
 13.3803  27.7942
 13.4033  28.0101
 13.4262  28.2587
 13.4492  28.5463
 13.4723  28.6627
 13.4953  28.8685
 13.5183  29.1012
 13.5412  29.2747
 13.5643  29.4306
 13.5873  29.4639
 13.6103  29.4051
 13.6333  29.4765
 13.6563  29.5145
 13.6793  29.6094
 13.7022  29.4854
 13.7253  29.4882
 13.7483  29.4656
 13.7713  29.3446
 13.7942  29.1062
 13.8172  28.9481
 13.8403  28.9485
 13.8633  29.0908
 13.8863  29.3438
 13.9093  30.206
 13.9323  31.4798
 13.9553  31.9134
 13.9783  31.2835
 14.0013  29.7557
 14.0243  28.4794
 14.0473  27.7947
 14.0703  27.5824
 14.0932  27.359
 14.1163  27.1932
 14.1393  27.0575
 14.1623  26.9825
 14.1852  26.8148
 14.2083  26.646
 14.2313  26.4637
 14.2543  26.3256
 14.2773  26.197
 14.3003  26.0522
 14.3233  25.9249
 14.3463  25.859
 14.3692  25.8994
 14.3923  25.9004
 14.4153  25.8774
 14.4383  25.7643
 14.4612  25.6256
 14.4843  25.535
 14.5073  25.5131
 14.5303  25.4734
 14.5533  25.4522
 14.5763  25.4115
 14.5993  25.2972
 14.6223  25.2107
 14.6453  25.163
 14.6683  25.107
 14.6913  25.0937
 14.7143  25.0708
 14.7372  25.0451
 14.7603  25.038
 14.7833  24.9582
 14.8063  24.7925
 14.8293  24.7737
 14.8523  24.795
 14.8753  24.6875
 14.8983  24.725
 14.9213  24.7802
 14.9443  24.7466
 14.9673  24.6671
 14.9903  24.6316
 15.0132  24.7171
 15.0363  24.7078
 15.0593  24.6679
 15.0823  24.6476
 15.1052  24.5702
 15.1283  24.5731
 15.1513  24.7126
 15.1743  24.9311
 15.1973  25.101
 15.2203  25.1513
 15.2433  24.8621
 15.2663  24.5911
 15.2892  24.5113
 15.3123  24.4495
 15.3353  24.4224
 15.3583  24.3625
 15.3812  24.4369
 15.4043  24.4251
 15.4273  24.3664
 15.4503  24.3153
 15.4733  24.2452
 15.4963  24.2959
 15.5193  24.292
 15.5423  24.2698
 15.5653  24.4201
 15.5883  24.4546
 15.6113  24.387
 15.6343  24.3421
 15.6572  24.3535
 15.6803  24.4583
 15.7033  24.577
 15.7263  24.6023
 15.7492  24.5743
 15.7723  24.563
 15.7953  24.4272
 15.8183  24.39
 15.8413  24.4169
 15.8643  24.4257
 15.8873  24.4472
 15.9103  24.5456
 15.9332  24.5261
 15.9563  24.3117
 15.9793  24.2862
 16.0023  24.4161
 16.0253  24.519
 16.0482  24.6334
 16.0713  24.6733
 16.0943  24.6697
 16.1172  24.7925
 16.1403  24.8106
 16.1633  24.8831
 16.1863  25.0048
 16.2093  25.3512
 16.2323  26.0173
 16.2553  26.6279
 16.2783  26.3112
 16.3012  25.4405
 16.3243  24.8817
 16.3472  24.6616
 16.3703  24.6151
 16.3933  24.6793
 16.4163  24.6303
 16.4393  24.5602
 16.4623  24.5666
 16.4853  24.5748
 16.5083  24.586
 16.5312  24.5662
 16.5543  24.5308
 16.5773  24.4412
 16.6002  24.4301
 16.6233  24.3559
 16.6463  24.3631
 16.6693  24.3982
 16.6923  24.4461
 16.7153  24.4449
 16.7383  24.3536
 16.7613  24.3148
 16.7843  24.2953
 16.8073  24.2428
 16.8303  24.1979
 16.8533  24.1903
 16.8763  24.1983
 16.8992  24.1767
 16.9223  24.1148
 16.9453  24.0821
 16.9683  24.0579
 16.9913  24.0372
 17.0143  24.0449
 17.0373  24.042
 17.0603  23.9975
 17.0832  24.0361
 17.1063  24.1068
 17.1293  24.0907
 17.1522  24.0612
 17.1753  23.9899
 17.1983  24.0136
 17.2213  23.9973
 17.2443  23.9922
 17.2673  23.8858
 17.2903  23.8571
 17.3133  23.9423
 17.3362  23.9789
 17.3593  23.9326
 17.3823  23.8993
 17.4053  23.8029
 17.4283  23.7369
 17.4513  23.7564
 17.4743  23.7534
 17.4973  23.7872
 17.5203  23.7651
 17.5433  23.7823
 17.5663  23.6565
 17.5893  23.6156
 17.6123  23.7597
 17.6352  23.7436
 17.6583  23.6717
 17.6813  23.6619
 17.7042  23.6135
 17.7273  23.6051
 17.7503  23.6467
 17.7733  23.6559
 17.7963  23.6356
 17.8193  23.5732
 17.8423  23.6378
 17.8653  23.635
 17.8882  23.6988
 17.9113  23.7377
 17.9343  23.78
 17.9573  23.8352
 17.9803  24.0582
 18.0033  24.3732
 18.0263  24.6998
 18.0493  25.0915
 18.0723  26.3462
 18.0953  28.5829
 18.1183  28.8367
 18.1413  28.0662
 18.1643  26.0466
 18.1872  24.7161
 18.2103  24.1177
 18.2333  23.9593
 18.2563  23.8176
 18.2793  23.7303
 18.3023  23.6345
 18.3253  23.4809
 18.3483  23.4818
 18.3712  23.4686
 18.3943  23.4277
 18.4173  23.533
 18.4402  23.5617
 18.4633  23.4283
 18.4863  23.3953
 18.5093  23.4163
 18.5323  23.3723
 18.5553  23.3736
 18.5783  23.3828
 18.6013  23.3497
 18.6242  23.2443
 18.6473  23.2583
 18.6703  23.3637
 18.6933  23.3758
 18.7163  23.3751
 18.7392  23.318
 18.7623  23.256
 18.7853  23.249
 18.8083  23.2791
 18.8313  23.2551
 18.8543  23.299
 18.8773  23.2679
 18.9003  23.2024
 18.9232  23.2257
 18.9463  23.3303
 18.9693  23.3874
 18.9922  23.3241
 19.0153  23.3442
 19.0383  23.36
 19.0613  23.4187
 19.0843  23.4397
 19.1073  23.373
 19.1303  23.4336
 19.1533  23.4719
 19.1762  23.4881
 19.1993  23.4879
 19.2223  23.4732
 19.2453  23.4273
 19.2683  23.3764
 19.2913  23.3537
 19.3143  23.4085
 19.3373  23.3901
 19.3603  23.4235
 19.3833  23.4488
 19.4062  23.564
 19.4293  23.6166
 19.4523  23.5849
 19.4752  23.5975
 19.4983  23.4536
 19.5213  23.5081
 19.5443  23.6632
 19.5673  23.5788
 19.5903  23.5042
 19.6133  23.636
 19.6363  23.8661
 19.6593  24.2576
 19.6823  24.7261
 19.7053  25.296
 19.7283  25.6442
 19.7513  25.5514
 19.7742  25.0714
 19.7973  24.8108
 19.8203  24.991
 19.8433  25.6548
 19.8663  25.9733
 19.8893  25.6951
 19.9123  24.979
 19.9353  24.3136
 19.9582  23.9428
 19.9813  23.7352
 20.0043  23.6144
 20.0272  23.6244
 20.0503  23.7149
 20.0733  23.5951
 20.0963  23.6165
 20.1193  23.6192
 20.1423  23.5779
 20.1653  23.5623
 20.1883  23.5654
 20.2112  23.5557
 20.2343  23.5971
 20.2573  23.5708
 20.2803  23.509
 20.3033  23.3724
 20.3263  23.3758
 20.3493  23.5222
 20.3723  23.5029
 20.3953  23.4929
 20.4183  23.516
 20.4413  23.522
 20.4643  23.6334
 20.4873  23.5746
 20.5102  23.535
 20.5333  23.4718
 20.5563  23.5425
 20.5792  23.6056
 20.6023  23.6906
 20.6253  23.7044
 20.6483  23.7232
 20.6713  23.8819
 20.6943  24.2765
 20.7173  24.6537
 20.7403  24.766
 20.7632  24.7176
 20.7863  24.4686
 20.8093  24.1696
 20.8323  23.9069
 20.8553  23.8014
 20.8783  23.7801
 20.9013  23.8073
 20.9243  23.8109
 20.9473  23.7975
 20.9703  23.6799
 20.9933  23.6755
 21.0163  23.6766
 21.0393  23.7303
 21.0622  23.7582
 21.0853  23.7596
 21.1083  23.7258
 21.1313  23.7467
 21.1543  23.6884
 21.1773  23.6857
 21.2003  23.6622
 21.2233  23.6804
 21.2462  23.6638
 21.2693  23.695
 21.2923  23.7744
 21.3152  23.7305
 21.3383  23.7102
 21.3613  23.8269
 21.3843  23.8089
 21.4073  23.6896
 21.4303  23.7004
 21.4533  23.8023
 21.4763  23.7951
 21.4992  23.8852
 21.5223  23.8379
 21.5453  23.9191
 21.5683  23.9154
 21.5913  23.9513
 21.6142  23.9028
 21.6373  23.866
 21.6603  23.8852
 21.6833  23.8393
 21.7063  23.9238
 21.7293  23.9177
 21.7523  23.8633
 21.7753  23.8625
 21.7982  23.9126
 21.8213  24.0041
 21.8443  23.9779
 21.8672  23.9763
 21.8903  24.0431
 21.9133  24.0018
 21.9363  24.0352
 21.9593  24.0623
 21.9823  24.0147
 22.0053  24.0189
 22.0283  24.1511
 22.0512  24.1227
 22.0743  24.0923
 22.0973  24.0632
 22.1203  24.1491
 22.1433  24.2442
 22.1663  24.2075
 22.1893  24.1523
 22.2123  24.1142
 22.2353  24.1864
 22.2583  24.2538
 22.2813  24.2707
 22.3043  24.3407
 22.3273  24.3855
 22.3502  24.4221
 22.3733  24.3639
 22.3963  24.2565
 22.4193  24.2107
 22.4423  24.3232
 22.4653  24.5045
 22.4883  24.4573
 22.5113  24.502
 22.5343  24.5502
 22.5573  24.6044
 22.5803  24.5312
 22.6033  24.7048
 22.6263  24.9609
 22.6493  24.9164
 22.6723  24.8387
 22.6953  24.9248
 22.7183  24.9066
 22.7413  24.9736
 22.7643  24.9824
 22.7873  24.951
 22.8103  25.1429
 22.8333  25.3241
 22.8563  25.4245
 22.8793  25.5262
 22.9022  25.5685
 22.9253  25.6883
 22.9483  25.765
 22.9713  25.8815
 22.9943  26.0957