File: test-data-xrd/xrd-map-34-ID-E/Data_0024.chi
F:\20151113_APS_34IDE\\Brian\Particle1\OCV\Data_0024.tif
2-Theta Angle (Degrees)
Intensity
       2000
 0.01725  0.0000000E+00
 0.04025  0.0000000E+00
 0.06325  0.0000000E+00
 0.08625  0.0000000E+00
 0.10925  0.0000000E+00
 0.13225  0.0000000E+00
 0.15525  0.0000000E+00
 0.17825  0.0000000E+00
 0.20125  0.0000000E+00
 0.22425  0.0000000E+00
 0.24725  0.0000000E+00
 0.27025  0.0000000E+00
 0.29325  0.0000000E+00
 0.31625  0.0000000E+00
 0.33925  0.0000000E+00
 0.36225  0.0000000E+00
 0.38525  0.0000000E+00
 0.40825  0.0000000E+00
 0.43125  0.0000000E+00
 0.45425  0.0000000E+00
 0.47725  0.0000000E+00
 0.50025  0.0000000E+00
 0.52325  0.0000000E+00
 0.54625  0.0000000E+00
 0.56925  0.0000000E+00
 0.59225  0.0000000E+00
 0.61525  0.0000000E+00
 0.63825  0.0000000E+00
 0.66125  0.0000000E+00
 0.68425  0.0000000E+00
 0.70725  0.0000000E+00
 0.73025  0.0000000E+00
 0.75325  0.0000000E+00
 0.77625  0.0000000E+00
 0.79925  0.0000000E+00
 0.82225  0.0000000E+00
 0.84525  0.0000000E+00
 0.86825  0.0000000E+00
 0.89125  0.0000000E+00
 0.91425  0.0000000E+00
 0.93725  0.0000000E+00
 0.96025  0.0000000E+00
 0.98325  0.0000000E+00
 1.00625  0.0000000E+00
 1.02925  0.0000000E+00
 1.05225  0.0000000E+00
 1.07525  0.0000000E+00
 1.09825  0.0000000E+00
 1.12125  0.0000000E+00
 1.14425  0.0000000E+00
 1.16725  0.0000000E+00
 1.19025  0.0000000E+00
 1.21325  0.0000000E+00
 1.23625  0.0000000E+00
 1.25925  0.0000000E+00
 1.28225  0.0000000E+00
 1.30525  0.0000000E+00
 1.32825  0.0000000E+00
 1.35125  0.0000000E+00
 1.37425  0.0000000E+00
 1.39725  0.0000000E+00
 1.42025  0.0000000E+00
 1.44325  0.0000000E+00
 1.46625  0.0000000E+00
 1.48925  0.0000000E+00
 1.51225  0.0000000E+00
 1.53525  0.0000000E+00
 1.55825  0.0000000E+00
 1.58125  0.0000000E+00
 1.60425  0.0000000E+00
 1.62725  0.0000000E+00
 1.65025  0.0000000E+00
 1.67325  0.0000000E+00
 1.69625  0.0000000E+00
 1.71925  0.0000000E+00
 1.74225  0.0000000E+00
 1.76525  0.0000000E+00
 1.78825  0.0000000E+00
 1.81125  0.0000000E+00
 1.83425  0.0000000E+00
 1.85725  0.0000000E+00
 1.88025  0.0000000E+00
 1.90325  0.0000000E+00
 1.92625  0.0000000E+00
 1.94925  0.0000000E+00
 1.97225  0.0000000E+00
 1.99525  0.0000000E+00
 2.01825  0.0000000E+00
 2.04125  0.0000000E+00
 2.06425  0.0000000E+00
 2.08725  0.0000000E+00
 2.11025  0.0000000E+00
 2.13325  0.0000000E+00
 2.15625  0.0000000E+00
 2.17925  0.0000000E+00
 2.20225  0.0000000E+00
 2.22525  0.0000000E+00
 2.24825  0.0000000E+00
 2.27125  0.0000000E+00
 2.29425  0.0000000E+00
 2.31725  0.0000000E+00
 2.34025  0.0000000E+00
 2.36325  0.0000000E+00
 2.38625  0.0000000E+00
 2.40925  0.0000000E+00
 2.43225  0.0000000E+00
 2.45525  0.0000000E+00
 2.47825  0.0000000E+00
 2.50125  0.0000000E+00
 2.52425  0.0000000E+00
 2.54725  0.0000000E+00
 2.57025  0.0000000E+00
 2.59325  0.0000000E+00
 2.61625  0.0000000E+00
 2.63925  0.0000000E+00
 2.66225  0.0000000E+00
 2.68525  0.0000000E+00
 2.70825  0.0000000E+00
 2.73125  0.0000000E+00
 2.75425  0.0000000E+00
 2.77725  0.0000000E+00
 2.80025  0.0000000E+00
 2.82325  33.239
 2.84625  33.6188
 2.86925  34.2882
 2.89225  35.5798
 2.91525  35.5265
 2.93825  35.349
 2.96125  35.6388
 2.98425  35.6166
 3.00725  35.6353
 3.03025  35.3422
 3.05325  34.5366
 3.07625  34.8199
 3.09925  35.9255
 3.12225  36.1144
 3.14525  36.1926
 3.16825  36.1636
 3.19125  35.7828
 3.21425  35.2824
 3.23725  35.1675
 3.26025  35.4955
 3.28325  35.1342
 3.30625  34.9161
 3.32925  34.751
 3.35225  34.3257
 3.37525  34.2302
 3.39825  34.8226
 3.42125  34.4725
 3.44425  34.7141
 3.46725  34.6773
 3.49025  34.5293
 3.51325  33.9847
 3.53625  33.733
 3.55925  33.8541
 3.58225  34.1686
 3.60525  33.8102
 3.62825  33.5223
 3.65125  33.2644
 3.67425  33.2706
 3.69725  33.4089
 3.72025  33.6426
 3.74325  33.7344
 3.76625  33.5176
 3.78925  32.9407
 3.81225  32.6484
 3.83525  32.8486
 3.85825  32.8021
 3.88125  32.8088
 3.90425  32.7629
 3.92725  32.9132
 3.95025  32.9737
 3.97325  32.8331
 3.99625  32.9601
 4.01925  32.9067
 4.04225  32.7377
 4.06525  32.5965
 4.08825  32.5908
 4.11125  32.803
 4.13425  33.0553
 4.15725  32.8487
 4.18025  32.5183
 4.20325  32.1899
 4.22625  31.9557
 4.24925  32.0383
 4.27225  32.2693
 4.29525  32.3956
 4.31825  32.6008
 4.34125  32.6503
 4.36425  32.4619
 4.38725  32.2665
 4.41025  32.3667
 4.43325  32.5393
 4.45625  32.4977
 4.47925  32.3405
 4.50225  32.4252
 4.52525  32.6049
 4.54825  32.8124
 4.57125  32.7783
 4.59425  32.7864
 4.61725  32.9251
 4.64025  32.9982
 4.66325  33.1585
 4.68625  33.3823
 4.70925  33.5321
 4.73225  33.2469
 4.75525  33.0817
 4.77825  33.0957
 4.80125  32.7635
 4.82425  32.5029
 4.84725  32.531
 4.87025  32.7541
 4.89325  32.9023
 4.91625  33.0039
 4.93925  33.0083
 4.96225  32.8032
 4.98525  32.8717
 5.00825  32.9963
 5.03125  33.0406
 5.05425  33.0643
 5.07725  33.3802
 5.10025  33.6046
 5.12325  33.7016
 5.14625  33.9209
 5.16925  33.9954
 5.19225  33.9779
 5.21525  34.0401
 5.23825  34.1202
 5.26125  34.3426
 5.28425  34.3172
 5.30725  34.5006
 5.33025  34.6556
 5.35325  34.6247
 5.37625  34.5551
 5.39925  34.7683
 5.42225  34.7068
 5.44525  34.7733
 5.46825  34.7736
 5.49125  34.7281
 5.51425  34.7824
 5.53725  34.8462
 5.56025  34.9343
 5.58325  35.2204
 5.60625  35.4408
 5.62925  35.5223
 5.65225  35.8156
 5.67525  36.2292
 5.69825  36.1329
 5.72125  36.0972
 5.74425  36.1049
 5.76725  35.9019
 5.79025  35.8672
 5.81325  35.9627
 5.83625  36.1536
 5.85925  36.3606
 5.88225  36.8075
 5.90525  37.6653
 5.92825  39.0847
 5.95125  43.2348
 5.97425  47.9467
 5.99725  47.2704
 6.02025  42.756
 6.04325  38.86
 6.06625  37.6624
 6.08925  37.1313
 6.11225  37.0173
 6.13525  37.0744
 6.15825  37.2069
 6.18125  37.3836
 6.20425  37.3655
 6.22725  37.4512
 6.25025  37.486
 6.27325  37.7891
 6.29625  37.9277
 6.31925  37.9643
 6.34225  38.1372
 6.36525  38.2075
 6.38825  38.3855
 6.41125  38.4479
 6.43425  38.7305
 6.45725  38.972
 6.48025  39.1279
 6.50325  39.3142
 6.52625  39.4487
 6.54925  39.5738
 6.57225  39.5057
 6.59525  39.5632
 6.61825  39.8678
 6.64125  40.1908
 6.66425  40.4596
 6.68725  40.4242
 6.71025  40.5272
 6.73325  40.7157
 6.75625  40.8835
 6.77925  41.0903
 6.80225  41.1966
 6.82525  41.4132
 6.84825  41.8042
 6.87125  41.9127
 6.89425  41.9257
 6.91725  41.8938
 6.94025  42.0909
 6.96325  42.5317
 6.98625  42.68
 7.00925  42.551
 7.03225  42.4972
 7.05525  42.6554
 7.07825  42.8036
 7.10125  42.9689
 7.12425  43.4499
 7.14725  43.6397
 7.17025  43.6139
 7.19325  43.4839
 7.21625  43.6534
 7.23925  43.8058
 7.26225  43.9253
 7.28525  44.0052
 7.30825  44.0624
 7.33125  44.2543
 7.35425  44.4708
 7.37725  44.6094
 7.40025  44.7273
 7.42325  44.6547
 7.44625  44.651
 7.46925  44.5643
 7.49225  44.5031
 7.51525  44.5529
 7.53825  44.5439
 7.56125  44.6546
 7.58425  44.749
 7.60725  44.8427
 7.63025  44.8229
 7.65325  44.8219
 7.67625  44.7287
 7.69925  44.6263
 7.72225  44.6437
 7.74525  44.7273
 7.76825  44.5164
 7.79125  44.4406
 7.81425  44.4136
 7.83725  44.3696
 7.86025  44.4273
 7.88325  44.444
 7.90625  44.2492
 7.92925  44.0769
 7.95225  43.9991
 7.97525  44.01
 7.99825  43.8947
 8.02125  43.7143
 8.04425  43.624
 8.06725  43.6332
 8.09025  43.5469
 8.11325  43.3701
 8.13625  43.0383
 8.15925  42.8006
 8.18225  42.7449
 8.20525  42.5678
 8.22825  42.1747
 8.25125  41.8537
 8.27425  41.5007
 8.29725  41.0737
 8.32025  40.7589
 8.34325  40.6251
 8.36625  40.3879
 8.38925  40.0324
 8.41225  39.7568
 8.43525  39.4677
 8.45825  39.1681
 8.48125  38.8247
 8.50425  38.4808
 8.52725  38.1365
 8.55025  37.7653
 8.57325  37.3573
 8.59625  36.9849
 8.61925  36.633
 8.64225  36.3441
 8.66525  36.0768
 8.68825  35.7758
 8.71125  35.4378
 8.73425  35.0218
 8.75725  34.5203
 8.78025  34.2368
 8.80325  33.9089
 8.82625  33.6686
 8.84925  33.4737
 8.87225  33.1534
 8.89525  32.6211
 8.91825  32.2452
 8.94125  31.9078
 8.96425  31.5823
 8.98725  31.3057
 9.01025  30.9374
 9.03325  30.6704
 9.05625  30.5499
 9.07925  30.4346
 9.10225  30.3206
 9.12525  29.9842
 9.14825  29.6745
 9.17125  29.5091
 9.19425  29.294
 9.21725  29.0503
 9.24025  28.7421
 9.26325  28.4686
 9.28625  28.2724
 9.30925  28.1478
 9.33225  28.0159
 9.35525  27.9447
 9.37825  27.8182
 9.40125  27.585
 9.42425  27.3053
 9.44725  27.0073
 9.47025  26.9438
 9.49325  26.8162
 9.51625  26.7088
 9.53925  26.5825
 9.56225  26.5975
 9.58525  26.3872
 9.60825  26.2646
 9.63125  26.1207
 9.65425  25.8463
 9.67725  25.6443
 9.70025  25.5551
 9.72325  25.6296
 9.74625  25.5841
 9.76925  25.4626
 9.79225  25.2899
 9.81525  25.2398
 9.83825  25.123
 9.86125  25.0482
 9.88425  25.0629
 9.90725  25.0758
 9.93025  24.9439
 9.95325  24.8383
 9.97625  24.8524
 9.99925  24.6633
 10.0222  24.5787
 10.0453  24.519
 10.0683  24.4456
 10.0913  24.4356
 10.1143  24.4327
 10.1373  24.3831
 10.1603  24.2642
 10.1832  24.1967
 10.2063  24.1817
 10.2293  24.0997
 10.2523  24.0187
 10.2752  23.9624
 10.2982  23.8553
 10.3213  23.7919
 10.3443  23.7901
 10.3673  23.7905
 10.3902  23.9042
 10.4133  23.8941
 10.4363  23.8135
 10.4593  23.6303
 10.4823  23.62
 10.5053  23.5492
 10.5283  23.4827
 10.5512  23.5292
 10.5742  23.5681
 10.5973  23.4222
 10.6203  23.3143
 10.6433  23.4245
 10.6662  23.5652
 10.6893  23.477
 10.7123  23.4023
 10.7353  23.3697
 10.7583  23.286
 10.7813  23.3311
 10.8043  23.3043
 10.8272  23.2443
 10.8503  23.2012
 10.8733  23.1348
 10.8963  23.0091
 10.9192  22.9138
 10.9422  22.9626
 10.9653  22.961
 10.9883  22.9123
 11.0113  22.8327
 11.0343  22.9166
 11.0573  22.8163
 11.0803  22.7983
 11.1033  22.8584
 11.1263  22.9667
 11.1493  22.9664
 11.1723  22.9495
 11.1953  22.8761
 11.2182  22.841
 11.2413  22.8009
 11.2643  22.8539
 11.2873  22.8735
 11.3102  22.9275
 11.3333  22.9097
 11.3563  22.9662
 11.3793  23.0726
 11.4023  23.2174
 11.4253  23.3824
 11.4483  23.5853
 11.4713  23.9869
 11.4942  24.6303
 11.5173  26.4716
 11.5403  31.8403
 11.5633  42.603
 11.5862  49.167
 11.6093  43.0144
 11.6323  33.0102
 11.6553  26.8307
 11.6783  24.6645
 11.7013  23.8675
 11.7243  23.4917
 11.7473  23.395
 11.7703  23.2046
 11.7933  23.1732
 11.8163  23.1998
 11.8393  23.1981
 11.8622  23.0114
 11.8853  22.923
 11.9083  22.8742
 11.9313  23.0013
 11.9543  23.3246
 11.9773  23.7247
 12.0003  23.863
 12.0233  23.7534
 12.0463  23.6077
 12.0693  24.1277
 12.0923  25.5754
 12.1153  26.1922
 12.1382  25.289
 12.1613  23.9424
 12.1843  23.2506
 12.2073  23.0036
 12.2302  22.8588
 12.2533  22.8297
 12.2763  22.7936
 12.2993  22.8389
 12.3223  22.9176
 12.3453  22.8329
 12.3683  22.814
 12.3913  22.8237
 12.4142  22.8016
 12.4373  22.7908
 12.4603  22.8185
 12.4833  22.8915
 12.5062  22.9123
 12.5292  22.8712
 12.5523  22.9216
 12.5753  22.9274
 12.5983  22.9701
 12.6212  23.0569
 12.6443  23.0644
 12.6673  23.0003
 12.6903  23.0085
 12.7133  23.1079
 12.7363  23.1544
 12.7593  23.2154
 12.7822  23.2699
 12.8052  23.4312
 12.8283  23.5575
 12.8513  23.5666
 12.8742  23.734
 12.8972  23.9959
 12.9203  23.9731
 12.9433  23.8874
 12.9663  24.0107
 12.9893  24.1788
 13.0123  24.3476
 13.0353  24.5052
 13.0582  24.69
 13.0813  24.7973
 13.1043  25.1151
 13.1273  25.3538
 13.1502  25.3951
 13.1732  25.5665
 13.1963  25.8981
 13.2193  26.2892
 13.2423  26.7051
 13.2652  26.9035
 13.2883  27.0882
 13.3113  27.3807
 13.3343  27.6784
 13.3573  27.9536
 13.3803  28.1238
 13.4033  28.3556
 13.4262  28.5424
 13.4492  28.8648
 13.4723  29.1557
 13.4953  29.5049
 13.5183  29.7085
 13.5412  29.8832
 13.5643  30.0634
 13.5873  30.1449
 13.6103  30.1171
 13.6333  30.0921
 13.6563  30.1132
 13.6793  30.2885
 13.7022  30.206
 13.7253  29.9637
 13.7483  29.9694
 13.7713  29.8625
 13.7942  29.8673
 13.8172  29.9663
 13.8403  30.1989
 13.8633  30.7829
 13.8863  32.5843
 13.9093  38.1321
 13.9323  46.1447
 13.9553  49.5557
 13.9783  45.3905
 14.0013  36.854
 14.0243  31.3846
 14.0473  29.4173
 14.0703  28.6656
 14.0932  28.1329
 14.1163  27.8947
 14.1393  27.7959
 14.1623  27.6181
 14.1852  27.3424
 14.2083  27.2756
 14.2313  27.1811
 14.2543  26.9796
 14.2773  26.8125
 14.3003  26.6757
 14.3233  26.5252
 14.3463  26.4723
 14.3692  26.4168
 14.3923  26.3366
 14.4153  26.2708
 14.4383  26.1095
 14.4612  25.9491
 14.4843  25.877
 14.5073  25.9587
 14.5303  25.9444
 14.5533  25.897
 14.5763  25.7882
 14.5993  25.6852
 14.6223  25.6532
 14.6453  25.5233
 14.6683  25.4795
 14.6913  25.4478
 14.7143  25.3792
 14.7372  25.2598
 14.7603  25.258
 14.7833  25.2169
 14.8063  25.1956
 14.8293  25.2074
 14.8523  25.1476
 14.8753  25.1097
 14.8983  25.182
 14.9213  25.2423
 14.9443  25.1908
 14.9673  25.1647
 14.9903  25.0958
 15.0132  25.1907
 15.0363  25.259
 15.0593  25.1983
 15.0823  25.2223
 15.1052  25.2935
 15.1283  25.353
 15.1513  25.8758
 15.1743  26.9821
 15.1973  27.9095
 15.2203  27.604
 15.2433  26.4852
 15.2663  25.6943
 15.2892  25.2733
 15.3123  25.0633
 15.3353  24.9264
 15.3583  24.9177
 15.3812  24.8994
 15.4043  24.8015
 15.4273  24.7079
 15.4503  24.7568
 15.4733  24.6798
 15.4963  24.6206
 15.5193  24.7144
 15.5423  24.7868
 15.5653  24.7895
 15.5883  24.7767
 15.6113  24.7116
 15.6343  24.7115
 15.6572  24.8323
 15.6803  24.926
 15.7033  24.9105
 15.7263  24.8135
 15.7492  24.8388
 15.7723  24.8589
 15.7953  24.874
 15.8183  24.8837
 15.8413  24.7921
 15.8643  24.8242
 15.8873  24.9321
 15.9103  24.9724
 15.9332  24.9871
 15.9563  24.8783
 15.9793  24.8019
 16.0023  24.8449
 16.0253  24.9119
 16.0482  24.9958
 16.0713  25.0433
 16.0943  25.117
 16.1172  25.1858
 16.1403  25.1131
 16.1633  25.2616
 16.1863  25.8398
 16.2093  26.9374
 16.2323  28.0299
 16.2553  28.2213
 16.2783  27.3743
 16.3012  26.145
 16.3243  25.4768
 16.3472  25.1885
 16.3703  25.058
 16.3933  25.1212
 16.4163  25.133
 16.4393  25.1255
 16.4623  24.9414
 16.4853  24.9063
 16.5083  24.9209
 16.5312  24.9479
 16.5543  24.8728
 16.5773  24.845
 16.6002  24.8912
 16.6233  24.8054
 16.6463  24.712
 16.6693  24.7443
 16.6923  24.8073
 16.7153  24.7946
 16.7383  24.725
 16.7613  24.7401
 16.7843  24.7352
 16.8073  24.6632
 16.8303  24.693
 16.8533  24.7667
 16.8763  24.7875
 16.8992  24.639
 16.9223  24.5459
 16.9453  24.4949
 16.9683  24.4535
 16.9913  24.5101
 17.0143  24.5812
 17.0373  24.5761
 17.0603  24.4684
 17.0832  24.404
 17.1063  24.424
 17.1293  24.3785
 17.1522  24.4851
 17.1753  24.4265
 17.1983  24.4774
 17.2213  24.3653
 17.2443  24.2697
 17.2673  24.1782
 17.2903  24.2485
 17.3133  24.2964
 17.3362  24.2788
 17.3593  24.1733
 17.3823  24.2007
 17.4053  24.2209
 17.4283  24.3162
 17.4513  24.3966
 17.4743  24.5278
 17.4973  24.4802
 17.5203  24.3038
 17.5433  24.3644
 17.5663  24.2948
 17.5893  24.1487
 17.6123  24.0861
 17.6352  24.006
 17.6583  23.9396
 17.6813  23.9347
 17.7042  23.9375
 17.7273  23.9581
 17.7503  23.9534
 17.7733  23.8978
 17.7963  23.9656
 17.8193  23.9694
 17.8423  23.9676
 17.8653  23.965
 17.8882  23.9037
 17.9113  23.95
 17.9343  23.9732
 17.9573  23.9985
 17.9803  24.1312
 18.0033  24.4272
 18.0263  24.5219
 18.0493  24.6844
 18.0723  25.0488
 18.0953  25.346
 18.1183  25.4154
 18.1413  25.0319
 18.1643  24.5761
 18.1872  24.2638
 18.2103  24.1073
 18.2333  23.9904
 18.2563  23.9047
 18.2793  23.8907
 18.3023  23.9414
 18.3253  23.9482
 18.3483  24.0104
 18.3712  24.0006
 18.3943  23.961
 18.4173  23.9685
 18.4402  23.8207
 18.4633  23.7499
 18.4863  23.8242
 18.5093  23.8577
 18.5323  23.8087
 18.5553  23.7403
 18.5783  23.6782
 18.6013  23.7337
 18.6242  23.6851
 18.6473  23.685
 18.6703  23.678
 18.6933  23.7882
 18.7163  23.7655
 18.7392  23.7597
 18.7623  23.7367
 18.7853  23.7293
 18.8083  23.6939
 18.8313  23.7108
 18.8543  23.6998
 18.8773  23.7267
 18.9003  23.7829
 18.9232  23.861
 18.9463  23.9544
 18.9693  23.8027
 18.9922  23.7188
 19.0153  23.7602
 19.0383  23.7422
 19.0613  23.7715
 19.0843  23.8206
 19.1073  23.8035
 19.1303  23.7039
 19.1533  23.7832
 19.1762  23.8567
 19.1993  23.8374
 19.2223  23.7276
 19.2453  23.7219
 19.2683  23.8917
 19.2913  23.8713
 19.3143  23.9823
 19.3373  24.1342
 19.3603  24.0718
 19.3833  23.9296
 19.4062  23.9301
 19.4293  23.9139
 19.4523  23.9397
 19.4752  23.8983
 19.4983  23.8592
 19.5213  23.891
 19.5443  24.0041
 19.5673  24.0823
 19.5903  24.1498
 19.6133  24.2977
 19.6363  24.6238
 19.6593  25.4265
 19.6823  26.4499
 19.7053  27.1273
 19.7283  26.6873
 19.7513  26.0632
 19.7742  25.5402
 19.7973  25.4517
 19.8203  26.1121
 19.8433  27.1832
 19.8663  27.0961
 19.8893  26.1725
 19.9123  25.184
 19.9353  24.5401
 19.9582  24.2943
 19.9813  24.1449
 20.0043  24.1127
 20.0272  24.0779
 20.0503  24.0195
 20.0733  23.8932
 20.0963  23.9679
 20.1193  24.0221
 20.1423  24.039
 20.1653  24.0563
 20.1883  23.9865
 20.2112  24.0123
 20.2343  24.1189
 20.2573  24.0043
 20.2803  23.9368
 20.3033  23.9407
 20.3263  23.9128
 20.3493  23.9482
 20.3723  23.9663
 20.3953  23.9783
 20.4183  23.9989
 20.4413  24.0224
 20.4643  24.0433
 20.4873  23.9766
 20.5102  23.9433
 20.5333  23.8713
 20.5563  24.0005
 20.5792  24.0961
 20.6023  24.1279
 20.6253  24.1658
 20.6483  24.1895
 20.6713  24.2827
 20.6943  24.5454
 20.7173  25.0709
 20.7403  25.7018
 20.7632  26.1211
 20.7863  25.7222
 20.8093  25.0883
 20.8323  24.6175
 20.8553  24.3085
 20.8783  24.1537
 20.9013  24.2264
 20.9243  24.2193
 20.9473  24.1631
 20.9703  24.1855
 20.9933  24.1468
 21.0163  24.0815
 21.0393  24.1029
 21.0622  24.1059
 21.0853  24.1217
 21.1083  24.0827
 21.1313  24.1206
 21.1543  24.0431
 21.1773  24.0796
 21.2003  24.1007
 21.2233  24.1171
 21.2462  24.0853
 21.2693  24.1564
 21.2923  24.1545
 21.3152  24.0295
 21.3383  23.999
 21.3613  24.1255
 21.3843  24.1195
 21.4073  24.1257
 21.4303  24.1206
 21.4533  24.1094
 21.4763  24.1181
 21.4992  24.256
 21.5223  24.3543
 21.5453  24.2741
 21.5683  24.1668
 21.5913  24.2338
 21.6142  24.3296
 21.6373  24.2765
 21.6603  24.2416
 21.6833  24.2177
 21.7063  24.1357
 21.7293  24.2891
 21.7523  24.3686
 21.7753  24.3765
 21.7982  24.3092
 21.8213  24.3151
 21.8443  24.3249
 21.8672  24.402
 21.8903  24.4712
 21.9133  24.4512
 21.9363  24.453
 21.9593  24.5311
 21.9823  24.4835
 22.0053  24.4405
 22.0283  24.4836
 22.0512  24.5018
 22.0743  24.525
 22.0973  24.4926
 22.1203  24.5177
 22.1433  24.5168
 22.1663  24.5555
 22.1893  24.608
 22.2123  24.6882
 22.2353  24.6756
 22.2583  24.6274
 22.2813  24.609
 22.3043  24.7196
 22.3273  24.7268
 22.3502  24.6872
 22.3733  24.7279
 22.3963  24.68
 22.4193  24.692
 22.4423  24.7193
 22.4653  24.7841
 22.4883  24.7488
 22.5113  24.813
 22.5343  24.9668
 22.5573  25.0419
 22.5803  24.9845
 22.6033  25.0299
 22.6263  25.0801
 22.6493  25.0463
 22.6723  25.1453
 22.6953  25.3308
 22.7183  25.4
 22.7413  25.4611
 22.7643  25.5378
 22.7873  25.5697
 22.8103  25.6377
 22.8333  25.7388
 22.8563  25.7282
 22.8793  25.8157
 22.9022  25.9177
 22.9253  26.1106
 22.9483  26.2291
 22.9713  26.2797
 22.9943  26.4377