File: test-data-xrd/xrd-map-34-ID-E/Data_0141.chi
F:\20151113_APS_34IDE\\Brian\Particle1\OCV\Data_0141.tif
2-Theta Angle (Degrees)
Intensity
       2000
 0.01725  0.0000000E+00
 0.04025  0.0000000E+00
 0.06325  0.0000000E+00
 0.08625  0.0000000E+00
 0.10925  0.0000000E+00
 0.13225  0.0000000E+00
 0.15525  0.0000000E+00
 0.17825  0.0000000E+00
 0.20125  0.0000000E+00
 0.22425  0.0000000E+00
 0.24725  0.0000000E+00
 0.27025  0.0000000E+00
 0.29325  0.0000000E+00
 0.31625  0.0000000E+00
 0.33925  0.0000000E+00
 0.36225  0.0000000E+00
 0.38525  0.0000000E+00
 0.40825  0.0000000E+00
 0.43125  0.0000000E+00
 0.45425  0.0000000E+00
 0.47725  0.0000000E+00
 0.50025  0.0000000E+00
 0.52325  0.0000000E+00
 0.54625  0.0000000E+00
 0.56925  0.0000000E+00
 0.59225  0.0000000E+00
 0.61525  0.0000000E+00
 0.63825  0.0000000E+00
 0.66125  0.0000000E+00
 0.68425  0.0000000E+00
 0.70725  0.0000000E+00
 0.73025  0.0000000E+00
 0.75325  0.0000000E+00
 0.77625  0.0000000E+00
 0.79925  0.0000000E+00
 0.82225  0.0000000E+00
 0.84525  0.0000000E+00
 0.86825  0.0000000E+00
 0.89125  0.0000000E+00
 0.91425  0.0000000E+00
 0.93725  0.0000000E+00
 0.96025  0.0000000E+00
 0.98325  0.0000000E+00
 1.00625  0.0000000E+00
 1.02925  0.0000000E+00
 1.05225  0.0000000E+00
 1.07525  0.0000000E+00
 1.09825  0.0000000E+00
 1.12125  0.0000000E+00
 1.14425  0.0000000E+00
 1.16725  0.0000000E+00
 1.19025  0.0000000E+00
 1.21325  0.0000000E+00
 1.23625  0.0000000E+00
 1.25925  0.0000000E+00
 1.28225  0.0000000E+00
 1.30525  0.0000000E+00
 1.32825  0.0000000E+00
 1.35125  0.0000000E+00
 1.37425  0.0000000E+00
 1.39725  0.0000000E+00
 1.42025  0.0000000E+00
 1.44325  0.0000000E+00
 1.46625  0.0000000E+00
 1.48925  0.0000000E+00
 1.51225  0.0000000E+00
 1.53525  0.0000000E+00
 1.55825  0.0000000E+00
 1.58125  0.0000000E+00
 1.60425  0.0000000E+00
 1.62725  0.0000000E+00
 1.65025  0.0000000E+00
 1.67325  0.0000000E+00
 1.69625  0.0000000E+00
 1.71925  0.0000000E+00
 1.74225  0.0000000E+00
 1.76525  0.0000000E+00
 1.78825  0.0000000E+00
 1.81125  0.0000000E+00
 1.83425  0.0000000E+00
 1.85725  0.0000000E+00
 1.88025  0.0000000E+00
 1.90325  0.0000000E+00
 1.92625  0.0000000E+00
 1.94925  0.0000000E+00
 1.97225  0.0000000E+00
 1.99525  0.0000000E+00
 2.01825  0.0000000E+00
 2.04125  0.0000000E+00
 2.06425  0.0000000E+00
 2.08725  0.0000000E+00
 2.11025  0.0000000E+00
 2.13325  0.0000000E+00
 2.15625  0.0000000E+00
 2.17925  0.0000000E+00
 2.20225  0.0000000E+00
 2.22525  0.0000000E+00
 2.24825  0.0000000E+00
 2.27125  0.0000000E+00
 2.29425  0.0000000E+00
 2.31725  0.0000000E+00
 2.34025  0.0000000E+00
 2.36325  0.0000000E+00
 2.38625  0.0000000E+00
 2.40925  0.0000000E+00
 2.43225  0.0000000E+00
 2.45525  0.0000000E+00
 2.47825  0.0000000E+00
 2.50125  0.0000000E+00
 2.52425  0.0000000E+00
 2.54725  0.0000000E+00
 2.57025  0.0000000E+00
 2.59325  0.0000000E+00
 2.61625  0.0000000E+00
 2.63925  0.0000000E+00
 2.66225  0.0000000E+00
 2.68525  0.0000000E+00
 2.70825  0.0000000E+00
 2.73125  0.0000000E+00
 2.75425  0.0000000E+00
 2.77725  0.0000000E+00
 2.80025  0.0000000E+00
 2.82325  35.0815
 2.84625  34.884
 2.86925  35.2062
 2.89225  35.4777
 2.91525  35.372
 2.93825  35.422
 2.96125  35.6301
 2.98425  35.4723
 3.00725  36.2298
 3.03025  36.7078
 3.05325  36.5376
 3.07625  35.9597
 3.09925  34.9851
 3.12225  34.3937
 3.14525  34.5634
 3.16825  34.5483
 3.19125  34.3078
 3.21425  34.6589
 3.23725  34.9964
 3.26025  35.8722
 3.28325  36.0311
 3.30625  35.3818
 3.32925  34.4408
 3.35225  34.4427
 3.37525  34.7868
 3.39825  34.163
 3.42125  33.2257
 3.44425  33.2233
 3.46725  33.4921
 3.49025  33.755
 3.51325  33.5697
 3.53625  33.7212
 3.55925  33.458
 3.58225  33.4276
 3.60525  33.3604
 3.62825  33.1013
 3.65125  32.9832
 3.67425  33.0344
 3.69725  33.0388
 3.72025  32.7162
 3.74325  32.6417
 3.76625  32.8036
 3.78925  32.6679
 3.81225  32.4248
 3.83525  32.5837
 3.85825  33.048
 3.88125  33.1773
 3.90425  33.0562
 3.92725  32.7118
 3.95025  32.6042
 3.97325  32.8334
 3.99625  33.0734
 4.01925  32.8002
 4.04225  32.4522
 4.06525  32.181
 4.08825  32.3708
 4.11125  32.4318
 4.13425  32.3684
 4.15725  32.3777
 4.18025  32.0802
 4.20325  32.1048
 4.22625  32.227
 4.24925  32.2551
 4.27225  32.398
 4.29525  32.2459
 4.31825  32.2754
 4.34125  32.3455
 4.36425  32.6715
 4.38725  32.6482
 4.41025  32.5559
 4.43325  32.7498
 4.45625  32.801
 4.47925  32.7162
 4.50225  32.7912
 4.52525  32.8088
 4.54825  32.6128
 4.57125  32.317
 4.59425  32.1308
 4.61725  32.1922
 4.64025  32.5911
 4.66325  32.8136
 4.68625  32.9729
 4.70925  32.9942
 4.73225  32.693
 4.75525  32.576
 4.77825  32.7726
 4.80125  32.7444
 4.82425  32.6662
 4.84725  32.6393
 4.87025  32.8747
 4.89325  32.9469
 4.91625  33.0644
 4.93925  33.0747
 4.96225  32.7808
 4.98525  32.9534
 5.00825  33.2884
 5.03125  33.4852
 5.05425  33.3058
 5.07725  32.9457
 5.10025  32.9187
 5.12325  33.0399
 5.14625  33.385
 5.16925  33.7119
 5.19225  33.8983
 5.21525  33.8525
 5.23825  33.9653
 5.26125  33.9088
 5.28425  33.9493
 5.30725  33.9911
 5.33025  34.0852
 5.35325  34.1743
 5.37625  34.1639
 5.39925  34.2416
 5.42225  34.2233
 5.44525  34.4318
 5.46825  34.7725
 5.49125  34.6949
 5.51425  34.7156
 5.53725  34.7106
 5.56025  34.6649
 5.58325  34.6876
 5.60625  34.8851
 5.62925  35.145
 5.65225  35.2118
 5.67525  35.4017
 5.69825  35.1649
 5.72125  35.2818
 5.74425  35.6211
 5.76725  35.6107
 5.79025  35.5537
 5.81325  35.7282
 5.83625  35.8791
 5.85925  35.9873
 5.88225  36.1334
 5.90525  36.4046
 5.92825  36.326
 5.95125  36.6127
 5.97425  37.0375
 5.99725  37.1036
 6.02025  36.6692
 6.04325  36.1105
 6.06625  36.1654
 6.08925  36.4159
 6.11225  36.57
 6.13525  36.5241
 6.15825  36.6073
 6.18125  36.6454
 6.20425  36.6074
 6.22725  36.7775
 6.25025  37.0269
 6.27325  37.3277
 6.29625  37.5279
 6.31925  37.6607
 6.34225  37.8604
 6.36525  38.076
 6.38825  38.2241
 6.41125  38.2296
 6.43425  38.4835
 6.45725  38.7215
 6.48025  38.8658
 6.50325  38.986
 6.52625  38.9479
 6.54925  39.1284
 6.57225  39.3793
 6.59525  39.5104
 6.61825  39.6802
 6.64125  39.942
 6.66425  40.1679
 6.68725  40.3183
 6.71025  40.4118
 6.73325  40.54
 6.75625  40.9051
 6.77925  41.0979
 6.80225  41.1923
 6.82525  41.3314
 6.84825  41.6285
 6.87125  41.8667
 6.89425  41.9875
 6.91725  42.0079
 6.94025  41.8937
 6.96325  42.0501
 6.98625  42.1463
 7.00925  42.225
 7.03225  42.474
 7.05525  42.617
 7.07825  42.6403
 7.10125  42.7202
 7.12425  42.8512
 7.14725  42.9542
 7.17025  43.0064
 7.19325  43.2236
 7.21625  43.3902
 7.23925  43.4659
 7.26225  43.5113
 7.28525  43.4614
 7.30825  43.5059
 7.33125  43.6609
 7.35425  43.7202
 7.37725  43.8469
 7.40025  43.9802
 7.42325  44.1215
 7.44625  44.1616
 7.46925  44.2022
 7.49225  44.1999
 7.51525  44.2904
 7.53825  44.4032
 7.56125  44.4368
 7.58425  44.5386
 7.60725  44.5796
 7.63025  44.5958
 7.65325  44.5538
 7.67625  44.3553
 7.69925  44.2473
 7.72225  44.3448
 7.74525  44.2404
 7.76825  44.1015
 7.79125  44.193
 7.81425  44.2976
 7.83725  44.3266
 7.86025  44.3238
 7.88325  44.175
 7.90625  43.9382
 7.92925  43.8828
 7.95225  43.808
 7.97525  43.5038
 7.99825  43.4471
 8.02125  43.3751
 8.04425  43.366
 8.06725  43.1537
 8.09025  42.9707
 8.11325  42.7997
 8.13625  42.5017
 8.15925  42.316
 8.18225  42.0556
 8.20525  41.8074
 8.22825  41.7575
 8.25125  41.6215
 8.27425  41.2908
 8.29725  40.9861
 8.32025  40.8066
 8.34325  40.494
 8.36625  40.0367
 8.38925  39.567
 8.41225  39.1879
 8.43525  38.8259
 8.45825  38.5739
 8.48125  38.2594
 8.50425  37.8483
 8.52725  37.503
 8.55025  37.0913
 8.57325  36.6545
 8.59625  36.2996
 8.61925  36.0916
 8.64225  35.8125
 8.66525  35.5659
 8.68825  35.2574
 8.71125  35.01
 8.73425  34.6502
 8.75725  34.1874
 8.78025  33.7962
 8.80325  33.4256
 8.82625  33.0825
 8.84925  32.7399
 8.87225  32.3816
 8.89525  32.0851
 8.91825  31.8458
 8.94125  31.4516
 8.96425  31.0977
 8.98725  30.8664
 9.01025  30.4434
 9.03325  30.1336
 9.05625  29.9679
 9.07925  29.776
 9.10225  29.4913
 9.12525  29.1501
 9.14825  29.0431
 9.17125  28.8767
 9.19425  28.552
 9.21725  28.2932
 9.24025  28.1312
 9.26325  28.0107
 9.28625  27.8259
 9.30925  27.658
 9.33225  27.5242
 9.35525  27.2829
 9.37825  27.1692
 9.40125  26.9482
 9.42425  26.7793
 9.44725  26.676
 9.47025  26.6176
 9.49325  26.5011
 9.51625  26.3182
 9.53925  26.183
 9.56225  25.9647
 9.58525  25.7258
 9.60825  25.573
 9.63125  25.4776
 9.65425  25.3976
 9.67725  25.4365
 9.70025  25.1858
 9.72325  25.1816
 9.74625  25.2352
 9.76925  25.1705
 9.79225  24.946
 9.81525  24.8033
 9.83825  24.6171
 9.86125  24.5303
 9.88425  24.4384
 9.90725  24.3649
 9.93025  24.3111
 9.95325  24.2485
 9.97625  24.221
 9.99925  24.2231
 10.0222  24.1581
 10.0453  24.0379
 10.0683  23.9211
 10.0913  23.8728
 10.1143  23.8373
 10.1373  23.826
 10.1603  23.7704
 10.1832  23.5562
 10.2063  23.5147
 10.2293  23.5437
 10.2523  23.4544
 10.2752  23.3609
 10.2982  23.4614
 10.3213  23.5026
 10.3443  23.4151
 10.3673  23.3182
 10.3902  23.2519
 10.4133  23.1411
 10.4363  23.0846
 10.4593  23.0416
 10.4823  23.0581
 10.5053  23.0673
 10.5283  23.0842
 10.5512  23.0667
 10.5742  22.9965
 10.5973  22.8755
 10.6203  22.8396
 10.6433  22.8645
 10.6662  22.7651
 10.6893  22.7277
 10.7123  22.7488
 10.7353  22.7284
 10.7583  22.7207
 10.7813  22.7302
 10.8043  22.6659
 10.8272  22.5709
 10.8503  22.5314
 10.8733  22.5627
 10.8963  22.4599
 10.9192  22.3929
 10.9422  22.4059
 10.9653  22.3866
 10.9883  22.4449
 11.0113  22.4348
 11.0343  22.3816
 11.0573  22.3573
 11.0803  22.4297
 11.1033  22.3612
 11.1263  22.3213
 11.1493  22.204
 11.1723  22.148
 11.1953  22.1612
 11.2182  22.1427
 11.2413  22.1467
 11.2643  22.1505
 11.2873  22.1869
 11.3102  22.2231
 11.3333  22.2178
 11.3563  22.1352
 11.3793  22.2169
 11.4023  22.3191
 11.4253  22.3361
 11.4483  22.294
 11.4713  22.3284
 11.4942  22.2964
 11.5173  22.2395
 11.5403  22.3579
 11.5633  22.477
 11.5862  22.6366
 11.6093  22.7022
 11.6323  22.5713
 11.6553  22.3565
 11.6783  22.108
 11.7013  22.1035
 11.7243  22.2049
 11.7473  22.2715
 11.7703  22.1818
 11.7933  22.052
 11.8163  22.0009
 11.8393  22.0559
 11.8622  22.1391
 11.8853  22.2035
 11.9083  22.1822
 11.9313  22.254
 11.9543  22.3786
 11.9773  22.4945
 12.0003  22.4681
 12.0233  22.3249
 12.0463  22.3253
 12.0693  22.4847
 12.0923  22.6022
 12.1153  22.5609
 12.1382  22.4629
 12.1613  22.345
 12.1843  22.3428
 12.2073  22.2535
 12.2302  22.1779
 12.2533  22.2222
 12.2763  22.1816
 12.2993  22.2111
 12.3223  22.2466
 12.3453  22.1574
 12.3683  22.0548
 12.3913  22.0934
 12.4142  22.159
 12.4373  22.2909
 12.4603  22.3299
 12.4833  22.4398
 12.5062  22.4146
 12.5292  22.3287
 12.5523  22.4787
 12.5753  22.4905
 12.5983  22.4531
 12.6212  22.5959
 12.6443  22.7335
 12.6673  22.6801
 12.6903  22.6795
 12.7133  22.6751
 12.7363  22.6934
 12.7593  22.7887
 12.7822  22.85
 12.8052  22.9343
 12.8283  23.1264
 12.8513  23.1155
 12.8742  23.1811
 12.8972  23.2383
 12.9203  23.3125
 12.9433  23.3997
 12.9663  23.4718
 12.9893  23.6111
 13.0123  23.7133
 13.0353  23.9074
 13.0582  24.073
 13.0813  24.3177
 13.1043  24.5183
 13.1273  24.6198
 13.1502  24.8492
 13.1732  25.1235
 13.1963  25.3888
 13.2193  25.7474
 13.2423  26.065
 13.2652  26.3059
 13.2883  26.5683
 13.3113  26.8736
 13.3343  27.1464
 13.3573  27.432
 13.3803  27.706
 13.4033  28.0154
 13.4262  28.3075
 13.4492  28.5252
 13.4723  28.6963
 13.4953  28.9556
 13.5183  29.2166
 13.5412  29.3612
 13.5643  29.4545
 13.5873  29.5434
 13.6103  29.4879
 13.6333  29.4092
 13.6563  29.4054
 13.6793  29.4906
 13.7022  29.4809
 13.7253  29.3661
 13.7483  29.2576
 13.7713  29.0593
 13.7942  28.903
 13.8172  28.7531
 13.8403  28.6123
 13.8633  28.4469
 13.8863  28.4723
 13.9093  28.6552
 13.9323  29.009
 13.9553  29.128
 13.9783  28.774
 14.0013  28.2006
 14.0243  27.7023
 14.0473  27.2915
 14.0703  27.072
 14.0932  26.9856
 14.1163  26.9211
 14.1393  26.7768
 14.1623  26.5853
 14.1852  26.5516
 14.2083  26.512
 14.2313  26.3112
 14.2543  26.08
 14.2773  26.0233
 14.3003  26.0642
 14.3233  26.023
 14.3463  25.8957
 14.3692  25.7761
 14.3923  25.7657
 14.4153  25.7608
 14.4383  25.637
 14.4612  25.4238
 14.4843  25.3187
 14.5073  25.3294
 14.5303  25.2779
 14.5533  25.2947
 14.5763  25.3446
 14.5993  25.2224
 14.6223  25.0181
 14.6453  24.908
 14.6683  24.8764
 14.6913  24.9059
 14.7143  24.9104
 14.7372  24.8514
 14.7603  24.8334
 14.7833  24.8382
 14.8063  24.8459
 14.8293  24.7564
 14.8523  24.7535
 14.8753  24.6995
 14.8983  24.6731
 14.9213  24.6447
 14.9443  24.6583
 14.9673  24.5938
 14.9903  24.4985
 15.0132  24.5003
 15.0363  24.5719
 15.0593  24.4812
 15.0823  24.4912
 15.1052  24.4669
 15.1283  24.3429
 15.1513  24.4476
 15.1743  24.5695
 15.1973  24.5974
 15.2203  24.5727
 15.2433  24.4443
 15.2663  24.2914
 15.2892  24.2139
 15.3123  24.1408
 15.3353  24.1559
 15.3583  24.2466
 15.3812  24.2735
 15.4043  24.3328
 15.4273  24.3315
 15.4503  24.1625
 15.4733  24.1581
 15.4963  24.1838
 15.5193  24.187
 15.5423  24.1832
 15.5653  24.1846
 15.5883  24.2615
 15.6113  24.2865
 15.6343  24.2789
 15.6572  24.2663
 15.6803  24.2334
 15.7033  24.2536
 15.7263  24.3209
 15.7492  24.323
 15.7723  24.3084
 15.7953  24.2553
 15.8183  24.2824
 15.8413  24.2069
 15.8643  24.2263
 15.8873  24.2294
 15.9103  24.225
 15.9332  24.3103
 15.9563  24.2558
 15.9793  24.2305
 16.0023  24.2761
 16.0253  24.3931
 16.0482  24.4977
 16.0713  24.5243
 16.0943  24.5421
 16.1172  24.5019
 16.1403  24.5706
 16.1633  24.723
 16.1863  24.7246
 16.2093  24.845
 16.2323  25.0758
 16.2553  25.2455
 16.2783  25.2018
 16.3012  24.8621
 16.3243  24.5951
 16.3472  24.4328
 16.3703  24.3294
 16.3933  24.3264
 16.4163  24.4198
 16.4393  24.4098
 16.4623  24.3361
 16.4853  24.3662
 16.5083  24.3736
 16.5312  24.2931
 16.5543  24.3079
 16.5773  24.3104
 16.6002  24.3581
 16.6233  24.3394
 16.6463  24.2435
 16.6693  24.2611
 16.6923  24.2484
 16.7153  24.1795
 16.7383  24.179
 16.7613  24.1916
 16.7843  24.0825
 16.8073  24.0298
 16.8303  24.0798
 16.8533  24.1076
 16.8763  24.1649
 16.8992  24.0788
 16.9223  24.1613
 16.9453  24.1097
 16.9683  24.0437
 16.9913  24.0031
 17.0143  24.0378
 17.0373  24.0219
 17.0603  23.9086
 17.0832  23.8575
 17.1063  23.8695
 17.1293  23.8674
 17.1522  23.9456
 17.1753  23.9791
 17.1983  23.9075
 17.2213  23.832
 17.2443  23.7781
 17.2673  23.7212
 17.2903  23.7739
 17.3133  23.8346
 17.3362  23.7633
 17.3593  23.6903
 17.3823  23.6639
 17.4053  23.5923
 17.4283  23.6435
 17.4513  23.6881
 17.4743  23.6798
 17.4973  23.7175
 17.5203  23.5972
 17.5433  23.596
 17.5663  23.6064
 17.5893  23.5702
 17.6123  23.5812
 17.6352  23.5523
 17.6583  23.4726
 17.6813  23.4416
 17.7042  23.3742
 17.7273  23.3619
 17.7503  23.3696
 17.7733  23.4322
 17.7963  23.4823
 17.8193  23.448
 17.8423  23.3865
 17.8653  23.3795
 17.8882  23.3871
 17.9113  23.4025
 17.9343  23.5017
 17.9573  23.56
 17.9803  23.5154
 18.0033  23.5002
 18.0263  23.5163
 18.0493  23.4631
 18.0723  23.5097
 18.0953  23.5833
 18.1183  23.5654
 18.1413  23.5666
 18.1643  23.6505
 18.1872  23.5698
 18.2103  23.4493
 18.2333  23.4379
 18.2563  23.3264
 18.2793  23.2673
 18.3023  23.3457
 18.3253  23.4075
 18.3483  23.3826
 18.3712  23.3913
 18.3943  23.4123
 18.4173  23.4641
 18.4402  23.423
 18.4633  23.3707
 18.4863  23.2748
 18.5093  23.2004
 18.5323  23.2308
 18.5553  23.1626
 18.5783  23.1241
 18.6013  23.2242
 18.6242  23.2142
 18.6473  23.2703
 18.6703  23.2411
 18.6933  23.2513
 18.7163  23.2758
 18.7392  23.2387
 18.7623  23.1932
 18.7853  23.1689
 18.8083  23.2306
 18.8313  23.1566
 18.8543  23.1365
 18.8773  23.1479
 18.9003  23.1664
 18.9232  23.277
 18.9463  23.4286
 18.9693  23.331
 18.9922  23.1495
 19.0153  23.1306
 19.0383  23.1212
 19.0613  23.1475
 19.0843  23.2949
 19.1073  23.306
 19.1303  23.1234
 19.1533  23.077
 19.1762  23.1498
 19.1993  23.3299
 19.2223  23.4539
 19.2453  23.4821
 19.2683  23.4128
 19.2913  23.2225
 19.3143  23.1604
 19.3373  23.2489
 19.3603  23.2741
 19.3833  23.2806
 19.4062  23.2923
 19.4293  23.2698
 19.4523  23.2751
 19.4752  23.3694
 19.4983  23.3565
 19.5213  23.2965
 19.5443  23.2825
 19.5673  23.2284
 19.5903  23.2713
 19.6133  23.3532
 19.6363  23.4437
 19.6593  23.4355
 19.6823  23.4249
 19.7053  23.5653
 19.7283  23.6586
 19.7513  23.6283
 19.7742  23.5884
 19.7973  23.4582
 19.8203  23.4537
 19.8433  23.4873
 19.8663  23.5384
 19.8893  23.547
 19.9123  23.5303
 19.9353  23.3939
 19.9582  23.354
 19.9813  23.3879
 20.0043  23.3979
 20.0272  23.3551
 20.0503  23.285
 20.0733  23.2921
 20.0963  23.3779
 20.1193  23.5043
 20.1423  23.4822
 20.1653  23.4549
 20.1883  23.3964
 20.2112  23.3457
 20.2343  23.3727
 20.2573  23.4068
 20.2803  23.4034
 20.3033  23.3166
 20.3263  23.3174
 20.3493  23.3736
 20.3723  23.349
 20.3953  23.2888
 20.4183  23.3901
 20.4413  23.3971
 20.4643  23.4937
 20.4873  23.5844
 20.5102  23.5021
 20.5333  23.3325
 20.5563  23.4161
 20.5792  23.387
 20.6023  23.4196
 20.6253  23.5003
 20.6483  23.4923
 20.6713  23.4179
 20.6943  23.4544
 20.7173  23.5621
 20.7403  23.6604
 20.7632  23.8022
 20.7863  23.7114
 20.8093  23.6535
 20.8323  23.6253
 20.8553  23.557
 20.8783  23.4926
 20.9013  23.4972
 20.9243  23.4963
 20.9473  23.5059
 20.9703  23.4995
 20.9933  23.5711
 21.0163  23.5271
 21.0393  23.4847
 21.0622  23.5299
 21.0853  23.5396
 21.1083  23.4132
 21.1313  23.464
 21.1543  23.4398
 21.1773  23.5029
 21.2003  23.5533
 21.2233  23.5578
 21.2462  23.5817
 21.2693  23.5336
 21.2923  23.5497
 21.3152  23.4954
 21.3383  23.5384
 21.3613  23.5499
 21.3843  23.5319
 21.4073  23.5572
 21.4303  23.5597
 21.4533  23.5478
 21.4763  23.5968
 21.4992  23.6916
 21.5223  23.7019
 21.5453  23.7523
 21.5683  23.6583
 21.5913  23.6397
 21.6142  23.6856
 21.6373  23.6379
 21.6603  23.6794
 21.6833  23.6894
 21.7063  23.8047
 21.7293  23.7436
 21.7523  23.7037
 21.7753  23.6711
 21.7982  23.7659
 21.8213  23.8601
 21.8443  23.8879
 21.8672  23.9388
 21.8903  23.9067
 21.9133  23.8173
 21.9363  23.7895
 21.9593  23.8132
 21.9823  23.8531
 22.0053  23.9249
 22.0283  23.9255
 22.0512  23.9935
 22.0743  24.1236
 22.0973  24.1112
 22.1203  24.0642
 22.1433  24.0159
 22.1663  23.9359
 22.1893  24.0153
 22.2123  24.2185
 22.2353  24.3448
 22.2583  24.2208
 22.2813  24.0704
 22.3043  24.1723
 22.3273  24.2258
 22.3502  24.223
 22.3733  24.2597
 22.3963  24.2596
 22.4193  24.2338
 22.4423  24.3477
 22.4653  24.2997
 22.4883  24.286
 22.5113  24.4019
 22.5343  24.4385
 22.5573  24.4681
 22.5803  24.4418
 22.6033  24.5253
 22.6263  24.6607
 22.6493  24.6804
 22.6723  24.6677
 22.6953  24.8106
 22.7183  24.8665
 22.7413  24.9172
 22.7643  24.9269
 22.7873  24.8401
 22.8103  25.0054
 22.8333  25.0422
 22.8563  25.1076
 22.8793  25.1672
 22.9022  25.287
 22.9253  25.4556
 22.9483  25.5213
 22.9713  25.6471
 22.9943  25.771