File: test-data-xrd/xrd-map-34-ID-E/Data_0114.chi
F:\20151113_APS_34IDE\\Brian\Particle1\OCV\Data_0114.tif
2-Theta Angle (Degrees)
Intensity
       2000
 0.01725  0.0000000E+00
 0.04025  0.0000000E+00
 0.06325  0.0000000E+00
 0.08625  0.0000000E+00
 0.10925  0.0000000E+00
 0.13225  0.0000000E+00
 0.15525  0.0000000E+00
 0.17825  0.0000000E+00
 0.20125  0.0000000E+00
 0.22425  0.0000000E+00
 0.24725  0.0000000E+00
 0.27025  0.0000000E+00
 0.29325  0.0000000E+00
 0.31625  0.0000000E+00
 0.33925  0.0000000E+00
 0.36225  0.0000000E+00
 0.38525  0.0000000E+00
 0.40825  0.0000000E+00
 0.43125  0.0000000E+00
 0.45425  0.0000000E+00
 0.47725  0.0000000E+00
 0.50025  0.0000000E+00
 0.52325  0.0000000E+00
 0.54625  0.0000000E+00
 0.56925  0.0000000E+00
 0.59225  0.0000000E+00
 0.61525  0.0000000E+00
 0.63825  0.0000000E+00
 0.66125  0.0000000E+00
 0.68425  0.0000000E+00
 0.70725  0.0000000E+00
 0.73025  0.0000000E+00
 0.75325  0.0000000E+00
 0.77625  0.0000000E+00
 0.79925  0.0000000E+00
 0.82225  0.0000000E+00
 0.84525  0.0000000E+00
 0.86825  0.0000000E+00
 0.89125  0.0000000E+00
 0.91425  0.0000000E+00
 0.93725  0.0000000E+00
 0.96025  0.0000000E+00
 0.98325  0.0000000E+00
 1.00625  0.0000000E+00
 1.02925  0.0000000E+00
 1.05225  0.0000000E+00
 1.07525  0.0000000E+00
 1.09825  0.0000000E+00
 1.12125  0.0000000E+00
 1.14425  0.0000000E+00
 1.16725  0.0000000E+00
 1.19025  0.0000000E+00
 1.21325  0.0000000E+00
 1.23625  0.0000000E+00
 1.25925  0.0000000E+00
 1.28225  0.0000000E+00
 1.30525  0.0000000E+00
 1.32825  0.0000000E+00
 1.35125  0.0000000E+00
 1.37425  0.0000000E+00
 1.39725  0.0000000E+00
 1.42025  0.0000000E+00
 1.44325  0.0000000E+00
 1.46625  0.0000000E+00
 1.48925  0.0000000E+00
 1.51225  0.0000000E+00
 1.53525  0.0000000E+00
 1.55825  0.0000000E+00
 1.58125  0.0000000E+00
 1.60425  0.0000000E+00
 1.62725  0.0000000E+00
 1.65025  0.0000000E+00
 1.67325  0.0000000E+00
 1.69625  0.0000000E+00
 1.71925  0.0000000E+00
 1.74225  0.0000000E+00
 1.76525  0.0000000E+00
 1.78825  0.0000000E+00
 1.81125  0.0000000E+00
 1.83425  0.0000000E+00
 1.85725  0.0000000E+00
 1.88025  0.0000000E+00
 1.90325  0.0000000E+00
 1.92625  0.0000000E+00
 1.94925  0.0000000E+00
 1.97225  0.0000000E+00
 1.99525  0.0000000E+00
 2.01825  0.0000000E+00
 2.04125  0.0000000E+00
 2.06425  0.0000000E+00
 2.08725  0.0000000E+00
 2.11025  0.0000000E+00
 2.13325  0.0000000E+00
 2.15625  0.0000000E+00
 2.17925  0.0000000E+00
 2.20225  0.0000000E+00
 2.22525  0.0000000E+00
 2.24825  0.0000000E+00
 2.27125  0.0000000E+00
 2.29425  0.0000000E+00
 2.31725  0.0000000E+00
 2.34025  0.0000000E+00
 2.36325  0.0000000E+00
 2.38625  0.0000000E+00
 2.40925  0.0000000E+00
 2.43225  0.0000000E+00
 2.45525  0.0000000E+00
 2.47825  0.0000000E+00
 2.50125  0.0000000E+00
 2.52425  0.0000000E+00
 2.54725  0.0000000E+00
 2.57025  0.0000000E+00
 2.59325  0.0000000E+00
 2.61625  0.0000000E+00
 2.63925  0.0000000E+00
 2.66225  0.0000000E+00
 2.68525  0.0000000E+00
 2.70825  0.0000000E+00
 2.73125  0.0000000E+00
 2.75425  0.0000000E+00
 2.77725  0.0000000E+00
 2.80025  0.0000000E+00
 2.82325  36.642
 2.84625  34.7987
 2.86925  35.6953
 2.89225  35.372
 2.91525  35.5931
 2.93825  35.6846
 2.96125  34.6301
 2.98425  33.7822
 3.00725  34.1206
 3.03025  34.7415
 3.05325  35.0267
 3.07625  34.9827
 3.09925  34.5802
 3.12225  34.3811
 3.14525  34.2492
 3.16825  34.8429
 3.19125  35.3257
 3.21425  35.7586
 3.23725  35.9242
 3.26025  35.6321
 3.28325  34.8685
 3.30625  34.8646
 3.32925  34.9356
 3.35225  34.3443
 3.37525  34.0278
 3.39825  33.6294
 3.42125  33.5585
 3.44425  33.7258
 3.46725  33.9188
 3.49025  33.9342
 3.51325  33.6581
 3.53625  33.1485
 3.55925  33.0966
 3.58225  33.0107
 3.60525  32.6787
 3.62825  32.8567
 3.65125  32.8043
 3.67425  32.5142
 3.69725  32.6402
 3.72025  32.2727
 3.74325  32.4762
 3.76625  32.5685
 3.78925  32.426
 3.81225  32.0739
 3.83525  32.0021
 3.85825  31.9689
 3.88125  31.9796
 3.90425  31.981
 3.92725  32.2102
 3.95025  32.5707
 3.97325  32.5587
 3.99625  32.8542
 4.01925  32.4614
 4.04225  32.2216
 4.06525  32.3469
 4.08825  32.6153
 4.11125  32.7405
 4.13425  32.4412
 4.15725  32.4456
 4.18025  32.0514
 4.20325  31.6969
 4.22625  31.7143
 4.24925  31.8874
 4.27225  31.9027
 4.29525  32.0937
 4.31825  32.0969
 4.34125  32.0107
 4.36425  31.9489
 4.38725  32.0577
 4.41025  32.1604
 4.43325  32.2063
 4.45625  32.0062
 4.47925  32.3829
 4.50225  32.4675
 4.52525  32.2937
 4.54825  32.2903
 4.57125  32.2013
 4.59425  32.2687
 4.61725  32.3073
 4.64025  32.4743
 4.66325  32.8313
 4.68625  32.7995
 4.70925  32.7278
 4.73225  32.2096
 4.75525  32.1535
 4.77825  32.3889
 4.80125  32.4948
 4.82425  32.359
 4.84725  32.3531
 4.87025  32.3471
 4.89325  32.6309
 4.91625  32.7398
 4.93925  32.6044
 4.96225  32.4144
 4.98525  32.4414
 5.00825  32.7623
 5.03125  33.1663
 5.05425  33.2922
 5.07725  33.0828
 5.10025  33.0157
 5.12325  33.0914
 5.14625  33.2104
 5.16925  33.0877
 5.19225  33.1759
 5.21525  33.2345
 5.23825  33.2121
 5.26125  33.1211
 5.28425  33.2357
 5.30725  33.3409
 5.33025  33.5043
 5.35325  33.4501
 5.37625  33.6121
 5.39925  33.8113
 5.42225  33.8672
 5.44525  34.0567
 5.46825  34.439
 5.49125  34.3503
 5.51425  34.2098
 5.53725  34.416
 5.56025  34.4122
 5.58325  34.4909
 5.60625  34.7199
 5.62925  34.7756
 5.65225  34.7644
 5.67525  34.9629
 5.69825  35.0705
 5.72125  35.2189
 5.74425  35.3618
 5.76725  35.3872
 5.79025  35.4061
 5.81325  35.5055
 5.83625  35.8216
 5.85925  36.0321
 5.88225  36.2199
 5.90525  36.7562
 5.92825  38.9654
 5.95125  45.2655
 5.97425  49.6411
 5.99725  51.1905
 6.02025  46.3087
 6.04325  42.034
 6.06625  38.3295
 6.08925  36.973
 6.11225  36.6107
 6.13525  36.3283
 6.15825  36.3133
 6.18125  36.4199
 6.20425  36.5361
 6.22725  36.6366
 6.25025  36.7669
 6.27325  37.0088
 6.29625  37.1459
 6.31925  37.1213
 6.34225  37.4142
 6.36525  37.6853
 6.38825  37.8816
 6.41125  38.0464
 6.43425  38.1686
 6.45725  38.185
 6.48025  38.2847
 6.50325  38.4694
 6.52625  38.6379
 6.54925  38.6278
 6.57225  38.6566
 6.59525  38.6889
 6.61825  38.9788
 6.64125  39.3803
 6.66425  39.7371
 6.68725  39.7949
 6.71025  39.792
 6.73325  39.9258
 6.75625  40.2521
 6.77925  40.3513
 6.80225  40.3415
 6.82525  40.724
 6.84825  41.1614
 6.87125  41.2048
 6.89425  41.2931
 6.91725  41.4769
 6.94025  41.4475
 6.96325  41.4685
 6.98625  41.6366
 7.00925  41.6708
 7.03225  41.7114
 7.05525  41.8401
 7.07825  41.9195
 7.10125  42.1607
 7.12425  42.5187
 7.14725  42.5858
 7.17025  42.5708
 7.19325  42.8241
 7.21625  43.029
 7.23925  43.0424
 7.26225  43.0602
 7.28525  43.0992
 7.30825  43.114
 7.33125  43.1556
 7.35425  43.066
 7.37725  43.0416
 7.40025  43.2089
 7.42325  43.4127
 7.44625  43.5972
 7.46925  43.5742
 7.49225  43.4628
 7.51525  43.4543
 7.53825  43.5017
 7.56125  43.5898
 7.58425  43.5925
 7.60725  43.6144
 7.63025  43.7299
 7.65325  43.6853
 7.67625  43.6623
 7.69925  43.7192
 7.72225  43.7836
 7.74525  43.6877
 7.76825  43.4614
 7.79125  43.3688
 7.81425  43.2021
 7.83725  43.1663
 7.86025  43.2632
 7.88325  43.2043
 7.90625  43.2587
 7.92925  43.2947
 7.95225  43.1283
 7.97525  42.9357
 7.99825  42.7961
 8.02125  42.5803
 8.04425  42.6139
 8.06725  42.5404
 8.09025  42.2643
 8.11325  41.9407
 8.13625  41.5304
 8.15925  41.3935
 8.18225  41.1088
 8.20525  40.9198
 8.22825  40.7062
 8.25125  40.6268
 8.27425  40.4346
 8.29725  40.1773
 8.32025  39.8548
 8.34325  39.5587
 8.36625  39.3091
 8.38925  39.0857
 8.41225  38.7927
 8.43525  38.5378
 8.45825  38.1906
 8.48125  37.783
 8.50425  37.2867
 8.52725  36.9061
 8.55025  36.5991
 8.57325  36.2628
 8.59625  35.8129
 8.61925  35.5974
 8.64225  35.399
 8.66525  34.9945
 8.68825  34.6067
 8.71125  34.3381
 8.73425  33.9795
 8.75725  33.5611
 8.78025  33.3576
 8.80325  33.1223
 8.82625  32.8543
 8.84925  32.5666
 8.87225  32.2971
 8.89525  31.9449
 8.91825  31.5327
 8.94125  31.1212
 8.96425  30.8181
 8.98725  30.5308
 9.01025  30.2963
 9.03325  30.0537
 9.05625  29.7724
 9.07925  29.6327
 9.10225  29.3409
 9.12525  29.1454
 9.14825  28.9679
 9.17125  28.848
 9.19425  28.5692
 9.21725  28.2431
 9.24025  27.9535
 9.26325  27.7511
 9.28625  27.5905
 9.30925  27.2971
 9.33225  27.0712
 9.35525  26.9662
 9.37825  26.8911
 9.40125  26.8192
 9.42425  26.7102
 9.44725  26.5043
 9.47025  26.3667
 9.49325  26.2591
 9.51625  26.0861
 9.53925  26.0158
 9.56225  25.9334
 9.58525  25.6567
 9.60825  25.4617
 9.63125  25.3701
 9.65425  25.2151
 9.67725  25.1103
 9.70025  24.9917
 9.72325  24.8753
 9.74625  24.7472
 9.76925  24.5943
 9.79225  24.5563
 9.81525  24.5246
 9.83825  24.4823
 9.86125  24.3719
 9.88425  24.2463
 9.90725  24.1388
 9.93025  24.0801
 9.95325  24.0127
 9.97625  24.1013
 9.99925  24.0337
 10.0222  23.965
 10.0453  23.8824
 10.0683  23.8006
 10.0913  23.7627
 10.1143  23.7478
 10.1373  23.6898
 10.1603  23.7269
 10.1832  23.7094
 10.2063  23.681
 10.2293  23.5997
 10.2523  23.4889
 10.2752  23.3839
 10.2982  23.3202
 10.3213  23.2256
 10.3443  23.1426
 10.3673  23.1422
 10.3902  23.2122
 10.4133  23.2242
 10.4363  23.0949
 10.4593  23.0144
 10.4823  22.9958
 10.5053  22.9724
 10.5283  22.8871
 10.5512  22.7834
 10.5742  22.7702
 10.5973  22.7637
 10.6203  22.7535
 10.6433  22.8563
 10.6662  22.9153
 10.6893  22.7928
 10.7123  22.6473
 10.7353  22.6443
 10.7583  22.6454
 10.7813  22.5997
 10.8043  22.5848
 10.8272  22.5836
 10.8503  22.5307
 10.8733  22.4656
 10.8963  22.3861
 10.9192  22.3912
 10.9422  22.4174
 10.9653  22.4481
 10.9883  22.5502
 11.0113  22.502
 11.0343  22.4194
 11.0573  22.411
 11.0803  22.4681
 11.1033  22.3877
 11.1263  22.2824
 11.1493  22.243
 11.1723  22.2656
 11.1953  22.2108
 11.2182  22.2854
 11.2413  22.2769
 11.2643  22.2388
 11.2873  22.1646
 11.3102  22.2934
 11.3333  22.3761
 11.3563  22.3845
 11.3793  22.4773
 11.4023  22.518
 11.4253  22.5468
 11.4483  22.6
 11.4713  22.6564
 11.4942  22.7424
 11.5173  23.0351
 11.5403  24.1168
 11.5633  26.7931
 11.5862  30.7036
 11.6093  31.4947
 11.6323  28.1346
 11.6553  24.9332
 11.6783  23.2613
 11.7013  22.6779
 11.7243  22.4731
 11.7473  22.3058
 11.7703  22.2177
 11.7933  22.3107
 11.8163  22.3939
 11.8393  22.3615
 11.8622  22.3872
 11.8853  22.3438
 11.9083  22.3938
 11.9313  22.6134
 11.9543  22.84
 11.9773  22.9466
 12.0003  22.9163
 12.0233  22.8621
 12.0463  22.9852
 12.0693  23.6818
 12.0923  24.7825
 12.1153  25.7269
 12.1382  25.214
 12.1613  23.7415
 12.1843  22.7445
 12.2073  22.4731
 12.2302  22.3903
 12.2533  22.3745
 12.2763  22.3751
 12.2993  22.4088
 12.3223  22.3984
 12.3453  22.401
 12.3683  22.39
 12.3913  22.3793
 12.4142  22.3804
 12.4373  22.4252
 12.4603  22.4931
 12.4833  22.4955
 12.5062  22.3985
 12.5292  22.3923
 12.5523  22.4733
 12.5753  22.4825
 12.5983  22.5773
 12.6212  22.6728
 12.6443  22.7187
 12.6673  22.7218
 12.6903  22.6892
 12.7133  22.724
 12.7363  22.7479
 12.7593  22.7263
 12.7822  22.8641
 12.8052  23.037
 12.8283  23.0361
 12.8513  22.9913
 12.8742  23.0861
 12.8972  23.1011
 12.9203  23.2556
 12.9433  23.367
 12.9663  23.4388
 12.9893  23.6056
 13.0123  23.7724
 13.0353  23.9728
 13.0582  24.0737
 13.0813  24.1029
 13.1043  24.3051
 13.1273  24.6495
 13.1502  24.8823
 13.1732  25.1899
 13.1963  25.4493
 13.2193  25.6479
 13.2423  25.996
 13.2652  26.1278
 13.2883  26.3757
 13.3113  26.6307
 13.3343  26.9256
 13.3573  27.2406
 13.3803  27.5196
 13.4033  27.8658
 13.4262  28.2015
 13.4492  28.4171
 13.4723  28.5933
 13.4953  28.8626
 13.5183  29.0912
 13.5412  29.2045
 13.5643  29.2461
 13.5873  29.2045
 13.6103  29.2566
 13.6333  29.3598
 13.6563  29.3363
 13.6793  29.4006
 13.7022  29.3065
 13.7253  29.0825
 13.7483  29.0199
 13.7713  28.9744
 13.7942  28.859
 13.8172  28.7934
 13.8403  28.8655
 13.8633  29.0018
 13.8863  29.4524
 13.9093  30.478
 13.9323  32.0745
 13.9553  33.2595
 13.9783  33.4092
 14.0013  31.7901
 14.0243  29.572
 14.0473  28.1221
 14.0703  27.5203
 14.0932  27.283
 14.1163  27.1227
 14.1393  26.9478
 14.1623  26.882
 14.1852  26.7043
 14.2083  26.4481
 14.2313  26.228
 14.2543  26.1204
 14.2773  26.0303
 14.3003  25.9631
 14.3233  25.9364
 14.3463  25.7886
 14.3692  25.7363
 14.3923  25.6916
 14.4153  25.6821
 14.4383  25.6226
 14.4612  25.5366
 14.4843  25.5261
 14.5073  25.5374
 14.5303  25.4757
 14.5533  25.4202
 14.5763  25.2273
 14.5993  25.0562
 14.6223  25.1001
 14.6453  25.0979
 14.6683  25.0936
 14.6913  25.0835
 14.7143  24.99
 14.7372  24.8867
 14.7603  24.9174
 14.7833  24.895
 14.8063  24.8387
 14.8293  24.7835
 14.8523  24.7117
 14.8753  24.5834
 14.8983  24.6135
 14.9213  24.7086
 14.9443  24.7274
 14.9673  24.6491
 14.9903  24.4915
 15.0132  24.4814
 15.0363  24.5203
 15.0593  24.6271
 15.0823  24.6878
 15.1052  24.6684
 15.1283  24.9258
 15.1513  25.6851
 15.1743  26.6402
 15.1973  26.6655
 15.2203  26.1818
 15.2433  25.5437
 15.2663  24.8821
 15.2892  24.5808
 15.3123  24.495
 15.3353  24.4264
 15.3583  24.3271
 15.3812  24.2476
 15.4043  24.2834
 15.4273  24.2071
 15.4503  24.1999
 15.4733  24.2169
 15.4963  24.2663
 15.5193  24.3155
 15.5423  24.3914
 15.5653  24.3238
 15.5883  24.3846
 15.6113  24.3815
 15.6343  24.2425
 15.6572  24.2039
 15.6803  24.2389
 15.7033  24.2836
 15.7263  24.2506
 15.7492  24.2521
 15.7723  24.1771
 15.7953  24.1895
 15.8183  24.2196
 15.8413  24.1586
 15.8643  24.2612
 15.8873  24.341
 15.9103  24.3943
 15.9332  24.3266
 15.9563  24.2551
 15.9793  24.3016
 16.0023  24.3373
 16.0253  24.3957
 16.0482  24.5269
 16.0713  24.6057
 16.0943  24.5761
 16.1172  24.6053
 16.1403  24.6674
 16.1633  24.7229
 16.1863  24.8401
 16.2093  25.2956
 16.2323  26.0566
 16.2553  26.6284
 16.2783  26.259
 16.3012  25.3486
 16.3243  24.8368
 16.3472  24.6439
 16.3703  24.4837
 16.3933  24.4616
 16.4163  24.5212
 16.4393  24.4907
 16.4623  24.4178
 16.4853  24.3745
 16.5083  24.4193
 16.5312  24.3185
 16.5543  24.3252
 16.5773  24.2908
 16.6002  24.2633
 16.6233  24.2375
 16.6463  24.3189
 16.6693  24.4243
 16.6923  24.4054
 16.7153  24.3411
 16.7383  24.244
 16.7613  24.2004
 16.7843  24.2489
 16.8073  24.2489
 16.8303  24.173
 16.8533  24.1681
 16.8763  24.1655
 16.8992  24.0986
 16.9223  24.1121
 16.9453  24.1134
 16.9683  24.1354
 16.9913  24.1128
 17.0143  24.0872
 17.0373  23.9781
 17.0603  23.8391
 17.0832  23.8363
 17.1063  23.937
 17.1293  24.0439
 17.1522  24.046
 17.1753  24.0103
 17.1983  23.9488
 17.2213  23.9638
 17.2443  23.9572
 17.2673  23.9175
 17.2903  23.8287
 17.3133  23.8408
 17.3362  23.8327
 17.3593  23.7644
 17.3823  23.788
 17.4053  23.8398
 17.4283  23.8505
 17.4513  23.8663
 17.4743  23.7722
 17.4973  23.6981
 17.5203  23.6512
 17.5433  23.5352
 17.5663  23.456
 17.5893  23.4853
 17.6123  23.6194
 17.6352  23.6313
 17.6583  23.5812
 17.6813  23.5947
 17.7042  23.5305
 17.7273  23.4722
 17.7503  23.4895
 17.7733  23.4956
 17.7963  23.6539
 17.8193  23.7028
 17.8423  23.6343
 17.8653  23.692
 17.8882  23.6244
 17.9113  23.59
 17.9343  23.5858
 17.9573  23.68
 17.9803  24.1425
 18.0033  25.3092
 18.0263  25.822
 18.0493  25.3673
 18.0723  25.4504
 18.0953  26.0509
 18.1183  26.1514
 18.1413  25.611
 18.1643  24.652
 18.1872  23.9415
 18.2103  23.6931
 18.2333  23.5982
 18.2563  23.5232
 18.2793  23.3991
 18.3023  23.3426
 18.3253  23.3704
 18.3483  23.4544
 18.3712  23.5047
 18.3943  23.5322
 18.4173  23.4868
 18.4402  23.4018
 18.4633  23.4325
 18.4863  23.4631
 18.5093  23.3636
 18.5323  23.2185
 18.5553  23.2198
 18.5783  23.2733
 18.6013  23.3345
 18.6242  23.3188
 18.6473  23.3781
 18.6703  23.2841
 18.6933  23.2662
 18.7163  23.2242
 18.7392  23.229
 18.7623  23.2918
 18.7853  23.3186
 18.8083  23.3848
 18.8313  23.3482
 18.8543  23.2579
 18.8773  23.2526
 18.9003  23.2212
 18.9232  23.3128
 18.9463  23.362
 18.9693  23.3246
 18.9922  23.2859
 19.0153  23.2605
 19.0383  23.3587
 19.0613  23.3417
 19.0843  23.3838
 19.1073  23.3139
 19.1303  23.2647
 19.1533  23.3372
 19.1762  23.2422
 19.1993  23.3216
 19.2223  23.3033
 19.2453  23.2511
 19.2683  23.3201
 19.2913  23.2788
 19.3143  23.3848
 19.3373  23.3661
 19.3603  23.3794
 19.3833  23.3871
 19.4062  23.4186
 19.4293  23.421
 19.4523  23.4177
 19.4752  23.3925
 19.4983  23.4509
 19.5213  23.4011
 19.5443  23.4058
 19.5673  23.3835
 19.5903  23.4767
 19.6133  23.6854
 19.6363  23.896
 19.6593  24.2629
 19.6823  24.8486
 19.7053  25.55
 19.7283  25.9718
 19.7513  25.7802
 19.7742  25.2458
 19.7973  25.1941
 19.8203  25.6213
 19.8433  26.3898
 19.8663  27.1412
 19.8893  26.8301
 19.9123  25.7318
 19.9353  24.6108
 19.9582  23.9359
 19.9813  23.7278
 20.0043  23.6777
 20.0272  23.579
 20.0503  23.5998
 20.0733  23.5349
 20.0963  23.532
 20.1193  23.5439
 20.1423  23.4927
 20.1653  23.4565
 20.1883  23.4367
 20.2112  23.4666
 20.2343  23.4958
 20.2573  23.4999
 20.2803  23.4612
 20.3033  23.4741
 20.3263  23.4028
 20.3493  23.439
 20.3723  23.4465
 20.3953  23.4689
 20.4183  23.5127
 20.4413  23.4411
 20.4643  23.4328
 20.4873  23.5172
 20.5102  23.5639
 20.5333  23.524
 20.5563  23.5916
 20.5792  23.6372
 20.6023  23.6941
 20.6253  23.7235
 20.6483  23.7605
 20.6713  23.8417
 20.6943  24.4116
 20.7173  25.4676
 20.7403  26.2887
 20.7632  26.4245
 20.7863  25.9669
 20.8093  25.0743
 20.8323  24.2959
 20.8553  23.8713
 20.8783  23.7419
 20.9013  23.7438
 20.9243  23.8679
 20.9473  23.8936
 20.9703  23.7762
 20.9933  23.713
 21.0163  23.6059
 21.0393  23.6361
 21.0622  23.5705
 21.0853  23.6547
 21.1083  23.6265
 21.1313  23.707
 21.1543  23.5884
 21.1773  23.6818
 21.2003  23.7755
 21.2233  23.7028
 21.2462  23.6531
 21.2693  23.6941
 21.2923  23.7141
 21.3152  23.669
 21.3383  23.687
 21.3613  23.721
 21.3843  23.7464
 21.4073  23.7188
 21.4303  23.7433
 21.4533  23.6916
 21.4763  23.7466
 21.4992  23.8012
 21.5223  23.7765
 21.5453  23.7433
 21.5683  23.7016
 21.5913  23.7536
 21.6142  23.7696
 21.6373  23.7918
 21.6603  23.8259
 21.6833  23.8042
 21.7063  23.8552
 21.7293  23.9476
 21.7523  23.9404
 21.7753  23.8315
 21.7982  23.8582
 21.8213  23.8937
 21.8443  23.9034
 21.8672  23.8966
 21.8903  23.8881
 21.9133  23.9732
 21.9363  24.0326
 21.9593  24.0068
 21.9823  24.0341
 22.0053  23.9982
 22.0283  24.0414
 22.0512  24.1636
 22.0743  24.1837
 22.0973  24.072
 22.1203  24.1093
 22.1433  24.0761
 22.1663  24.017
 22.1893  23.9574
 22.2123  24.0101
 22.2353  24.0851
 22.2583  24.0993
 22.2813  24.0783
 22.3043  24.1626
 22.3273  24.2433
 22.3502  24.2868
 22.3733  24.2114
 22.3963  24.2017
 22.4193  24.2969
 22.4423  24.393
 22.4653  24.3807
 22.4883  24.3041
 22.5113  24.4341
 22.5343  24.521
 22.5573  24.5721
 22.5803  24.5916
 22.6033  24.558
 22.6263  24.6231
 22.6493  24.6779
 22.6723  24.7018
 22.6953  24.8201
 22.7183  24.8917
 22.7413  24.9089
 22.7643  25.0379
 22.7873  25.0377
 22.8103  25.1816
 22.8333  25.2855
 22.8563  25.3684
 22.8793  25.4229
 22.9022  25.5836
 22.9253  25.7962
 22.9483  25.7697
 22.9713  25.881
 22.9943  26.1112