File: test-data-xrd/xrd-map-34-ID-E/Data_0143.chi
F:\20151113_APS_34IDE\\Brian\Particle1\OCV\Data_0143.tif
2-Theta Angle (Degrees)
Intensity
       2000
 0.01725  0.0000000E+00
 0.04025  0.0000000E+00
 0.06325  0.0000000E+00
 0.08625  0.0000000E+00
 0.10925  0.0000000E+00
 0.13225  0.0000000E+00
 0.15525  0.0000000E+00
 0.17825  0.0000000E+00
 0.20125  0.0000000E+00
 0.22425  0.0000000E+00
 0.24725  0.0000000E+00
 0.27025  0.0000000E+00
 0.29325  0.0000000E+00
 0.31625  0.0000000E+00
 0.33925  0.0000000E+00
 0.36225  0.0000000E+00
 0.38525  0.0000000E+00
 0.40825  0.0000000E+00
 0.43125  0.0000000E+00
 0.45425  0.0000000E+00
 0.47725  0.0000000E+00
 0.50025  0.0000000E+00
 0.52325  0.0000000E+00
 0.54625  0.0000000E+00
 0.56925  0.0000000E+00
 0.59225  0.0000000E+00
 0.61525  0.0000000E+00
 0.63825  0.0000000E+00
 0.66125  0.0000000E+00
 0.68425  0.0000000E+00
 0.70725  0.0000000E+00
 0.73025  0.0000000E+00
 0.75325  0.0000000E+00
 0.77625  0.0000000E+00
 0.79925  0.0000000E+00
 0.82225  0.0000000E+00
 0.84525  0.0000000E+00
 0.86825  0.0000000E+00
 0.89125  0.0000000E+00
 0.91425  0.0000000E+00
 0.93725  0.0000000E+00
 0.96025  0.0000000E+00
 0.98325  0.0000000E+00
 1.00625  0.0000000E+00
 1.02925  0.0000000E+00
 1.05225  0.0000000E+00
 1.07525  0.0000000E+00
 1.09825  0.0000000E+00
 1.12125  0.0000000E+00
 1.14425  0.0000000E+00
 1.16725  0.0000000E+00
 1.19025  0.0000000E+00
 1.21325  0.0000000E+00
 1.23625  0.0000000E+00
 1.25925  0.0000000E+00
 1.28225  0.0000000E+00
 1.30525  0.0000000E+00
 1.32825  0.0000000E+00
 1.35125  0.0000000E+00
 1.37425  0.0000000E+00
 1.39725  0.0000000E+00
 1.42025  0.0000000E+00
 1.44325  0.0000000E+00
 1.46625  0.0000000E+00
 1.48925  0.0000000E+00
 1.51225  0.0000000E+00
 1.53525  0.0000000E+00
 1.55825  0.0000000E+00
 1.58125  0.0000000E+00
 1.60425  0.0000000E+00
 1.62725  0.0000000E+00
 1.65025  0.0000000E+00
 1.67325  0.0000000E+00
 1.69625  0.0000000E+00
 1.71925  0.0000000E+00
 1.74225  0.0000000E+00
 1.76525  0.0000000E+00
 1.78825  0.0000000E+00
 1.81125  0.0000000E+00
 1.83425  0.0000000E+00
 1.85725  0.0000000E+00
 1.88025  0.0000000E+00
 1.90325  0.0000000E+00
 1.92625  0.0000000E+00
 1.94925  0.0000000E+00
 1.97225  0.0000000E+00
 1.99525  0.0000000E+00
 2.01825  0.0000000E+00
 2.04125  0.0000000E+00
 2.06425  0.0000000E+00
 2.08725  0.0000000E+00
 2.11025  0.0000000E+00
 2.13325  0.0000000E+00
 2.15625  0.0000000E+00
 2.17925  0.0000000E+00
 2.20225  0.0000000E+00
 2.22525  0.0000000E+00
 2.24825  0.0000000E+00
 2.27125  0.0000000E+00
 2.29425  0.0000000E+00
 2.31725  0.0000000E+00
 2.34025  0.0000000E+00
 2.36325  0.0000000E+00
 2.38625  0.0000000E+00
 2.40925  0.0000000E+00
 2.43225  0.0000000E+00
 2.45525  0.0000000E+00
 2.47825  0.0000000E+00
 2.50125  0.0000000E+00
 2.52425  0.0000000E+00
 2.54725  0.0000000E+00
 2.57025  0.0000000E+00
 2.59325  0.0000000E+00
 2.61625  0.0000000E+00
 2.63925  0.0000000E+00
 2.66225  0.0000000E+00
 2.68525  0.0000000E+00
 2.70825  0.0000000E+00
 2.73125  0.0000000E+00
 2.75425  0.0000000E+00
 2.77725  0.0000000E+00
 2.80025  0.0000000E+00
 2.82325  30.1914
 2.84625  32.0619
 2.86925  33.8069
 2.89225  34.9548
 2.91525  35.684
 2.93825  37.2057
 2.96125  38.2965
 2.98425  37.8498
 3.00725  36.9267
 3.03025  36.5982
 3.05325  37.3261
 3.07625  36.7623
 3.09925  36.0373
 3.12225  35.4479
 3.14525  35.4437
 3.16825  35.4539
 3.19125  35.2345
 3.21425  35.2492
 3.23725  35.215
 3.26025  35.2195
 3.28325  35.2236
 3.30625  35.0977
 3.32925  34.7679
 3.35225  34.8045
 3.37525  35.126
 3.39825  35.0569
 3.42125  34.8247
 3.44425  34.6338
 3.46725  34.6932
 3.49025  34.7017
 3.51325  33.6379
 3.53625  33.4716
 3.55925  33.5424
 3.58225  33.0456
 3.60525  33.0611
 3.62825  33.3155
 3.65125  33.4465
 3.67425  33.2222
 3.69725  33.0388
 3.72025  32.8507
 3.74325  33.1594
 3.76625  33.4122
 3.78925  33.4025
 3.81225  33.1801
 3.83525  33.3112
 3.85825  33.5221
 3.88125  33.3471
 3.90425  33.11
 3.92725  33.0522
 3.95025  33.3922
 3.97325  33.3767
 3.99625  33.3489
 4.01925  33.2213
 4.04225  32.8905
 4.06525  32.7854
 4.08825  32.7733
 4.11125  32.6035
 4.13425  32.7543
 4.15725  32.5956
 4.18025  32.395
 4.20325  32.5791
 4.22625  32.8075
 4.24925  32.8683
 4.27225  32.5189
 4.29525  32.0908
 4.31825  32.2644
 4.34125  32.1178
 4.36425  32.1117
 4.38725  32.2095
 4.41025  32.5017
 4.43325  32.8154
 4.45625  33.0316
 4.47925  33.0242
 4.50225  32.9258
 4.52525  32.8894
 4.54825  32.7705
 4.57125  32.7075
 4.59425  32.7362
 4.61725  32.7611
 4.64025  32.7997
 4.66325  33.0496
 4.68625  33.0277
 4.70925  33.0411
 4.73225  32.6515
 4.75525  32.6118
 4.77825  32.7245
 4.80125  32.95
 4.82425  33.0309
 4.84725  33.0286
 4.87025  32.8252
 4.89325  32.9119
 4.91625  32.9231
 4.93925  33.0822
 4.96225  33.004
 4.98525  32.8302
 5.00825  33.01
 5.03125  33.2427
 5.05425  33.3919
 5.07725  33.3176
 5.10025  33.3384
 5.12325  33.4717
 5.14625  33.5663
 5.16925  33.6678
 5.19225  33.8871
 5.21525  34.0565
 5.23825  34.2123
 5.26125  34.2747
 5.28425  34.1886
 5.30725  34.276
 5.33025  34.0275
 5.35325  34.0172
 5.37625  34.0692
 5.39925  34.5409
 5.42225  34.8168
 5.44525  35.0609
 5.46825  35.0721
 5.49125  34.9565
 5.51425  34.8808
 5.53725  34.8126
 5.56025  35.0324
 5.58325  35.1952
 5.60625  35.1413
 5.62925  35.2346
 5.65225  35.4325
 5.67525  35.5937
 5.69825  35.5021
 5.72125  35.4537
 5.74425  35.2808
 5.76725  35.4129
 5.79025  35.6994
 5.81325  35.7914
 5.83625  35.9647
 5.85925  35.8766
 5.88225  35.978
 5.90525  36.2021
 5.92825  36.2208
 5.95125  36.6512
 5.97425  37.1548
 5.99725  37.1887
 6.02025  36.7802
 6.04325  36.4166
 6.06625  36.5855
 6.08925  36.7462
 6.11225  36.7568
 6.13525  36.4388
 6.15825  36.2427
 6.18125  36.5256
 6.20425  36.7288
 6.22725  36.9243
 6.25025  37.1596
 6.27325  37.3746
 6.29625  37.6568
 6.31925  37.8411
 6.34225  38.1972
 6.36525  38.4322
 6.38825  38.5834
 6.41125  38.5137
 6.43425  38.6484
 6.45725  38.7593
 6.48025  38.8208
 6.50325  38.995
 6.52625  39.217
 6.54925  39.4384
 6.57225  39.7165
 6.59525  39.9107
 6.61825  39.9995
 6.64125  40.0903
 6.66425  40.2676
 6.68725  40.416
 6.71025  40.5461
 6.73325  40.7269
 6.75625  40.8777
 6.77925  41.0998
 6.80225  41.393
 6.82525  41.5359
 6.84825  41.6715
 6.87125  41.7644
 6.89425  41.9299
 6.91725  42.1336
 6.94025  42.3507
 6.96325  42.5009
 6.98625  42.4899
 7.00925  42.4602
 7.03225  42.5204
 7.05525  42.6192
 7.07825  42.6757
 7.10125  42.8657
 7.12425  42.9516
 7.14725  43.0235
 7.17025  43.2533
 7.19325  43.5007
 7.21625  43.5611
 7.23925  43.5766
 7.26225  43.8022
 7.28525  43.9719
 7.30825  43.9456
 7.33125  43.8956
 7.35425  43.9653
 7.37725  43.9982
 7.40025  44.1094
 7.42325  44.1574
 7.44625  44.3239
 7.46925  44.3797
 7.49225  44.4294
 7.51525  44.4563
 7.53825  44.3092
 7.56125  44.4039
 7.58425  44.7491
 7.60725  44.8914
 7.63025  44.6506
 7.65325  44.5485
 7.67625  44.5981
 7.69925  44.4286
 7.72225  44.414
 7.74525  44.5521
 7.76825  44.4953
 7.79125  44.3997
 7.81425  44.2973
 7.83725  44.4133
 7.86025  44.3306
 7.88325  44.0045
 7.90625  44.1066
 7.92925  44.3805
 7.95225  44.4957
 7.97525  44.0202
 7.99825  43.5831
 8.02125  43.4484
 8.04425  43.3957
 8.06725  43.3187
 8.09025  43.1205
 8.11325  42.9996
 8.13625  42.7864
 8.15925  42.5902
 8.18225  42.4294
 8.20525  42.2057
 8.22825  41.8003
 8.25125  41.4901
 8.27425  41.2424
 8.29725  40.9197
 8.32025  40.5647
 8.34325  40.3243
 8.36625  40.1468
 8.38925  39.8623
 8.41225  39.5995
 8.43525  39.2468
 8.45825  38.8058
 8.48125  38.471
 8.50425  38.0454
 8.52725  37.593
 8.55025  37.119
 8.57325  36.7082
 8.59625  36.4244
 8.61925  36.0966
 8.64225  35.9159
 8.66525  35.6101
 8.68825  35.1563
 8.71125  34.8922
 8.73425  34.5049
 8.75725  34.1676
 8.78025  33.89
 8.80325  33.6383
 8.82625  33.4686
 8.84925  33.1191
 8.87225  32.86
 8.89525  32.4537
 8.91825  32.0655
 8.94125  31.6457
 8.96425  31.2802
 8.98725  30.9003
 9.01025  30.5641
 9.03325  30.252
 9.05625  30.0941
 9.07925  29.9477
 9.10225  29.766
 9.12525  29.4828
 9.14825  29.181
 9.17125  28.9096
 9.19425  28.635
 9.21725  28.4536
 9.24025  28.3731
 9.26325  28.2491
 9.28625  27.9218
 9.30925  27.6341
 9.33225  27.5203
 9.35525  27.1856
 9.37825  27.0295
 9.40125  26.8217
 9.42425  26.6926
 9.44725  26.6611
 9.47025  26.5493
 9.49325  26.4772
 9.51625  26.4031
 9.53925  26.2769
 9.56225  26.1577
 9.58525  25.9535
 9.60825  25.8236
 9.63125  25.7721
 9.65425  25.5539
 9.67725  25.3976
 9.70025  25.3061
 9.72325  25.3264
 9.74625  25.1984
 9.76925  25.1026
 9.79225  25.132
 9.81525  25.0584
 9.83825  24.977
 9.86125  24.8022
 9.88425  24.6917
 9.90725  24.5663
 9.93025  24.5366
 9.95325  24.4694
 9.97625  24.4929
 9.99925  24.4296
 10.0222  24.2318
 10.0453  24.1323
 10.0683  24.0448
 10.0913  23.9567
 10.1143  23.88
 10.1373  23.7661
 10.1603  23.7095
 10.1832  23.7136
 10.2063  23.6186
 10.2293  23.666
 10.2523  23.7146
 10.2752  23.7752
 10.2982  23.8003
 10.3213  23.8586
 10.3443  23.7051
 10.3673  23.4545
 10.3902  23.3564
 10.4133  23.3847
 10.4363  23.2985
 10.4593  23.4539
 10.4823  23.4561
 10.5053  23.279
 10.5283  23.0996
 10.5512  23.0316
 10.5742  23.0813
 10.5973  22.9928
 10.6203  22.983
 10.6433  22.9632
 10.6662  22.9575
 10.6893  22.895
 10.7123  22.8854
 10.7353  22.8794
 10.7583  22.835
 10.7813  22.8312
 10.8043  22.7969
 10.8272  22.8545
 10.8503  22.812
 10.8733  22.6719
 10.8963  22.6239
 10.9192  22.6379
 10.9422  22.6651
 10.9653  22.5729
 10.9883  22.462
 11.0113  22.4769
 11.0343  22.4594
 11.0573  22.4356
 11.0803  22.5511
 11.1033  22.5513
 11.1263  22.4417
 11.1493  22.348
 11.1723  22.2241
 11.1953  22.1721
 11.2182  22.1814
 11.2413  22.1953
 11.2643  22.1921
 11.2873  22.2538
 11.3102  22.2916
 11.3333  22.3302
 11.3563  22.3058
 11.3793  22.4085
 11.4023  22.4392
 11.4253  22.4828
 11.4483  22.5335
 11.4713  22.5263
 11.4942  22.3637
 11.5173  22.3301
 11.5403  22.6623
 11.5633  22.9905
 11.5862  23.1074
 11.6093  22.8225
 11.6323  22.5028
 11.6553  22.2933
 11.6783  22.2585
 11.7013  22.1982
 11.7243  22.1734
 11.7473  22.1841
 11.7703  22.1822
 11.7933  22.2499
 11.8163  22.3605
 11.8393  22.3305
 11.8622  22.3721
 11.8853  22.4075
 11.9083  22.4762
 11.9313  22.435
 11.9543  22.4038
 11.9773  22.3449
 12.0003  22.3584
 12.0233  22.3339
 12.0463  22.3279
 12.0693  22.3371
 12.0923  22.3228
 12.1153  22.3975
 12.1382  22.4342
 12.1613  22.3652
 12.1843  22.2884
 12.2073  22.2412
 12.2302  22.1956
 12.2533  22.1557
 12.2763  22.2083
 12.2993  22.2931
 12.3223  22.3229
 12.3453  22.2782
 12.3683  22.2777
 12.3913  22.355
 12.4142  22.3959
 12.4373  22.4036
 12.4603  22.3866
 12.4833  22.3856
 12.5062  22.3579
 12.5292  22.3769
 12.5523  22.4595
 12.5753  22.5463
 12.5983  22.6181
 12.6212  22.7078
 12.6443  22.7506
 12.6673  22.6747
 12.6903  22.6877
 12.7133  22.8201
 12.7363  22.8431
 12.7593  22.873
 12.7822  22.9241
 12.8052  23.0638
 12.8283  23.0977
 12.8513  23.1342
 12.8742  23.215
 12.8972  23.3306
 12.9203  23.6521
 12.9433  23.8057
 12.9663  23.7403
 12.9893  23.8111
 13.0123  23.8548
 13.0353  24.001
 13.0582  24.0824
 13.0813  24.3225
 13.1043  24.6328
 13.1273  24.884
 13.1502  25.0664
 13.1732  25.3614
 13.1963  25.5755
 13.2193  25.7614
 13.2423  26.0947
 13.2652  26.4161
 13.2883  26.6743
 13.3113  26.8957
 13.3343  27.286
 13.3573  27.6632
 13.3803  28.0189
 13.4033  28.2725
 13.4262  28.4377
 13.4492  28.6217
 13.4723  28.8339
 13.4953  28.9091
 13.5183  29.1459
 13.5412  29.3828
 13.5643  29.5745
 13.5873  29.7106
 13.6103  29.6927
 13.6333  29.6764
 13.6563  29.6597
 13.6793  29.7031
 13.7022  29.4686
 13.7253  29.2931
 13.7483  29.2423
 13.7713  29.1112
 13.7942  29.0132
 13.8172  28.8182
 13.8403  28.7859
 13.8633  28.7035
 13.8863  28.6022
 13.9093  28.658
 13.9323  28.631
 13.9553  28.5604
 13.9783  28.3317
 14.0013  27.9494
 14.0243  27.5712
 14.0473  27.3143
 14.0703  27.1761
 14.0932  27.0893
 14.1163  26.954
 14.1393  26.8245
 14.1623  26.7651
 14.1852  26.6401
 14.2083  26.4521
 14.2313  26.3437
 14.2543  26.2092
 14.2773  26.1322
 14.3003  26.0635
 14.3233  25.9729
 14.3463  25.9426
 14.3692  25.9405
 14.3923  25.864
 14.4153  25.8224
 14.4383  25.775
 14.4612  25.6274
 14.4843  25.5222
 14.5073  25.4968
 14.5303  25.4356
 14.5533  25.3837
 14.5763  25.3134
 14.5993  25.1886
 14.6223  25.1759
 14.6453  25.1744
 14.6683  25.151
 14.6913  25.1008
 14.7143  25.1562
 14.7372  25.1189
 14.7603  24.9587
 14.7833  24.8823
 14.8063  24.8094
 14.8293  24.7976
 14.8523  24.8808
 14.8753  24.8931
 14.8983  24.9095
 14.9213  24.9341
 14.9443  24.8434
 14.9673  24.6682
 14.9903  24.5713
 15.0132  24.6359
 15.0363  24.7385
 15.0593  24.6542
 15.0823  24.5376
 15.1052  24.5459
 15.1283  24.5372
 15.1513  24.6598
 15.1743  24.7554
 15.1973  24.7026
 15.2203  24.6548
 15.2433  24.5325
 15.2663  24.3778
 15.2892  24.302
 15.3123  24.3249
 15.3353  24.3205
 15.3583  24.2412
 15.3812  24.2423
 15.4043  24.265
 15.4273  24.2552
 15.4503  24.2668
 15.4733  24.3951
 15.4963  24.4223
 15.5193  24.4088
 15.5423  24.3593
 15.5653  24.4156
 15.5883  24.4723
 15.6113  24.3825
 15.6343  24.3057
 15.6572  24.3065
 15.6803  24.3555
 15.7033  24.4652
 15.7263  24.4854
 15.7492  24.4244
 15.7723  24.4388
 15.7953  24.4898
 15.8183  24.4516
 15.8413  24.395
 15.8643  24.4166
 15.8873  24.4968
 15.9103  24.528
 15.9332  24.482
 15.9563  24.3914
 15.9793  24.4569
 16.0023  24.555
 16.0253  24.6124
 16.0482  24.6055
 16.0713  24.5984
 16.0943  24.5328
 16.1172  24.6411
 16.1403  24.6778
 16.1633  24.7901
 16.1863  24.8461
 16.2093  24.8625
 16.2323  24.9202
 16.2553  25.0874
 16.2783  25.1671
 16.3012  24.9646
 16.3243  24.8295
 16.3472  24.655
 16.3703  24.4847
 16.3933  24.5454
 16.4163  24.6314
 16.4393  24.8883
 16.4623  25.306
 16.4853  25.3903
 16.5083  24.8963
 16.5312  24.4834
 16.5543  24.4144
 16.5773  24.3133
 16.6002  24.376
 16.6233  24.4273
 16.6463  24.3586
 16.6693  24.3081
 16.6923  24.3374
 16.7153  24.363
 16.7383  24.2299
 16.7613  24.1783
 16.7843  24.2249
 16.8073  24.297
 16.8303  24.3754
 16.8533  24.3416
 16.8763  24.1603
 16.8992  24.1656
 16.9223  24.1317
 16.9453  24.0954
 16.9683  24.1417
 16.9913  24.2312
 17.0143  24.1566
 17.0373  24.0368
 17.0603  23.9493
 17.0832  23.9749
 17.1063  23.9769
 17.1293  23.9913
 17.1522  23.9793
 17.1753  23.9705
 17.1983  24.069
 17.2213  24.0876
 17.2443  24.0583
 17.2673  23.8727
 17.2903  23.7521
 17.3133  23.7179
 17.3362  23.8003
 17.3593  23.8135
 17.3823  23.8731
 17.4053  23.8962
 17.4283  23.8637
 17.4513  23.7673
 17.4743  23.6657
 17.4973  23.6826
 17.5203  23.6703
 17.5433  23.6745
 17.5663  23.617
 17.5893  23.5661
 17.6123  23.6584
 17.6352  23.7173
 17.6583  23.6043
 17.6813  23.6426
 17.7042  23.676
 17.7273  23.6213
 17.7503  23.5658
 17.7733  23.5223
 17.7963  23.5654
 17.8193  23.5748
 17.8423  23.4667
 17.8653  23.444
 17.8882  23.4315
 17.9113  23.4866
 17.9343  23.4707
 17.9573  23.4781
 17.9803  23.4414
 18.0033  23.466
 18.0263  23.4761
 18.0493  23.5788
 18.0723  23.629
 18.0953  23.6891
 18.1183  23.6515
 18.1413  23.4569
 18.1643  23.3494
 18.1872  23.2979
 18.2103  23.3255
 18.2333  23.3325
 18.2563  23.4043
 18.2793  23.4694
 18.3023  23.3643
 18.3253  23.3396
 18.3483  23.3731
 18.3712  23.4
 18.3943  23.4559
 18.4173  23.4427
 18.4402  23.3397
 18.4633  23.305
 18.4863  23.2227
 18.5093  23.2291
 18.5323  23.1961
 18.5553  23.1914
 18.5783  23.2679
 18.6013  23.2992
 18.6242  23.2551
 18.6473  23.2198
 18.6703  23.2369
 18.6933  23.2982
 18.7163  23.2651
 18.7392  23.1943
 18.7623  23.1999
 18.7853  23.187
 18.8083  23.2836
 18.8313  23.325
 18.8543  23.3029
 18.8773  23.2215
 18.9003  23.3295
 18.9232  23.3062
 18.9463  23.3723
 18.9693  23.3165
 18.9922  23.2217
 19.0153  23.266
 19.0383  23.3228
 19.0613  23.3664
 19.0843  23.3471
 19.1073  23.2271
 19.1303  23.2336
 19.1533  23.2743
 19.1762  23.2639
 19.1993  23.3098
 19.2223  23.3159
 19.2453  23.2215
 19.2683  23.2001
 19.2913  23.1961
 19.3143  23.3115
 19.3373  23.3032
 19.3603  23.2972
 19.3833  23.2964
 19.4062  23.359
 19.4293  23.3981
 19.4523  23.3474
 19.4752  23.3124
 19.4983  23.2561
 19.5213  23.2627
 19.5443  23.3542
 19.5673  23.307
 19.5903  23.2804
 19.6133  23.2494
 19.6363  23.3141
 19.6593  23.407
 19.6823  23.4991
 19.7053  23.5852
 19.7283  23.663
 19.7513  23.8504
 19.7742  23.8111
 19.7973  23.7244
 19.8203  23.5942
 19.8433  23.614
 19.8663  23.6354
 19.8893  23.676
 19.9123  23.6331
 19.9353  23.4449
 19.9582  23.37
 19.9813  23.4524
 20.0043  23.4302
 20.0272  23.4167
 20.0503  23.3943
 20.0733  23.3465
 20.0963  23.3687
 20.1193  23.414
 20.1423  23.4915
 20.1653  23.5069
 20.1883  23.4452
 20.2112  23.3286
 20.2343  23.394
 20.2573  23.4651
 20.2803  23.4911
 20.3033  23.3937
 20.3263  23.3715
 20.3493  23.3896
 20.3723  23.429
 20.3953  23.4817
 20.4183  23.5001
 20.4413  23.4076
 20.4643  23.3804
 20.4873  23.42
 20.5102  23.3982
 20.5333  23.3809
 20.5563  23.3606
 20.5792  23.3871
 20.6023  23.58
 20.6253  23.6465
 20.6483  23.541
 20.6713  23.4289
 20.6943  23.5775
 20.7173  23.7615
 20.7403  23.7962
 20.7632  23.7614
 20.7863  23.7366
 20.8093  23.6157
 20.8323  23.5155
 20.8553  23.5317
 20.8783  23.5775
 20.9013  23.4958
 20.9243  23.5191
 20.9473  23.5829
 20.9703  23.5569
 20.9933  23.569
 21.0163  23.4925
 21.0393  23.4956
 21.0622  23.4134
 21.0853  23.4431
 21.1083  23.4704
 21.1313  23.5168
 21.1543  23.4842
 21.1773  23.5699
 21.2003  23.5891
 21.2233  23.6257
 21.2462  23.7055
 21.2693  23.7601
 21.2923  23.7186
 21.3152  23.628
 21.3383  23.5735
 21.3613  23.6401
 21.3843  23.6833
 21.4073  23.7001
 21.4303  23.6929
 21.4533  23.6945
 21.4763  23.6297
 21.4992  23.6793
 21.5223  23.6662
 21.5453  23.6488
 21.5683  23.6155
 21.5913  23.6785
 21.6142  23.8325
 21.6373  23.8609
 21.6603  23.8632
 21.6833  23.8604
 21.7063  23.873
 21.7293  23.84
 21.7523  23.8285
 21.7753  23.8394
 21.7982  23.8338
 21.8213  23.9027
 21.8443  23.9254
 21.8672  23.9836
 21.8903  23.9466
 21.9133  24.0314
 21.9363  24.004
 21.9593  23.982
 21.9823  23.9187
 22.0053  23.854
 22.0283  23.8913
 22.0512  24.0098
 22.0743  24.0618
 22.0973  24.1052
 22.1203  24.1236
 22.1433  24.1953
 22.1663  24.1949
 22.1893  24.1386
 22.2123  24.166
 22.2353  24.2331
 22.2583  24.2444
 22.2813  24.2611
 22.3043  24.2914
 22.3273  24.2891
 22.3502  24.3578
 22.3733  24.3323
 22.3963  24.298
 22.4193  24.24
 22.4423  24.3142
 22.4653  24.4083
 22.4883  24.4393
 22.5113  24.5411
 22.5343  24.5872
 22.5573  24.562
 22.5803  24.6211
 22.6033  24.7001
 22.6263  24.6666
 22.6493  24.5628
 22.6723  24.7116
 22.6953  24.9034
 22.7183  24.8796
 22.7413  24.9027
 22.7643  25.0284
 22.7873  25.0075
 22.8103  25.1661
 22.8333  25.2039
 22.8563  25.2662
 22.8793  25.336
 22.9022  25.4064
 22.9253  25.5881
 22.9483  25.689
 22.9713  25.7685
 22.9943  25.8973