File: test-data-xrd/xrd-map-34-ID-E/Data_0079.chi
F:\20151113_APS_34IDE\\Brian\Particle1\OCV\Data_0079.tif
2-Theta Angle (Degrees)
Intensity
       2000
 0.01725  0.0000000E+00
 0.04025  0.0000000E+00
 0.06325  0.0000000E+00
 0.08625  0.0000000E+00
 0.10925  0.0000000E+00
 0.13225  0.0000000E+00
 0.15525  0.0000000E+00
 0.17825  0.0000000E+00
 0.20125  0.0000000E+00
 0.22425  0.0000000E+00
 0.24725  0.0000000E+00
 0.27025  0.0000000E+00
 0.29325  0.0000000E+00
 0.31625  0.0000000E+00
 0.33925  0.0000000E+00
 0.36225  0.0000000E+00
 0.38525  0.0000000E+00
 0.40825  0.0000000E+00
 0.43125  0.0000000E+00
 0.45425  0.0000000E+00
 0.47725  0.0000000E+00
 0.50025  0.0000000E+00
 0.52325  0.0000000E+00
 0.54625  0.0000000E+00
 0.56925  0.0000000E+00
 0.59225  0.0000000E+00
 0.61525  0.0000000E+00
 0.63825  0.0000000E+00
 0.66125  0.0000000E+00
 0.68425  0.0000000E+00
 0.70725  0.0000000E+00
 0.73025  0.0000000E+00
 0.75325  0.0000000E+00
 0.77625  0.0000000E+00
 0.79925  0.0000000E+00
 0.82225  0.0000000E+00
 0.84525  0.0000000E+00
 0.86825  0.0000000E+00
 0.89125  0.0000000E+00
 0.91425  0.0000000E+00
 0.93725  0.0000000E+00
 0.96025  0.0000000E+00
 0.98325  0.0000000E+00
 1.00625  0.0000000E+00
 1.02925  0.0000000E+00
 1.05225  0.0000000E+00
 1.07525  0.0000000E+00
 1.09825  0.0000000E+00
 1.12125  0.0000000E+00
 1.14425  0.0000000E+00
 1.16725  0.0000000E+00
 1.19025  0.0000000E+00
 1.21325  0.0000000E+00
 1.23625  0.0000000E+00
 1.25925  0.0000000E+00
 1.28225  0.0000000E+00
 1.30525  0.0000000E+00
 1.32825  0.0000000E+00
 1.35125  0.0000000E+00
 1.37425  0.0000000E+00
 1.39725  0.0000000E+00
 1.42025  0.0000000E+00
 1.44325  0.0000000E+00
 1.46625  0.0000000E+00
 1.48925  0.0000000E+00
 1.51225  0.0000000E+00
 1.53525  0.0000000E+00
 1.55825  0.0000000E+00
 1.58125  0.0000000E+00
 1.60425  0.0000000E+00
 1.62725  0.0000000E+00
 1.65025  0.0000000E+00
 1.67325  0.0000000E+00
 1.69625  0.0000000E+00
 1.71925  0.0000000E+00
 1.74225  0.0000000E+00
 1.76525  0.0000000E+00
 1.78825  0.0000000E+00
 1.81125  0.0000000E+00
 1.83425  0.0000000E+00
 1.85725  0.0000000E+00
 1.88025  0.0000000E+00
 1.90325  0.0000000E+00
 1.92625  0.0000000E+00
 1.94925  0.0000000E+00
 1.97225  0.0000000E+00
 1.99525  0.0000000E+00
 2.01825  0.0000000E+00
 2.04125  0.0000000E+00
 2.06425  0.0000000E+00
 2.08725  0.0000000E+00
 2.11025  0.0000000E+00
 2.13325  0.0000000E+00
 2.15625  0.0000000E+00
 2.17925  0.0000000E+00
 2.20225  0.0000000E+00
 2.22525  0.0000000E+00
 2.24825  0.0000000E+00
 2.27125  0.0000000E+00
 2.29425  0.0000000E+00
 2.31725  0.0000000E+00
 2.34025  0.0000000E+00
 2.36325  0.0000000E+00
 2.38625  0.0000000E+00
 2.40925  0.0000000E+00
 2.43225  0.0000000E+00
 2.45525  0.0000000E+00
 2.47825  0.0000000E+00
 2.50125  0.0000000E+00
 2.52425  0.0000000E+00
 2.54725  0.0000000E+00
 2.57025  0.0000000E+00
 2.59325  0.0000000E+00
 2.61625  0.0000000E+00
 2.63925  0.0000000E+00
 2.66225  0.0000000E+00
 2.68525  0.0000000E+00
 2.70825  0.0000000E+00
 2.73125  0.0000000E+00
 2.75425  0.0000000E+00
 2.77725  0.0000000E+00
 2.80025  0.0000000E+00
 2.82325  31.7143
 2.84625  31.4543
 2.86925  34.035
 2.89225  35.8566
 2.91525  36.0489
 2.93825  36.0591
 2.96125  36.2127
 2.98425  36.0573
 3.00725  35.9496
 3.03025  36.1541
 3.05325  35.7495
 3.07625  35.459
 3.09925  35.4904
 3.12225  34.9563
 3.14525  35.6643
 3.16825  35.4066
 3.19125  35.2617
 3.21425  35.756
 3.23725  36.4856
 3.26025  36.6537
 3.28325  36.1816
 3.30625  36.0454
 3.32925  35.7427
 3.35225  35.3936
 3.37525  36.0772
 3.39825  36.0655
 3.42125  34.9374
 3.44425  34.3046
 3.46725  33.9827
 3.49025  34.0652
 3.51325  34.0028
 3.53625  34.0796
 3.55925  34.513
 3.58225  34.3208
 3.60525  34.0727
 3.62825  33.9223
 3.65125  33.368
 3.67425  33.0561
 3.69725  32.9799
 3.72025  32.902
 3.74325  32.9956
 3.76625  32.9331
 3.78925  33.1455
 3.81225  33.629
 3.83525  33.5476
 3.85825  33.339
 3.88125  33.124
 3.90425  32.6082
 3.92725  32.2777
 3.95025  32.3698
 3.97325  32.8359
 3.99625  32.7341
 4.01925  32.4343
 4.04225  32.2386
 4.06525  32.3895
 4.08825  32.3412
 4.11125  32.4046
 4.13425  32.47
 4.15725  32.8801
 4.18025  33.1615
 4.20325  33.0914
 4.22625  32.911
 4.24925  32.5009
 4.27225  32.3657
 4.29525  32.4335
 4.31825  32.3959
 4.34125  32.3819
 4.36425  32.5518
 4.38725  32.7079
 4.41025  32.5741
 4.43325  32.5494
 4.45625  32.524
 4.47925  32.7418
 4.50225  32.7169
 4.52525  32.6444
 4.54825  32.5844
 4.57125  32.7736
 4.59425  33.0768
 4.61725  33.1176
 4.64025  33.0357
 4.66325  33.0153
 4.68625  32.8652
 4.70925  32.7975
 4.73225  32.7606
 4.75525  32.888
 4.77825  32.9979
 4.80125  32.9215
 4.82425  32.8273
 4.84725  32.9015
 4.87025  32.9641
 4.89325  33.0441
 4.91625  33.1414
 4.93925  33.0921
 4.96225  33.0287
 4.98525  32.9708
 5.00825  33.0384
 5.03125  33.2016
 5.05425  33.3005
 5.07725  33.444
 5.10025  33.6478
 5.12325  33.7971
 5.14625  34.0462
 5.16925  34.2196
 5.19225  34.1681
 5.21525  34.0255
 5.23825  33.9779
 5.26125  33.8702
 5.28425  33.8516
 5.30725  34.0243
 5.33025  34.215
 5.35325  34.2173
 5.37625  34.3107
 5.39925  34.6119
 5.42225  34.6768
 5.44525  34.5768
 5.46825  34.6056
 5.49125  34.6712
 5.51425  34.8973
 5.53725  35.0379
 5.56025  35.2555
 5.58325  35.4406
 5.60625  35.5298
 5.62925  35.4841
 5.65225  35.4428
 5.67525  35.5147
 5.69825  35.5429
 5.72125  35.6051
 5.74425  35.6708
 5.76725  35.696
 5.79025  35.9221
 5.81325  36.2081
 5.83625  36.7243
 5.85925  37.3841
 5.88225  37.9439
 5.90525  39.3402
 5.92825  44.9697
 5.95125  61.5562
 5.97425  69.5511
 5.99725  62.1536
 6.02025  47.263
 6.04325  41.4117
 6.06625  38.447
 6.08925  37.5219
 6.11225  37.3245
 6.13525  37.3119
 6.15825  37.4349
 6.18125  37.4642
 6.20425  37.4472
 6.22725  37.3319
 6.25025  37.5857
 6.27325  37.9423
 6.29625  38.1337
 6.31925  38.1087
 6.34225  38.1483
 6.36525  38.3854
 6.38825  38.3254
 6.41125  38.1998
 6.43425  38.3085
 6.45725  38.5785
 6.48025  38.9788
 6.50325  39.1812
 6.52625  39.1887
 6.54925  39.2622
 6.57225  39.4904
 6.59525  39.6713
 6.61825  39.9366
 6.64125  40.0841
 6.66425  40.2299
 6.68725  40.3307
 6.71025  40.5031
 6.73325  40.7799
 6.75625  40.8966
 6.77925  41.0558
 6.80225  41.29
 6.82525  41.6447
 6.84825  41.737
 6.87125  41.7761
 6.89425  41.7637
 6.91725  41.7624
 6.94025  42.0634
 6.96325  42.2823
 6.98625  42.6127
 7.00925  42.6752
 7.03225  42.5206
 7.05525  42.5652
 7.07825  42.6741
 7.10125  42.788
 7.12425  42.9649
 7.14725  43.1006
 7.17025  43.2483
 7.19325  43.3587
 7.21625  43.4869
 7.23925  43.6657
 7.26225  43.7921
 7.28525  43.8236
 7.30825  43.6991
 7.33125  43.8021
 7.35425  43.8871
 7.37725  43.9004
 7.40025  43.9955
 7.42325  44.235
 7.44625  44.4512
 7.46925  44.4487
 7.49225  44.3711
 7.51525  44.375
 7.53825  44.4813
 7.56125  44.648
 7.58425  44.6295
 7.60725  44.6027
 7.63025  44.5749
 7.65325  44.5936
 7.67625  44.4099
 7.69925  44.2688
 7.72225  44.3396
 7.74525  44.3845
 7.76825  44.368
 7.79125  44.3713
 7.81425  44.3502
 7.83725  44.5044
 7.86025  44.4281
 7.88325  44.1815
 7.90625  43.9466
 7.92925  43.7927
 7.95225  43.6927
 7.97525  43.5865
 7.99825  43.4994
 8.02125  43.3792
 8.04425  43.2964
 8.06725  43.1548
 8.09025  43.0453
 8.11325  42.9743
 8.13625  42.6821
 8.15925  42.3894
 8.18225  42.1699
 8.20525  41.8473
 8.22825  41.4058
 8.25125  41.1239
 8.27425  40.9134
 8.29725  40.7007
 8.32025  40.5087
 8.34325  40.2596
 8.36625  39.8795
 8.38925  39.6492
 8.41225  39.5014
 8.43525  39.0562
 8.45825  38.5807
 8.48125  38.3239
 8.50425  38.054
 8.52725  37.6708
 8.55025  37.2097
 8.57325  36.7979
 8.59625  36.5966
 8.61925  36.3027
 8.64225  36.1067
 8.66525  35.7592
 8.68825  35.2912
 8.71125  34.7908
 8.73425  34.4048
 8.75725  34.1368
 8.78025  33.8665
 8.80325  33.3731
 8.82625  32.9757
 8.84925  32.7163
 8.87225  32.4166
 8.89525  32.0558
 8.91825  31.7815
 8.94125  31.5632
 8.96425  31.3119
 8.98725  31.0856
 9.01025  30.7727
 9.03325  30.5996
 9.05625  30.4795
 9.07925  30.1004
 9.10225  29.7268
 9.12525  29.481
 9.14825  29.267
 9.17125  28.9198
 9.19425  28.6512
 9.21725  28.5175
 9.24025  28.1943
 9.26325  28.0065
 9.28625  27.8306
 9.30925  27.7213
 9.33225  27.477
 9.35525  27.2028
 9.37825  27.0628
 9.40125  26.9073
 9.42425  26.8106
 9.44725  26.7294
 9.47025  26.5526
 9.49325  26.4851
 9.51625  26.3667
 9.53925  26.1735
 9.56225  26.0636
 9.58525  25.9878
 9.60825  25.9592
 9.63125  25.9203
 9.65425  25.733
 9.67725  25.455
 9.70025  25.2356
 9.72325  25.2994
 9.74625  25.2615
 9.76925  25.1426
 9.79225  25.0412
 9.81525  24.9941
 9.83825  24.9057
 9.86125  24.729
 9.88425  24.6259
 9.90725  24.5428
 9.93025  24.4784
 9.95325  24.463
 9.97625  24.3792
 9.99925  24.3895
 10.0222  24.3685
 10.0453  24.271
 10.0683  24.1241
 10.0913  24.0373
 10.1143  24.0102
 10.1373  23.9545
 10.1603  23.9532
 10.1832  23.8753
 10.2063  23.8665
 10.2293  23.8258
 10.2523  23.6566
 10.2752  23.5501
 10.2982  23.5984
 10.3213  23.5627
 10.3443  23.5229
 10.3673  23.4748
 10.3902  23.4808
 10.4133  23.499
 10.4363  23.4034
 10.4593  23.4013
 10.4823  23.3956
 10.5053  23.302
 10.5283  23.2803
 10.5512  23.2108
 10.5742  23.1579
 10.5973  23.1987
 10.6203  23.3119
 10.6433  23.3887
 10.6662  23.2957
 10.6893  23.1881
 10.7123  23.0352
 10.7353  22.8828
 10.7583  22.899
 10.7813  22.9456
 10.8043  22.8909
 10.8272  22.862
 10.8503  22.8351
 10.8733  22.7388
 10.8963  22.6582
 10.9192  22.7996
 10.9422  22.8734
 10.9653  22.8026
 10.9883  22.7369
 11.0113  22.7083
 11.0343  22.6144
 11.0573  22.5891
 11.0803  22.5837
 11.1033  22.5494
 11.1263  22.6251
 11.1493  22.5959
 11.1723  22.5251
 11.1953  22.4803
 11.2182  22.452
 11.2413  22.446
 11.2643  22.4984
 11.2873  22.5933
 11.3102  22.7146
 11.3333  22.8126
 11.3563  22.7845
 11.3793  22.8539
 11.4023  23.011
 11.4253  23.0456
 11.4483  23.1208
 11.4713  23.3166
 11.4942  23.6119
 11.5173  24.2617
 11.5403  26.7228
 11.5633  33.8917
 11.5862  44.0316
 11.6093  46.8067
 11.6323  37.9121
 11.6553  28.7536
 11.6783  24.7481
 11.7013  23.5792
 11.7243  23.2084
 11.7473  23.028
 11.7703  22.9164
 11.7933  22.8331
 11.8163  22.8051
 11.8393  22.822
 11.8622  22.7361
 11.8853  22.7656
 11.9083  22.9234
 11.9313  23.4034
 11.9543  24.3189
 11.9773  24.7364
 12.0003  24.533
 12.0233  23.7688
 12.0463  23.762
 12.0693  24.8004
 12.0923  26.0373
 12.1153  26.294
 12.1382  25.144
 12.1613  23.8998
 12.1843  23.1502
 12.2073  22.9314
 12.2302  22.815
 12.2533  22.7452
 12.2763  22.7247
 12.2993  22.715
 12.3223  22.6139
 12.3453  22.5578
 12.3683  22.5828
 12.3913  22.7098
 12.4142  22.7553
 12.4373  22.764
 12.4603  22.8506
 12.4833  22.8356
 12.5062  22.7384
 12.5292  22.6509
 12.5523  22.7868
 12.5753  22.861
 12.5983  22.89
 12.6212  22.9074
 12.6443  22.9474
 12.6673  22.9836
 12.6903  23.0095
 12.7133  23.0588
 12.7363  23.0917
 12.7593  23.0914
 12.7822  23.1616
 12.8052  23.1595
 12.8283  23.2849
 12.8513  23.3492
 12.8742  23.4689
 12.8972  23.5191
 12.9203  23.6127
 12.9433  23.7207
 12.9663  23.8526
 12.9893  24.0842
 13.0123  24.2897
 13.0353  24.59
 13.0582  24.8985
 13.0813  24.918
 13.1043  24.9219
 13.1273  25.0733
 13.1502  25.2741
 13.1732  25.5304
 13.1963  25.7892
 13.2193  26.0128
 13.2423  26.2813
 13.2652  26.5605
 13.2883  26.8691
 13.3113  27.135
 13.3343  27.4421
 13.3573  27.8099
 13.3803  28.078
 13.4033  28.4556
 13.4262  28.741
 13.4492  28.9313
 13.4723  29.153
 13.4953  29.3149
 13.5183  29.4215
 13.5412  29.5573
 13.5643  29.6526
 13.5873  29.7651
 13.6103  29.8335
 13.6333  29.9589
 13.6563  29.9178
 13.6793  29.9619
 13.7022  29.7946
 13.7253  29.7714
 13.7483  29.7738
 13.7713  29.6206
 13.7942  29.623
 13.8172  29.5889
 13.8403  29.7054
 13.8633  30.2991
 13.8863  31.4544
 13.9093  34.3857
 13.9323  39.3654
 13.9553  45.0275
 13.9783  49.424
 14.0013  47.1414
 14.0243  38.5492
 14.0473  32.0038
 14.0703  29.3358
 14.0932  28.3717
 14.1163  28.0408
 14.1393  27.7041
 14.1623  27.4761
 14.1852  27.3583
 14.2083  27.2611
 14.2313  27.144
 14.2543  26.8619
 14.2773  26.6249
 14.3003  26.52
 14.3233  26.395
 14.3463  26.3095
 14.3692  26.2397
 14.3923  26.0861
 14.4153  26.0414
 14.4383  25.9828
 14.4612  25.9059
 14.4843  25.7973
 14.5073  25.7338
 14.5303  25.6108
 14.5533  25.6027
 14.5763  25.6852
 14.5993  25.6631
 14.6223  25.6105
 14.6453  25.5703
 14.6683  25.4409
 14.6913  25.2668
 14.7143  25.2385
 14.7372  25.1876
 14.7603  25.2156
 14.7833  25.2173
 14.8063  25.1325
 14.8293  25.0625
 14.8523  25.1032
 14.8753  24.9971
 14.8983  24.8864
 14.9213  24.8645
 14.9443  24.8447
 14.9673  24.9657
 14.9903  25.0165
 15.0132  25.091
 15.0363  25.0738
 15.0593  24.9785
 15.0823  25.0537
 15.1052  25.1882
 15.1283  25.3633
 15.1513  25.9963
 15.1743  27.7618
 15.1973  30.2857
 15.2203  30.7701
 15.2433  28.3798
 15.2663  26.049
 15.2892  25.1242
 15.3123  24.8786
 15.3353  24.7245
 15.3583  24.7348
 15.3812  24.6791
 15.4043  24.7046
 15.4273  24.6385
 15.4503  24.6533
 15.4733  24.6777
 15.4963  24.7375
 15.5193  24.726
 15.5423  24.6834
 15.5653  24.5798
 15.5883  24.5667
 15.6113  24.6234
 15.6343  24.5874
 15.6572  24.5942
 15.6803  24.6607
 15.7033  24.718
 15.7263  24.6859
 15.7492  24.601
 15.7723  24.6896
 15.7953  24.6875
 15.8183  24.6598
 15.8413  24.5776
 15.8643  24.6987
 15.8873  24.6829
 15.9103  24.749
 15.9332  24.7454
 15.9563  24.6089
 15.9793  24.5655
 16.0023  24.6372
 16.0253  24.7165
 16.0482  24.7813
 16.0713  24.7388
 16.0943  24.748
 16.1172  24.8646
 16.1403  24.9553
 16.1633  25.1396
 16.1863  25.4479
 16.2093  26.1596
 16.2323  27.0734
 16.2553  27.6626
 16.2783  27.1167
 16.3012  25.8946
 16.3243  25.1749
 16.3472  24.9937
 16.3703  24.8562
 16.3933  24.8375
 16.4163  24.875
 16.4393  24.827
 16.4623  24.7707
 16.4853  24.6802
 16.5083  24.6584
 16.5312  24.6946
 16.5543  24.78
 16.5773  24.8476
 16.6002  24.9327
 16.6233  24.7284
 16.6463  24.546
 16.6693  24.5686
 16.6923  24.5826
 16.7153  24.6328
 16.7383  24.587
 16.7613  24.5899
 16.7843  24.4754
 16.8073  24.4516
 16.8303  24.5527
 16.8533  24.5577
 16.8763  24.5427
 16.8992  24.5013
 16.9223  24.5315
 16.9453  24.4786
 16.9683  24.4699
 16.9913  24.4527
 17.0143  24.4494
 17.0373  24.48
 17.0603  24.2928
 17.0832  24.2414
 17.1063  24.2528
 17.1293  24.395
 17.1522  24.3878
 17.1753  24.3044
 17.1983  24.3307
 17.2213  24.3648
 17.2443  24.2766
 17.2673  24.1843
 17.2903  24.2091
 17.3133  24.2133
 17.3362  24.1485
 17.3593  24.1336
 17.3823  24.0799
 17.4053  24.0203
 17.4283  24.0196
 17.4513  24.0978
 17.4743  24.0894
 17.4973  24.06
 17.5203  23.9566
 17.5433  23.8633
 17.5663  23.8293
 17.5893  23.8564
 17.6123  23.9462
 17.6352  23.9851
 17.6583  23.8877
 17.6813  23.8838
 17.7042  23.9647
 17.7273  23.8996
 17.7503  23.9475
 17.7733  23.9815
 17.7963  23.9939
 17.8193  23.8686
 17.8423  23.8729
 17.8653  23.9627
 17.8882  24.0091
 17.9113  23.996
 17.9343  24.0387
 17.9573  24.0673
 17.9803  24.3035
 18.0033  24.8994
 18.0263  25.6687
 18.0493  26.6915
 18.0723  27.7925
 18.0953  28.5021
 18.1183  28.1207
 18.1413  27.0299
 18.1643  25.7465
 18.1872  24.6502
 18.2103  24.2485
 18.2333  24.046
 18.2563  23.8677
 18.2793  23.8056
 18.3023  23.8694
 18.3253  23.8797
 18.3483  23.7722
 18.3712  23.7512
 18.3943  23.7159
 18.4173  23.6874
 18.4402  23.6043
 18.4633  23.5986
 18.4863  23.5644
 18.5093  23.6792
 18.5323  23.694
 18.5553  23.5711
 18.5783  23.546
 18.6013  23.6856
 18.6242  23.6119
 18.6473  23.5783
 18.6703  23.5554
 18.6933  23.5748
 18.7163  23.5784
 18.7392  23.5983
 18.7623  23.7062
 18.7853  23.7161
 18.8083  23.6411
 18.8313  23.568
 18.8543  23.5648
 18.8773  23.6149
 18.9003  23.6059
 18.9232  23.6344
 18.9463  23.6705
 18.9693  23.6165
 18.9922  23.6155
 19.0153  23.6218
 19.0383  23.6406
 19.0613  23.5721
 19.0843  23.6808
 19.1073  23.7721
 19.1303  23.8406
 19.1533  23.8176
 19.1762  23.7712
 19.1993  23.7113
 19.2223  23.6272
 19.2453  23.6271
 19.2683  23.7221
 19.2913  23.6685
 19.3143  23.7056
 19.3373  23.6965
 19.3603  23.7506
 19.3833  23.8819
 19.4062  23.8141
 19.4293  23.8475
 19.4523  23.885
 19.4752  23.8256
 19.4983  23.844
 19.5213  23.9234
 19.5443  23.9989
 19.5673  23.9848
 19.5903  24.0943
 19.6133  24.264
 19.6363  24.7883
 19.6593  25.6198
 19.6823  26.7839
 19.7053  28.5128
 19.7283  30.0888
 19.7513  29.2441
 19.7742  27.1935
 19.7973  26.6124
 19.8203  27.9304
 19.8433  30.6982
 19.8663  32.3687
 19.8893  31.5028
 19.9123  29.1242
 19.9353  26.389
 19.9582  24.9622
 19.9813  24.4121
 20.0043  24.285
 20.0272  24.1429
 20.0503  24.0758
 20.0733  24.0414
 20.0963  23.9986
 20.1193  23.998
 20.1423  23.8762
 20.1653  23.8929
 20.1883  23.8551
 20.2112  23.8161
 20.2343  23.8985
 20.2573  23.8005
 20.2803  23.7867
 20.3033  23.8094
 20.3263  23.7644
 20.3493  23.7635
 20.3723  23.7992
 20.3953  23.7867
 20.4183  23.8349
 20.4413  23.8776
 20.4643  23.8564
 20.4873  23.9259
 20.5102  23.9498
 20.5333  23.8894
 20.5563  24.0565
 20.5792  24.239
 20.6023  24.2977
 20.6253  24.3024
 20.6483  24.5114
 20.6713  24.7233
 20.6943  25.2626
 20.7173  27.0036
 20.7403  29.6869
 20.7632  31.3355
 20.7863  29.503
 20.8093  26.8142
 20.8323  25.3057
 20.8553  24.671
 20.8783  24.3993
 20.9013  24.3084
 20.9243  24.2915
 20.9473  24.3183
 20.9703  24.3255
 20.9933  24.232
 21.0163  24.0901
 21.0393  23.9984
 21.0622  24.0225
 21.0853  24.0621
 21.1083  24.0213
 21.1313  23.9566
 21.1543  23.8594
 21.1773  23.8676
 21.2003  23.9703
 21.2233  23.9987
 21.2462  23.9753
 21.2693  24.0162
 21.2923  24.0166
 21.3152  23.996
 21.3383  23.9616
 21.3613  23.9521
 21.3843  24.0439
 21.4073  23.9987
 21.4303  23.9572
 21.4533  23.9045
 21.4763  23.9441
 21.4992  24.0219
 21.5223  23.9946
 21.5453  24.0223
 21.5683  24.024
 21.5913  24.1414
 21.6142  24.2142
 21.6373  24.2338
 21.6603  24.2194
 21.6833  24.142
 21.7063  24.124
 21.7293  24.1614
 21.7523  24.1495
 21.7753  24.195
 21.7982  24.3066
 21.8213  24.2619
 21.8443  24.206
 21.8672  24.1803
 21.8903  24.1473
 21.9133  24.1414
 21.9363  24.1686
 21.9593  24.224
 21.9823  24.2708
 22.0053  24.3517
 22.0283  24.3709
 22.0512  24.4223
 22.0743  24.4518
 22.0973  24.465
 22.1203  24.474
 22.1433  24.4906
 22.1663  24.3643
 22.1893  24.2957
 22.2123  24.3518
 22.2353  24.4206
 22.2583  24.5101
 22.2813  24.5006
 22.3043  24.6832
 22.3273  24.6856
 22.3502  24.6342
 22.3733  24.705
 22.3963  24.7077
 22.4193  24.7244
 22.4423  24.841
 22.4653  24.8039
 22.4883  24.8043
 22.5113  24.8236
 22.5343  24.8417
 22.5573  24.871
 22.5803  24.8555
 22.6033  24.9232
 22.6263  24.9265
 22.6493  24.9661
 22.6723  25.0174
 22.6953  25.0997
 22.7183  25.135
 22.7413  25.2304
 22.7643  25.3478
 22.7873  25.3067
 22.8103  25.3862
 22.8333  25.5121
 22.8563  25.5956
 22.8793  25.6117
 22.9022  25.7324
 22.9253  25.9759
 22.9483  26.0794
 22.9713  26.1641
 22.9943  26.2709