File: test-data-xrd/xrd-map-34-ID-E/Data_0009.chi
F:\20151113_APS_34IDE\\Brian\Particle1\OCV\Data_0009.tif
2-Theta Angle (Degrees)
Intensity
       2000
 0.01725  0.0000000E+00
 0.04025  0.0000000E+00
 0.06325  0.0000000E+00
 0.08625  0.0000000E+00
 0.10925  0.0000000E+00
 0.13225  0.0000000E+00
 0.15525  0.0000000E+00
 0.17825  0.0000000E+00
 0.20125  0.0000000E+00
 0.22425  0.0000000E+00
 0.24725  0.0000000E+00
 0.27025  0.0000000E+00
 0.29325  0.0000000E+00
 0.31625  0.0000000E+00
 0.33925  0.0000000E+00
 0.36225  0.0000000E+00
 0.38525  0.0000000E+00
 0.40825  0.0000000E+00
 0.43125  0.0000000E+00
 0.45425  0.0000000E+00
 0.47725  0.0000000E+00
 0.50025  0.0000000E+00
 0.52325  0.0000000E+00
 0.54625  0.0000000E+00
 0.56925  0.0000000E+00
 0.59225  0.0000000E+00
 0.61525  0.0000000E+00
 0.63825  0.0000000E+00
 0.66125  0.0000000E+00
 0.68425  0.0000000E+00
 0.70725  0.0000000E+00
 0.73025  0.0000000E+00
 0.75325  0.0000000E+00
 0.77625  0.0000000E+00
 0.79925  0.0000000E+00
 0.82225  0.0000000E+00
 0.84525  0.0000000E+00
 0.86825  0.0000000E+00
 0.89125  0.0000000E+00
 0.91425  0.0000000E+00
 0.93725  0.0000000E+00
 0.96025  0.0000000E+00
 0.98325  0.0000000E+00
 1.00625  0.0000000E+00
 1.02925  0.0000000E+00
 1.05225  0.0000000E+00
 1.07525  0.0000000E+00
 1.09825  0.0000000E+00
 1.12125  0.0000000E+00
 1.14425  0.0000000E+00
 1.16725  0.0000000E+00
 1.19025  0.0000000E+00
 1.21325  0.0000000E+00
 1.23625  0.0000000E+00
 1.25925  0.0000000E+00
 1.28225  0.0000000E+00
 1.30525  0.0000000E+00
 1.32825  0.0000000E+00
 1.35125  0.0000000E+00
 1.37425  0.0000000E+00
 1.39725  0.0000000E+00
 1.42025  0.0000000E+00
 1.44325  0.0000000E+00
 1.46625  0.0000000E+00
 1.48925  0.0000000E+00
 1.51225  0.0000000E+00
 1.53525  0.0000000E+00
 1.55825  0.0000000E+00
 1.58125  0.0000000E+00
 1.60425  0.0000000E+00
 1.62725  0.0000000E+00
 1.65025  0.0000000E+00
 1.67325  0.0000000E+00
 1.69625  0.0000000E+00
 1.71925  0.0000000E+00
 1.74225  0.0000000E+00
 1.76525  0.0000000E+00
 1.78825  0.0000000E+00
 1.81125  0.0000000E+00
 1.83425  0.0000000E+00
 1.85725  0.0000000E+00
 1.88025  0.0000000E+00
 1.90325  0.0000000E+00
 1.92625  0.0000000E+00
 1.94925  0.0000000E+00
 1.97225  0.0000000E+00
 1.99525  0.0000000E+00
 2.01825  0.0000000E+00
 2.04125  0.0000000E+00
 2.06425  0.0000000E+00
 2.08725  0.0000000E+00
 2.11025  0.0000000E+00
 2.13325  0.0000000E+00
 2.15625  0.0000000E+00
 2.17925  0.0000000E+00
 2.20225  0.0000000E+00
 2.22525  0.0000000E+00
 2.24825  0.0000000E+00
 2.27125  0.0000000E+00
 2.29425  0.0000000E+00
 2.31725  0.0000000E+00
 2.34025  0.0000000E+00
 2.36325  0.0000000E+00
 2.38625  0.0000000E+00
 2.40925  0.0000000E+00
 2.43225  0.0000000E+00
 2.45525  0.0000000E+00
 2.47825  0.0000000E+00
 2.50125  0.0000000E+00
 2.52425  0.0000000E+00
 2.54725  0.0000000E+00
 2.57025  0.0000000E+00
 2.59325  0.0000000E+00
 2.61625  0.0000000E+00
 2.63925  0.0000000E+00
 2.66225  0.0000000E+00
 2.68525  0.0000000E+00
 2.70825  0.0000000E+00
 2.73125  0.0000000E+00
 2.75425  0.0000000E+00
 2.77725  0.0000000E+00
 2.80025  0.0000000E+00
 2.82325  33.167
 2.84625  34.7368
 2.86925  34.7183
 2.89225  35.0486
 2.91525  34.9167
 2.93825  34.9237
 2.96125  35.14
 2.98425  35.4041
 3.00725  35.3778
 3.03025  35.5365
 3.05325  35.9516
 3.07625  36.2452
 3.09925  35.9929
 3.12225  35.3965
 3.14525  35.2087
 3.16825  35.3708
 3.19125  35.5371
 3.21425  35.556
 3.23725  35.5622
 3.26025  35.337
 3.28325  35.2502
 3.30625  34.8939
 3.32925  34.8962
 3.35225  35.0815
 3.37525  34.8836
 3.39825  34.5535
 3.42125  34.5352
 3.44425  33.8019
 3.46725  34.0101
 3.49025  34.1807
 3.51325  34.283
 3.53625  34.7465
 3.55925  35.013
 3.58225  34.3842
 3.60525  33.9647
 3.62825  33.6572
 3.65125  33.3831
 3.67425  33.1582
 3.69725  33.0455
 3.72025  32.718
 3.74325  32.6809
 3.76625  33.0497
 3.78925  33.1338
 3.81225  32.7593
 3.83525  32.8156
 3.85825  32.8721
 3.88125  32.5794
 3.90425  32.2505
 3.92725  32.2448
 3.95025  32.3701
 3.97325  32.6754
 3.99625  32.9232
 4.01925  32.8401
 4.04225  32.6413
 4.06525  32.3817
 4.08825  32.2541
 4.11125  32.5697
 4.13425  32.6572
 4.15725  32.5493
 4.18025  32.399
 4.20325  32.3566
 4.22625  32.166
 4.24925  31.7805
 4.27225  31.8144
 4.29525  31.8158
 4.31825  31.8853
 4.34125  31.8717
 4.36425  32.214
 4.38725  32.3601
 4.41025  32.4452
 4.43325  32.3986
 4.45625  32.3734
 4.47925  32.3552
 4.50225  32.3575
 4.52525  32.2776
 4.54825  32.3415
 4.57125  32.5625
 4.59425  32.8146
 4.61725  33.0053
 4.64025  33.1527
 4.66325  33.0608
 4.68625  32.8007
 4.70925  32.8454
 4.73225  32.8799
 4.75525  32.9104
 4.77825  32.9022
 4.80125  32.7456
 4.82425  32.7671
 4.84725  32.9796
 4.87025  33.2151
 4.89325  33.0995
 4.91625  33.1029
 4.93925  33.0533
 4.96225  32.9532
 4.98525  32.8306
 5.00825  33.0323
 5.03125  33.1679
 5.05425  33.2149
 5.07725  33.1078
 5.10025  33.2065
 5.12325  33.1725
 5.14625  33.2269
 5.16925  33.3372
 5.19225  33.7224
 5.21525  33.8855
 5.23825  33.9038
 5.26125  34.0146
 5.28425  34.1323
 5.30725  34.2515
 5.33025  34.1996
 5.35325  34.2456
 5.37625  34.4255
 5.39925  34.622
 5.42225  34.6018
 5.44525  34.7168
 5.46825  34.9211
 5.49125  34.948
 5.51425  34.9509
 5.53725  34.7866
 5.56025  34.6934
 5.58325  34.9266
 5.60625  35.1987
 5.62925  35.3831
 5.65225  35.4299
 5.67525  35.63
 5.69825  35.5471
 5.72125  36.0687
 5.74425  35.7903
 5.76725  35.6204
 5.79025  35.5246
 5.81325  35.5997
 5.83625  35.7493
 5.85925  36.052
 5.88225  36.4108
 5.90525  36.8108
 5.92825  38.1207
 5.95125  40.0864
 5.97425  44.3371
 5.99725  49.5344
 6.02025  48.1461
 6.04325  42.0341
 6.06625  37.8973
 6.08925  37.0577
 6.11225  36.9664
 6.13525  37.0011
 6.15825  36.8368
 6.18125  37.0737
 6.20425  37.2646
 6.22725  37.1985
 6.25025  37.1905
 6.27325  37.2976
 6.29625  37.4704
 6.31925  37.668
 6.34225  37.9929
 6.36525  38.1423
 6.38825  38.2218
 6.41125  38.3611
 6.43425  38.4428
 6.45725  38.5652
 6.48025  38.6718
 6.50325  38.9297
 6.52625  39.1881
 6.54925  39.3713
 6.57225  39.6002
 6.59525  39.7019
 6.61825  39.7535
 6.64125  39.8103
 6.66425  40.0508
 6.68725  40.0851
 6.71025  40.1714
 6.73325  40.4747
 6.75625  40.7445
 6.77925  41.1036
 6.80225  41.4325
 6.82525  41.5416
 6.84825  41.5495
 6.87125  41.5258
 6.89425  41.6687
 6.91725  41.6042
 6.94025  41.6421
 6.96325  41.7457
 6.98625  42.0807
 7.00925  42.1151
 7.03225  42.2836
 7.05525  42.5686
 7.07825  42.7276
 7.10125  42.932
 7.12425  43.0749
 7.14725  43.1395
 7.17025  43.1467
 7.19325  43.3546
 7.21625  43.4467
 7.23925  43.4167
 7.26225  43.4753
 7.28525  43.5852
 7.30825  43.6516
 7.33125  43.7024
 7.35425  43.7437
 7.37725  43.8799
 7.40025  44.1022
 7.42325  44.2841
 7.44625  44.2219
 7.46925  44.0923
 7.49225  44.2496
 7.51525  44.2581
 7.53825  44.2493
 7.56125  44.4065
 7.58425  44.392
 7.60725  44.484
 7.63025  44.4796
 7.65325  44.4784
 7.67625  44.4652
 7.69925  44.4136
 7.72225  44.4888
 7.74525  44.5091
 7.76825  44.3701
 7.79125  44.2727
 7.81425  44.1811
 7.83725  44.0597
 7.86025  44.0958
 7.88325  43.9634
 7.90625  43.8828
 7.92925  43.7536
 7.95225  43.7083
 7.97525  43.6515
 7.99825  43.6552
 8.02125  43.3704
 8.04425  43.2944
 8.06725  43.1081
 8.09025  42.9523
 8.11325  42.9755
 8.13625  42.7787
 8.15925  42.4428
 8.18225  42.2545
 8.20525  42.0664
 8.22825  41.7409
 8.25125  41.5791
 8.27425  41.3087
 8.29725  40.9623
 8.32025  40.6479
 8.34325  40.1749
 8.36625  39.8623
 8.38925  39.5487
 8.41225  39.4483
 8.43525  39.2342
 8.45825  38.796
 8.48125  38.3607
 8.50425  38.0024
 8.52725  37.8001
 8.55025  37.4415
 8.57325  37.0832
 8.59625  36.6801
 8.61925  36.2855
 8.64225  35.9386
 8.66525  35.4936
 8.68825  35.1553
 8.71125  34.9816
 8.73425  34.6754
 8.75725  34.2201
 8.78025  33.8814
 8.80325  33.5661
 8.82625  33.273
 8.84925  32.9818
 8.87225  32.5681
 8.89525  32.2474
 8.91825  31.9545
 8.94125  31.6721
 8.96425  31.3836
 8.98725  31.148
 9.01025  30.7606
 9.03325  30.4151
 9.05625  30.1752
 9.07925  29.8829
 9.10225  29.559
 9.12525  29.3972
 9.14825  29.2302
 9.17125  29.082
 9.19425  28.8137
 9.21725  28.5759
 9.24025  28.3197
 9.26325  28.127
 9.28625  27.7718
 9.30925  27.5117
 9.33225  27.4532
 9.35525  27.3005
 9.37825  27.2426
 9.40125  27.1892
 9.42425  27.0715
 9.44725  26.8921
 9.47025  26.7591
 9.49325  26.6345
 9.51625  26.3674
 9.53925  26.2077
 9.56225  26.0912
 9.58525  26.0871
 9.60825  26.0292
 9.63125  25.8406
 9.65425  25.5743
 9.67725  25.4078
 9.70025  25.2101
 9.72325  25.2848
 9.74625  25.3065
 9.76925  25.1371
 9.79225  25.091
 9.81525  24.9973
 9.83825  24.8191
 9.86125  24.599
 9.88425  24.538
 9.90725  24.476
 9.93025  24.3832
 9.95325  24.2747
 9.97625  24.2564
 9.99925  24.2226
 10.0222  24.0659
 10.0453  24.0685
 10.0683  24.0194
 10.0913  23.9539
 10.1143  23.8712
 10.1373  23.8268
 10.1603  23.8357
 10.1832  23.7965
 10.2063  23.7746
 10.2293  23.832
 10.2523  23.7525
 10.2752  23.5764
 10.2982  23.4551
 10.3213  23.341
 10.3443  23.3018
 10.3673  23.31
 10.3902  23.3909
 10.4133  23.4065
 10.4363  23.2842
 10.4593  23.1762
 10.4823  23.1934
 10.5053  23.1289
 10.5283  23.0766
 10.5512  23.0581
 10.5742  23.1268
 10.5973  23.0493
 10.6203  23.1355
 10.6433  23.0547
 10.6662  22.8561
 10.6893  22.7357
 10.7123  22.8445
 10.7353  22.9324
 10.7583  22.9412
 10.7813  22.8505
 10.8043  22.707
 10.8272  22.6131
 10.8503  22.5841
 10.8733  22.6801
 10.8963  22.6375
 10.9192  22.6623
 10.9422  22.6489
 10.9653  22.556
 10.9883  22.508
 11.0113  22.3904
 11.0343  22.3615
 11.0573  22.2926
 11.0803  22.3792
 11.1033  22.5086
 11.1263  22.6185
 11.1493  22.5892
 11.1723  22.4847
 11.1953  22.4318
 11.2182  22.419
 11.2413  22.2823
 11.2643  22.26
 11.2873  22.3242
 11.3102  22.3532
 11.3333  22.374
 11.3563  22.4305
 11.3793  22.552
 11.4023  22.7935
 11.4253  22.8213
 11.4483  22.78
 11.4713  22.6205
 11.4942  22.4606
 11.5173  22.4521
 11.5403  22.8708
 11.5633  23.7687
 11.5862  24.8851
 11.6093  25.1668
 11.6323  23.9252
 11.6553  23.1332
 11.6783  22.7041
 11.7013  22.4606
 11.7243  22.4136
 11.7473  22.4561
 11.7703  22.3722
 11.7933  22.2564
 11.8163  22.2818
 11.8393  22.3077
 11.8622  22.3121
 11.8853  22.3524
 11.9083  22.3446
 11.9313  22.3297
 11.9543  22.383
 11.9773  22.419
 12.0003  22.554
 12.0233  22.5511
 12.0463  22.7363
 12.0693  23.1063
 12.0923  23.5237
 12.1153  23.5454
 12.1382  23.1699
 12.1613  22.7598
 12.1843  22.5372
 12.2073  22.3942
 12.2302  22.2943
 12.2533  22.2385
 12.2763  22.3308
 12.2993  22.4312
 12.3223  22.4377
 12.3453  22.4531
 12.3683  22.4775
 12.3913  22.4277
 12.4142  22.4459
 12.4373  22.4811
 12.4603  22.5258
 12.4833  22.4783
 12.5062  22.4717
 12.5292  22.4905
 12.5523  22.5164
 12.5753  22.5515
 12.5983  22.6156
 12.6212  22.7044
 12.6443  22.6944
 12.6673  22.6991
 12.6903  22.7522
 12.7133  22.8428
 12.7363  22.8014
 12.7593  22.8727
 12.7822  23.0591
 12.8052  23.1833
 12.8283  23.2702
 12.8513  23.2644
 12.8742  23.2958
 12.8972  23.401
 12.9203  23.5013
 12.9433  23.6806
 12.9663  23.8065
 12.9893  23.9228
 13.0123  24.0338
 13.0353  24.2087
 13.0582  24.4212
 13.0813  24.4598
 13.1043  24.6565
 13.1273  24.9023
 13.1502  25.2098
 13.1732  25.4182
 13.1963  25.5121
 13.2193  25.7906
 13.2423  26.1383
 13.2652  26.393
 13.2883  26.6394
 13.3113  26.8022
 13.3343  27.0524
 13.3573  27.5111
 13.3803  27.9309
 13.4033  28.265
 13.4262  28.4361
 13.4492  28.5778
 13.4723  28.7326
 13.4953  29.0204
 13.5183  29.2562
 13.5412  29.3791
 13.5643  29.5135
 13.5873  29.6422
 13.6103  29.6997
 13.6333  29.652
 13.6563  29.5678
 13.6793  29.5705
 13.7022  29.44
 13.7253  29.357
 13.7483  29.3047
 13.7713  29.2858
 13.7942  29.1943
 13.8172  28.9825
 13.8403  28.8366
 13.8633  28.7071
 13.8863  28.7242
 13.9093  28.9275
 13.9323  29.1139
 13.9553  29.0414
 13.9783  28.7427
 14.0013  28.2061
 14.0243  27.8046
 14.0473  27.4793
 14.0703  27.3215
 14.0932  27.2794
 14.1163  27.2092
 14.1393  27.0674
 14.1623  26.9252
 14.1852  26.6854
 14.2083  26.5224
 14.2313  26.4377
 14.2543  26.3585
 14.2773  26.2275
 14.3003  26.1328
 14.3233  26.0374
 14.3463  25.9562
 14.3692  25.9673
 14.3923  25.9147
 14.4153  25.7964
 14.4383  25.7409
 14.4612  25.6304
 14.4843  25.4713
 14.5073  25.4538
 14.5303  25.5721
 14.5533  25.589
 14.5763  25.4967
 14.5993  25.3777
 14.6223  25.3856
 14.6453  25.3348
 14.6683  25.1561
 14.6913  25.1116
 14.7143  25.1202
 14.7372  25.0241
 14.7603  24.9328
 14.7833  24.9247
 14.8063  24.8798
 14.8293  24.7825
 14.8523  24.8893
 14.8753  24.8659
 14.8983  24.9062
 14.9213  24.915
 14.9443  24.8825
 14.9673  24.8591
 14.9903  24.7528
 15.0132  24.6365
 15.0363  24.6556
 15.0593  24.7177
 15.0823  24.7944
 15.1052  24.7936
 15.1283  24.7582
 15.1513  24.9147
 15.1743  25.2265
 15.1973  25.4088
 15.2203  25.3728
 15.2433  24.918
 15.2663  24.573
 15.2892  24.5408
 15.3123  24.4922
 15.3353  24.3782
 15.3583  24.3517
 15.3812  24.3803
 15.4043  24.6465
 15.4273  25.1636
 15.4503  25.4
 15.4733  25.0558
 15.4963  24.4535
 15.5193  24.4226
 15.5423  24.3686
 15.5653  24.3837
 15.5883  24.3523
 15.6113  24.3707
 15.6343  24.4075
 15.6572  24.3684
 15.6803  24.3862
 15.7033  24.3857
 15.7263  24.5043
 15.7492  24.4262
 15.7723  24.4801
 15.7953  24.4019
 15.8183  24.3195
 15.8413  24.3169
 15.8643  24.3584
 15.8873  24.4186
 15.9103  24.4792
 15.9332  24.4486
 15.9563  24.4023
 15.9793  24.5247
 16.0023  24.6179
 16.0253  24.554
 16.0482  24.5766
 16.0713  24.5913
 16.0943  24.5346
 16.1172  24.5992
 16.1403  24.6262
 16.1633  24.6539
 16.1863  24.6957
 16.2093  24.8832
 16.2323  25.1457
 16.2553  25.3691
 16.2783  25.3989
 16.3012  25.1697
 16.3243  24.9298
 16.3472  24.7614
 16.3703  24.7131
 16.3933  24.61
 16.4163  24.6538
 16.4393  24.6591
 16.4623  24.5463
 16.4853  24.541
 16.5083  24.5161
 16.5312  24.5055
 16.5543  24.5915
 16.5773  24.5423
 16.6002  24.4713
 16.6233  24.3131
 16.6463  24.2816
 16.6693  24.3916
 16.6923  24.4789
 16.7153  24.5229
 16.7383  24.4593
 16.7613  24.371
 16.7843  24.3462
 16.8073  24.3703
 16.8303  24.3198
 16.8533  24.309
 16.8763  24.3
 16.8992  24.2053
 16.9223  24.0993
 16.9453  24.0645
 16.9683  24.1325
 16.9913  24.2199
 17.0143  24.1983
 17.0373  24.2203
 17.0603  24.1687
 17.0832  24.117
 17.1063  24.0734
 17.1293  24.1414
 17.1522  24.1203
 17.1753  24.0237
 17.1983  24.0534
 17.2213  24.05
 17.2443  23.9952
 17.2673  23.9498
 17.2903  23.931
 17.3133  23.9408
 17.3362  24.0123
 17.3593  24.0079
 17.3823  23.8485
 17.4053  23.8627
 17.4283  23.8879
 17.4513  23.8857
 17.4743  23.8737
 17.4973  23.8102
 17.5203  23.787
 17.5433  23.7914
 17.5663  23.6976
 17.5893  23.6658
 17.6123  23.7525
 17.6352  23.7406
 17.6583  23.6056
 17.6813  23.5938
 17.7042  23.6577
 17.7273  23.6743
 17.7503  23.5927
 17.7733  23.6422
 17.7963  23.6815
 17.8193  23.5734
 17.8423  23.565
 17.8653  23.6215
 17.8882  23.7082
 17.9113  23.7168
 17.9343  23.7061
 17.9573  23.6811
 17.9803  23.6998
 18.0033  23.768
 18.0263  23.8612
 18.0493  24.2213
 18.0723  24.8359
 18.0953  25.3842
 18.1183  24.7577
 18.1413  24.0536
 18.1643  23.7223
 18.1872  23.6476
 18.2103  23.6152
 18.2333  23.4798
 18.2563  23.4287
 18.2793  23.488
 18.3023  23.4952
 18.3253  23.4253
 18.3483  23.468
 18.3712  23.513
 18.3943  23.4924
 18.4173  23.425
 18.4402  23.3985
 18.4633  23.4508
 18.4863  23.4601
 18.5093  23.439
 18.5323  23.4031
 18.5553  23.4132
 18.5783  23.4356
 18.6013  23.4929
 18.6242  23.5519
 18.6473  23.5349
 18.6703  23.4291
 18.6933  23.4195
 18.7163  23.4537
 18.7392  23.366
 18.7623  23.2778
 18.7853  23.2991
 18.8083  23.3829
 18.8313  23.4299
 18.8543  23.3464
 18.8773  23.3087
 18.9003  23.3762
 18.9232  23.4482
 18.9463  23.5029
 18.9693  23.4124
 18.9922  23.3473
 19.0153  23.3872
 19.0383  23.4614
 19.0613  23.4621
 19.0843  23.5125
 19.1073  23.3393
 19.1303  23.2945
 19.1533  23.3077
 19.1762  23.3262
 19.1993  23.3506
 19.2223  23.3896
 19.2453  23.5346
 19.2683  23.5717
 19.2913  23.5889
 19.3143  23.6639
 19.3373  23.6892
 19.3603  23.6113
 19.3833  23.5181
 19.4062  23.4891
 19.4293  23.5576
 19.4523  23.4451
 19.4752  23.409
 19.4983  23.4626
 19.5213  23.5148
 19.5443  23.5755
 19.5673  23.6108
 19.5903  23.6372
 19.6133  23.6172
 19.6363  23.894
 19.6593  24.1276
 19.6823  24.4267
 19.7053  24.5788
 19.7283  24.6063
 19.7513  24.4945
 19.7742  24.5063
 19.7973  25.4949
 19.8203  27.9407
 19.8433  30.2234
 19.8663  29.9804
 19.8893  26.9315
 19.9123  25.0568
 19.9353  24.4094
 19.9582  23.9781
 19.9813  23.703
 20.0043  23.6069
 20.0272  23.6025
 20.0503  23.674
 20.0733  23.6099
 20.0963  23.6545
 20.1193  23.7174
 20.1423  23.6916
 20.1653  23.7105
 20.1883  23.7119
 20.2112  23.6191
 20.2343  23.6494
 20.2573  23.6883
 20.2803  23.5949
 20.3033  23.4575
 20.3263  23.4733
 20.3493  23.5438
 20.3723  23.6085
 20.3953  23.5987
 20.4183  23.6173
 20.4413  23.4787
 20.4643  23.4749
 20.4873  23.4999
 20.5102  23.5763
 20.5333  23.5368
 20.5563  23.5091
 20.5792  23.4804
 20.6023  23.5701
 20.6253  23.6594
 20.6483  23.7214
 20.6713  23.6377
 20.6943  23.7237
 20.7173  23.9541
 20.7403  24.0698
 20.7632  24.1544
 20.7863  24.1279
 20.8093  24.031
 20.8323  23.8358
 20.8553  23.6893
 20.8783  23.6906
 20.9013  23.6806
 20.9243  23.6162
 20.9473  23.6522
 20.9703  23.6608
 20.9933  23.6998
 21.0163  23.7087
 21.0393  23.7774
 21.0622  23.7354
 21.0853  23.6872
 21.1083  23.6598
 21.1313  23.8045
 21.1543  23.7359
 21.1773  23.7384
 21.2003  23.7581
 21.2233  23.7292
 21.2462  23.7701
 21.2693  23.8326
 21.2923  23.7791
 21.3152  23.64
 21.3383  23.6518
 21.3613  23.6973
 21.3843  23.7478
 21.4073  23.7599
 21.4303  23.7168
 21.4533  23.6685
 21.4763  23.8047
 21.4992  23.8454
 21.5223  23.9014
 21.5453  23.9332
 21.5683  23.9143
 21.5913  23.9157
 21.6142  23.9189
 21.6373  23.9384
 21.6603  23.9557
 21.6833  23.9607
 21.7063  23.8963
 21.7293  23.9058
 21.7523  23.8993
 21.7753  23.9059
 21.7982  23.9183
 21.8213  24.0264
 21.8443  24.0125
 21.8672  23.9904
 21.8903  24.0278
 21.9133  23.9668
 21.9363  23.993
 21.9593  24.0257
 21.9823  24.0597
 22.0053  24.1603
 22.0283  24.2035
 22.0512  24.1438
 22.0743  24.1263
 22.0973  24.1442
 22.1203  24.1106
 22.1433  24.1775
 22.1663  24.1763
 22.1893  24.1343
 22.2123  24.0823
 22.2353  24.1501
 22.2583  24.2132
 22.2813  24.2368
 22.3043  24.3823
 22.3273  24.3567
 22.3502  24.3097
 22.3733  24.3078
 22.3963  24.346
 22.4193  24.3503
 22.4423  24.4345
 22.4653  24.4151
 22.4883  24.4787
 22.5113  24.5334
 22.5343  24.694
 22.5573  24.7299
 22.5803  24.6641
 22.6033  24.6455
 22.6263  24.7219
 22.6493  24.6716
 22.6723  24.7216
 22.6953  24.8421
 22.7183  24.8927
 22.7413  25.0283
 22.7643  25.1576
 22.7873  25.0657
 22.8103  25.2265
 22.8333  25.3404
 22.8563  25.3792
 22.8793  25.4132
 22.9022  25.5094
 22.9253  25.7234
 22.9483  25.8036
 22.9713  26.0334
 22.9943  26.2448