File: test-data-xrd/xrd-map-34-ID-E/Data_0038.chi
F:\20151113_APS_34IDE\\Brian\Particle1\OCV\Data_0038.tif
2-Theta Angle (Degrees)
Intensity
       2000
 0.01725  0.0000000E+00
 0.04025  0.0000000E+00
 0.06325  0.0000000E+00
 0.08625  0.0000000E+00
 0.10925  0.0000000E+00
 0.13225  0.0000000E+00
 0.15525  0.0000000E+00
 0.17825  0.0000000E+00
 0.20125  0.0000000E+00
 0.22425  0.0000000E+00
 0.24725  0.0000000E+00
 0.27025  0.0000000E+00
 0.29325  0.0000000E+00
 0.31625  0.0000000E+00
 0.33925  0.0000000E+00
 0.36225  0.0000000E+00
 0.38525  0.0000000E+00
 0.40825  0.0000000E+00
 0.43125  0.0000000E+00
 0.45425  0.0000000E+00
 0.47725  0.0000000E+00
 0.50025  0.0000000E+00
 0.52325  0.0000000E+00
 0.54625  0.0000000E+00
 0.56925  0.0000000E+00
 0.59225  0.0000000E+00
 0.61525  0.0000000E+00
 0.63825  0.0000000E+00
 0.66125  0.0000000E+00
 0.68425  0.0000000E+00
 0.70725  0.0000000E+00
 0.73025  0.0000000E+00
 0.75325  0.0000000E+00
 0.77625  0.0000000E+00
 0.79925  0.0000000E+00
 0.82225  0.0000000E+00
 0.84525  0.0000000E+00
 0.86825  0.0000000E+00
 0.89125  0.0000000E+00
 0.91425  0.0000000E+00
 0.93725  0.0000000E+00
 0.96025  0.0000000E+00
 0.98325  0.0000000E+00
 1.00625  0.0000000E+00
 1.02925  0.0000000E+00
 1.05225  0.0000000E+00
 1.07525  0.0000000E+00
 1.09825  0.0000000E+00
 1.12125  0.0000000E+00
 1.14425  0.0000000E+00
 1.16725  0.0000000E+00
 1.19025  0.0000000E+00
 1.21325  0.0000000E+00
 1.23625  0.0000000E+00
 1.25925  0.0000000E+00
 1.28225  0.0000000E+00
 1.30525  0.0000000E+00
 1.32825  0.0000000E+00
 1.35125  0.0000000E+00
 1.37425  0.0000000E+00
 1.39725  0.0000000E+00
 1.42025  0.0000000E+00
 1.44325  0.0000000E+00
 1.46625  0.0000000E+00
 1.48925  0.0000000E+00
 1.51225  0.0000000E+00
 1.53525  0.0000000E+00
 1.55825  0.0000000E+00
 1.58125  0.0000000E+00
 1.60425  0.0000000E+00
 1.62725  0.0000000E+00
 1.65025  0.0000000E+00
 1.67325  0.0000000E+00
 1.69625  0.0000000E+00
 1.71925  0.0000000E+00
 1.74225  0.0000000E+00
 1.76525  0.0000000E+00
 1.78825  0.0000000E+00
 1.81125  0.0000000E+00
 1.83425  0.0000000E+00
 1.85725  0.0000000E+00
 1.88025  0.0000000E+00
 1.90325  0.0000000E+00
 1.92625  0.0000000E+00
 1.94925  0.0000000E+00
 1.97225  0.0000000E+00
 1.99525  0.0000000E+00
 2.01825  0.0000000E+00
 2.04125  0.0000000E+00
 2.06425  0.0000000E+00
 2.08725  0.0000000E+00
 2.11025  0.0000000E+00
 2.13325  0.0000000E+00
 2.15625  0.0000000E+00
 2.17925  0.0000000E+00
 2.20225  0.0000000E+00
 2.22525  0.0000000E+00
 2.24825  0.0000000E+00
 2.27125  0.0000000E+00
 2.29425  0.0000000E+00
 2.31725  0.0000000E+00
 2.34025  0.0000000E+00
 2.36325  0.0000000E+00
 2.38625  0.0000000E+00
 2.40925  0.0000000E+00
 2.43225  0.0000000E+00
 2.45525  0.0000000E+00
 2.47825  0.0000000E+00
 2.50125  0.0000000E+00
 2.52425  0.0000000E+00
 2.54725  0.0000000E+00
 2.57025  0.0000000E+00
 2.59325  0.0000000E+00
 2.61625  0.0000000E+00
 2.63925  0.0000000E+00
 2.66225  0.0000000E+00
 2.68525  0.0000000E+00
 2.70825  0.0000000E+00
 2.73125  0.0000000E+00
 2.75425  0.0000000E+00
 2.77725  0.0000000E+00
 2.80025  0.0000000E+00
 2.82325  35.5089
 2.84625  35.0975
 2.86925  34.245
 2.89225  33.7385
 2.91525  34.7808
 2.93825  35.4782
 2.96125  35.1743
 2.98425  35.511
 3.00725  36.0514
 3.03025  36.1887
 3.05325  35.8091
 3.07625  34.9544
 3.09925  35.1797
 3.12225  35.3346
 3.14525  35.3909
 3.16825  35.2799
 3.19125  35.7053
 3.21425  36.1585
 3.23725  35.9428
 3.26025  35.6604
 3.28325  35.0408
 3.30625  34.3204
 3.32925  34.0733
 3.35225  33.9343
 3.37525  33.4407
 3.39825  33.7605
 3.42125  33.9387
 3.44425  33.5836
 3.46725  33.5843
 3.49025  34.1642
 3.51325  34.4531
 3.53625  34.3689
 3.55925  33.8505
 3.58225  33.6304
 3.60525  33.4504
 3.62825  33.4731
 3.65125  32.8591
 3.67425  32.5543
 3.69725  32.5184
 3.72025  32.4262
 3.74325  32.4232
 3.76625  32.855
 3.78925  32.9718
 3.81225  32.7994
 3.83525  32.6292
 3.85825  32.3893
 3.88125  32.5132
 3.90425  32.1074
 3.92725  32.0074
 3.95025  32.4023
 3.97325  32.497
 3.99625  32.6275
 4.01925  32.7178
 4.04225  32.3937
 4.06525  32.1905
 4.08825  32.3408
 4.11125  32.2626
 4.13425  32.1287
 4.15725  32.0679
 4.18025  31.9162
 4.20325  32.0933
 4.22625  32.1181
 4.24925  32.3055
 4.27225  32.4731
 4.29525  32.4893
 4.31825  32.3482
 4.34125  32.1249
 4.36425  32.0191
 4.38725  31.8426
 4.41025  31.9596
 4.43325  32.0368
 4.45625  32.2617
 4.47925  32.5297
 4.50225  32.6437
 4.52525  32.6423
 4.54825  32.6006
 4.57125  32.5904
 4.59425  32.6149
 4.61725  32.3726
 4.64025  32.5167
 4.66325  32.6067
 4.68625  32.5263
 4.70925  32.4287
 4.73225  32.2309
 4.75525  32.0102
 4.77825  32.1988
 4.80125  32.1658
 4.82425  32.3114
 4.84725  32.4884
 4.87025  32.5391
 4.89325  32.4691
 4.91625  32.5441
 4.93925  32.4751
 4.96225  32.6598
 4.98525  32.7607
 5.00825  32.7031
 5.03125  32.7813
 5.05425  32.9542
 5.07725  33.0645
 5.10025  33.1287
 5.12325  33.1719
 5.14625  33.2482
 5.16925  33.3109
 5.19225  33.3499
 5.21525  33.4743
 5.23825  33.6955
 5.26125  33.8735
 5.28425  33.8713
 5.30725  33.7995
 5.33025  33.8056
 5.35325  33.9983
 5.37625  34.3295
 5.39925  34.4104
 5.42225  34.275
 5.44525  34.2899
 5.46825  34.3909
 5.49125  34.399
 5.51425  34.3402
 5.53725  34.3148
 5.56025  34.672
 5.58325  35.0838
 5.60625  35.3172
 5.62925  35.3864
 5.65225  35.4176
 5.67525  35.3576
 5.69825  35.4897
 5.72125  35.738
 5.74425  35.726
 5.76725  35.9326
 5.79025  36.2743
 5.81325  36.4604
 5.83625  36.6763
 5.85925  37.1198
 5.88225  38.1266
 5.90525  40.5685
 5.92825  48.2311
 5.95125  62.02
 5.97425  77.2677
 5.99725  81.2287
 6.02025  63.4465
 6.04325  48.3327
 6.06625  41.0402
 6.08925  38.4644
 6.11225  37.7683
 6.13525  37.533
 6.15825  37.5637
 6.18125  37.6388
 6.20425  37.6358
 6.22725  37.5301
 6.25025  37.6312
 6.27325  37.7008
 6.29625  37.7767
 6.31925  37.7405
 6.34225  37.8491
 6.36525  38.1232
 6.38825  38.1696
 6.41125  38.1964
 6.43425  38.2527
 6.45725  38.4095
 6.48025  38.5577
 6.50325  38.7836
 6.52625  38.923
 6.54925  38.9846
 6.57225  39.14
 6.59525  39.3233
 6.61825  39.6103
 6.64125  39.8862
 6.66425  40.0371
 6.68725  40.116
 6.71025  40.3044
 6.73325  40.4342
 6.75625  40.5535
 6.77925  40.6613
 6.80225  40.8141
 6.82525  40.9795
 6.84825  41.2247
 6.87125  41.4843
 6.89425  41.5666
 6.91725  41.5731
 6.94025  41.8618
 6.96325  42.1735
 6.98625  42.2846
 7.00925  42.1701
 7.03225  42.214
 7.05525  42.3373
 7.07825  42.5025
 7.10125  42.7316
 7.12425  42.7978
 7.14725  42.7573
 7.17025  42.8758
 7.19325  43.2771
 7.21625  43.4495
 7.23925  43.3437
 7.26225  43.3125
 7.28525  43.2745
 7.30825  43.3784
 7.33125  43.5591
 7.35425  43.6976
 7.37725  43.7232
 7.40025  43.7812
 7.42325  43.839
 7.44625  43.8609
 7.46925  43.8414
 7.49225  43.9372
 7.51525  44.2162
 7.53825  44.2036
 7.56125  44.0499
 7.58425  44.0906
 7.60725  44.252
 7.63025  44.1879
 7.65325  44.12
 7.67625  44.0948
 7.69925  44.18
 7.72225  44.3644
 7.74525  44.2403
 7.76825  43.9657
 7.79125  43.9441
 7.81425  43.6843
 7.83725  43.7464
 7.86025  43.8093
 7.88325  43.6794
 7.90625  43.5368
 7.92925  43.5164
 7.95225  43.3811
 7.97525  43.148
 7.99825  43.2695
 8.02125  43.2023
 8.04425  43.151
 8.06725  42.8734
 8.09025  42.7325
 8.11325  42.5683
 8.13625  42.4131
 8.15925  42.2143
 8.18225  41.9714
 8.20525  41.734
 8.22825  41.5075
 8.25125  41.3307
 8.27425  41.0618
 8.29725  40.6919
 8.32025  40.2966
 8.34325  39.9551
 8.36625  39.8317
 8.38925  39.5841
 8.41225  39.2636
 8.43525  38.8111
 8.45825  38.4354
 8.48125  38.1922
 8.50425  37.8496
 8.52725  37.6133
 8.55025  37.3048
 8.57325  36.77
 8.59625  36.4113
 8.61925  36.0591
 8.64225  35.7011
 8.66525  35.1793
 8.68825  34.9933
 8.71125  34.8447
 8.73425  34.4902
 8.75725  33.9666
 8.78025  33.6786
 8.80325  33.5091
 8.82625  33.2938
 8.84925  32.9335
 8.87225  32.5477
 8.89525  32.0686
 8.91825  31.7345
 8.94125  31.4165
 8.96425  31.1216
 8.98725  30.9857
 9.01025  30.6302
 9.03325  30.413
 9.05625  30.2377
 9.07925  29.9931
 9.10225  29.78
 9.12525  29.6303
 9.14825  29.4284
 9.17125  29.2263
 9.19425  28.9318
 9.21725  28.5918
 9.24025  28.3093
 9.26325  28.0847
 9.28625  27.8706
 9.30925  27.847
 9.33225  27.7211
 9.35525  27.5058
 9.37825  27.3325
 9.40125  27.2051
 9.42425  27.0089
 9.44725  26.8207
 9.47025  26.675
 9.49325  26.5919
 9.51625  26.3995
 9.53925  26.2996
 9.56225  26.2485
 9.58525  26.0305
 9.60825  25.8945
 9.63125  25.8692
 9.65425  25.7359
 9.67725  25.633
 9.70025  25.4886
 9.72325  25.4324
 9.74625  25.3023
 9.76925  25.1727
 9.79225  25.0415
 9.81525  25.0195
 9.83825  24.9375
 9.86125  24.8311
 9.88425  24.6612
 9.90725  24.5987
 9.93025  24.689
 9.95325  24.6512
 9.97625  24.5233
 9.99925  24.493
 10.0222  24.4374
 10.0453  24.3967
 10.0683  24.3214
 10.0913  24.1883
 10.1143  24.0549
 10.1373  23.9868
 10.1603  23.9912
 10.1832  23.9194
 10.2063  23.8558
 10.2293  23.8273
 10.2523  23.8044
 10.2752  23.7621
 10.2982  23.8047
 10.3213  23.692
 10.3443  23.604
 10.3673  23.5894
 10.3902  23.6689
 10.4133  23.682
 10.4363  23.6546
 10.4593  23.5645
 10.4823  23.4181
 10.5053  23.413
 10.5283  23.3652
 10.5512  23.2504
 10.5742  23.1419
 10.5973  23.0761
 10.6203  23.132
 10.6433  23.2442
 10.6662  23.2673
 10.6893  23.1416
 10.7123  23.1476
 10.7353  23.1477
 10.7583  23.0605
 10.7813  23.0101
 10.8043  22.9508
 10.8272  22.9675
 10.8503  22.962
 10.8733  22.9691
 10.8963  22.955
 10.9192  22.9788
 10.9422  22.9062
 10.9653  22.8383
 10.9883  22.8202
 11.0113  22.7932
 11.0343  22.7282
 11.0573  22.6127
 11.0803  22.6353
 11.1033  22.7631
 11.1263  22.8345
 11.1493  22.727
 11.1723  22.6555
 11.1953  22.5958
 11.2182  22.5879
 11.2413  22.6603
 11.2643  22.6188
 11.2873  22.6292
 11.3102  22.6854
 11.3333  22.8107
 11.3563  22.8633
 11.3793  22.9494
 11.4023  23.1276
 11.4253  23.2399
 11.4483  23.2217
 11.4713  23.3008
 11.4942  23.5564
 11.5173  24.2861
 11.5403  26.5583
 11.5633  30.8426
 11.5862  35.01
 11.6093  33.7879
 11.6323  29.0296
 11.6553  25.6039
 11.6783  23.8201
 11.7013  23.2128
 11.7243  23.0891
 11.7473  22.9565
 11.7703  22.8834
 11.7933  22.9296
 11.8163  22.872
 11.8393  22.7364
 11.8622  22.6053
 11.8853  22.7003
 11.9083  22.8267
 11.9313  23.1218
 11.9543  23.8419
 11.9773  24.551
 12.0003  24.7951
 12.0233  24.323
 12.0463  23.8422
 12.0693  24.0761
 12.0923  24.9176
 12.1153  25.2124
 12.1382  24.6027
 12.1613  23.7285
 12.1843  23.1474
 12.2073  22.8416
 12.2302  22.6453
 12.2533  22.5946
 12.2763  22.5393
 12.2993  22.6158
 12.3223  22.6521
 12.3453  22.7049
 12.3683  22.74
 12.3913  22.6913
 12.4142  22.6369
 12.4373  22.6674
 12.4603  22.7421
 12.4833  22.8068
 12.5062  22.8498
 12.5292  22.8751
 12.5523  22.9221
 12.5753  22.8554
 12.5983  22.875
 12.6212  22.9107
 12.6443  22.9527
 12.6673  22.8884
 12.6903  22.9485
 12.7133  23.1178
 12.7363  23.1497
 12.7593  23.1758
 12.7822  23.1489
 12.8052  23.1992
 12.8283  23.3678
 12.8513  23.5
 12.8742  23.6746
 12.8972  23.8261
 12.9203  23.8269
 12.9433  23.8581
 12.9663  23.9849
 12.9893  24.1996
 13.0123  24.2285
 13.0353  24.3449
 13.0582  24.5136
 13.0813  24.7331
 13.1043  24.9434
 13.1273  25.1094
 13.1502  25.2556
 13.1732  25.461
 13.1963  25.6787
 13.2193  25.9731
 13.2423  26.4019
 13.2652  26.7652
 13.2883  27.0329
 13.3113  27.1345
 13.3343  27.3873
 13.3573  27.7725
 13.3803  27.9917
 13.4033  28.3136
 13.4262  28.6433
 13.4492  28.8119
 13.4723  28.9331
 13.4953  29.2286
 13.5183  29.4405
 13.5412  29.637
 13.5643  29.7308
 13.5873  29.8137
 13.6103  29.9121
 13.6333  29.9696
 13.6563  29.8739
 13.6793  29.9186
 13.7022  29.927
 13.7253  30.0254
 13.7483  30.1077
 13.7713  30.11
 13.7942  30.1736
 13.8172  30.4865
 13.8403  31.0179
 13.8633  32.086
 13.8863  35.8396
 13.9093  45.6981
 13.9323  60.0687
 13.9553  69.6971
 13.9783  66.4673
 14.0013  53.4176
 14.0243  39.4341
 14.0473  32.4892
 14.0703  30.1987
 14.0932  29.2179
 14.1163  28.581
 14.1393  28.0618
 14.1623  27.7199
 14.1852  27.4708
 14.2083  27.2552
 14.2313  26.9651
 14.2543  26.8371
 14.2773  26.6701
 14.3003  26.5807
 14.3233  26.6179
 14.3463  26.6789
 14.3692  26.715
 14.3923  26.3672
 14.4153  26.0639
 14.4383  25.9673
 14.4612  25.9018
 14.4843  25.9108
 14.5073  25.8551
 14.5303  25.8453
 14.5533  25.8101
 14.5763  25.6293
 14.5993  25.493
 14.6223  25.5759
 14.6453  25.5048
 14.6683  25.3329
 14.6913  25.3831
 14.7143  25.4476
 14.7372  25.3071
 14.7603  25.1949
 14.7833  25.1833
 14.8063  25.2151
 14.8293  25.0856
 14.8523  25.048
 14.8753  24.9342
 14.8983  24.9917
 14.9213  25.0008
 14.9443  24.9416
 14.9673  24.9885
 14.9903  24.9912
 15.0132  24.9965
 15.0363  25.0703
 15.0593  25.0989
 15.0823  25.1271
 15.1052  25.3344
 15.1283  25.7963
 15.1513  26.9579
 15.1743  28.4936
 15.1973  29.1948
 15.2203  28.2976
 15.2433  26.7204
 15.2663  25.5909
 15.2892  25.1026
 15.3123  25.0149
 15.3353  24.8979
 15.3583  24.8037
 15.3812  24.8495
 15.4043  24.8551
 15.4273  24.6985
 15.4503  24.6619
 15.4733  24.7106
 15.4963  24.7523
 15.5193  24.7434
 15.5423  24.6744
 15.5653  24.738
 15.5883  24.7314
 15.6113  24.6966
 15.6343  24.6251
 15.6572  24.5942
 15.6803  24.6487
 15.7033  24.7383
 15.7263  24.7034
 15.7492  24.6544
 15.7723  24.7719
 15.7953  24.766
 15.8183  24.8249
 15.8413  24.803
 15.8643  24.7074
 15.8873  24.7615
 15.9103  24.8071
 15.9332  24.786
 15.9563  24.7208
 15.9793  24.7887
 16.0023  24.8453
 16.0253  24.7447
 16.0482  24.7149
 16.0713  24.741
 16.0943  24.8491
 16.1172  24.9682
 16.1403  24.9155
 16.1633  24.9395
 16.1863  25.0843
 16.2093  25.4247
 16.2323  25.8464
 16.2553  26.2243
 16.2783  26.1828
 16.3012  25.5108
 16.3243  24.9962
 16.3472  24.7984
 16.3703  24.6793
 16.3933  24.6769
 16.4163  24.7061
 16.4393  24.753
 16.4623  24.8686
 16.4853  24.8123
 16.5083  24.7255
 16.5312  24.7103
 16.5543  24.8317
 16.5773  24.7633
 16.6002  24.6332
 16.6233  24.6498
 16.6463  24.7005
 16.6693  24.7053
 16.6923  24.6543
 16.7153  24.6114
 16.7383  24.6526
 16.7613  24.6513
 16.7843  24.612
 16.8073  24.4923
 16.8303  24.4059
 16.8533  24.4141
 16.8763  24.4586
 16.8992  24.4503
 16.9223  24.491
 16.9453  24.4928
 16.9683  24.3783
 16.9913  24.3258
 17.0143  24.3139
 17.0373  24.3538
 17.0603  24.2525
 17.0832  24.2114
 17.1063  24.2541
 17.1293  24.2662
 17.1522  24.2837
 17.1753  24.2416
 17.1983  24.2335
 17.2213  24.2584
 17.2443  24.1818
 17.2673  24.0716
 17.2903  24.1449
 17.3133  24.1653
 17.3362  24.25
 17.3593  24.287
 17.3823  24.1664
 17.4053  24.0857
 17.4283  24.0552
 17.4513  24.0466
 17.4743  24.0368
 17.4973  24.0421
 17.5203  24.0029
 17.5433  24.0478
 17.5663  24.01
 17.5893  24.0128
 17.6123  24.072
 17.6352  24.0336
 17.6583  23.9486
 17.6813  23.9836
 17.7042  24.0739
 17.7273  23.9971
 17.7503  23.99
 17.7733  24.0066
 17.7963  24.028
 17.8193  23.9523
 17.8423  23.9282
 17.8653  24.0046
 17.8882  24.1037
 17.9113  24.1091
 17.9343  24.1308
 17.9573  24.2244
 17.9803  24.3986
 18.0033  24.9469
 18.0263  25.6666
 18.0493  26.1751
 18.0723  26.8214
 18.0953  27.8806
 18.1183  28.1365
 18.1413  26.895
 18.1643  25.4527
 18.1872  24.5752
 18.2103  24.2798
 18.2333  24.0213
 18.2563  23.8819
 18.2793  23.8261
 18.3023  23.8344
 18.3253  23.8143
 18.3483  23.8212
 18.3712  23.767
 18.3943  23.7126
 18.4173  23.7206
 18.4402  23.7348
 18.4633  23.7591
 18.4863  23.7529
 18.5093  23.7533
 18.5323  23.6858
 18.5553  23.66
 18.5783  23.7556
 18.6013  23.8248
 18.6242  23.7394
 18.6473  23.6492
 18.6703  23.5939
 18.6933  23.6512
 18.7163  23.6566
 18.7392  23.6638
 18.7623  23.6725
 18.7853  23.5936
 18.8083  23.6085
 18.8313  23.6163
 18.8543  23.5942
 18.8773  23.552
 18.9003  23.6696
 18.9232  23.7646
 18.9463  23.8271
 18.9693  23.6545
 18.9922  23.5401
 19.0153  23.6472
 19.0383  23.6757
 19.0613  23.5811
 19.0843  23.5914
 19.1073  23.5594
 19.1303  23.5994
 19.1533  23.6262
 19.1762  23.5736
 19.1993  23.6085
 19.2223  23.5498
 19.2453  23.6118
 19.2683  23.7024
 19.2913  23.7283
 19.3143  23.7098
 19.3373  23.7697
 19.3603  23.699
 19.3833  23.7324
 19.4062  23.73
 19.4293  23.8179
 19.4523  23.9151
 19.4752  23.9415
 19.4983  23.7991
 19.5213  23.8476
 19.5443  23.93
 19.5673  24.0242
 19.5903  24.2032
 19.6133  24.3597
 19.6363  24.7108
 19.6593  25.5698
 19.6823  27.145
 19.7053  29.5272
 19.7283  30.199
 19.7513  28.8869
 19.7742  26.9173
 19.7973  26.3006
 19.8203  26.8617
 19.8433  27.8216
 19.8663  28.2104
 19.8893  27.2219
 19.9123  25.7528
 19.9353  24.7807
 19.9582  24.3502
 19.9813  24.1439
 20.0043  24.0849
 20.0272  24.0381
 20.0503  24.0634
 20.0733  24.0014
 20.0963  23.9879
 20.1193  23.9937
 20.1423  24.0075
 20.1653  24.0431
 20.1883  24.0075
 20.2112  23.8764
 20.2343  23.942
 20.2573  23.9203
 20.2803  23.9134
 20.3033  23.8982
 20.3263  23.9414
 20.3493  23.9947
 20.3723  23.9954
 20.3953  24.0091
 20.4183  23.9632
 20.4413  23.8882
 20.4643  23.8494
 20.4873  23.9314
 20.5102  23.9774
 20.5333  23.935
 20.5563  24.0021
 20.5792  23.9504
 20.6023  24.0422
 20.6253  24.163
 20.6483  24.2866
 20.6713  24.5088
 20.6943  25.111
 20.7173  26.5757
 20.7403  28.4313
 20.7632  29.1122
 20.7863  27.9686
 20.8093  26.2734
 20.8323  25.106
 20.8553  24.6815
 20.8783  24.4788
 20.9013  24.3639
 20.9243  24.3284
 20.9473  24.3025
 20.9703  24.2052
 20.9933  24.0987
 21.0163  24.0563
 21.0393  24.0878
 21.0622  24.1037
 21.0853  24.1215
 21.1083  24.1026
 21.1313  24.172
 21.1543  24.0844
 21.1773  24.0854
 21.2003  24.0649
 21.2233  24.05
 21.2462  24.0996
 21.2693  24.1261
 21.2923  24.0803
 21.3152  24.0671
 21.3383  24.0634
 21.3613  24.031
 21.3843  24.1083
 21.4073  24.1366
 21.4303  24.1123
 21.4533  24.0654
 21.4763  24.0549
 21.4992  24.1257
 21.5223  24.1891
 21.5453  24.2096
 21.5683  24.2302
 21.5913  24.2751
 21.6142  24.2885
 21.6373  24.255
 21.6603  24.2286
 21.6833  24.2892
 21.7063  24.2924
 21.7293  24.3377
 21.7523  24.3133
 21.7753  24.333
 21.7982  24.4184
 21.8213  24.4549
 21.8443  24.4068
 21.8672  24.3979
 21.8903  24.3796
 21.9133  24.3974
 21.9363  24.4435
 21.9593  24.3643
 21.9823  24.361
 22.0053  24.4171
 22.0283  24.4337
 22.0512  24.4414
 22.0743  24.4528
 22.0973  24.5089
 22.1203  24.5962
 22.1433  24.6035
 22.1663  24.5475
 22.1893  24.4942
 22.2123  24.5176
 22.2353  24.5526
 22.2583  24.6154
 22.2813  24.6948
 22.3043  24.802
 22.3273  24.7857
 22.3502  24.6756
 22.3733  24.7033
 22.3963  24.7445
 22.4193  24.7724
 22.4423  24.8051
 22.4653  24.7977
 22.4883  24.7979
 22.5113  24.915
 22.5343  24.9756
 22.5573  25.0177
 22.5803  25.0566
 22.6033  25.119
 22.6263  25.2183
 22.6493  25.1668
 22.6723  25.2323
 22.6953  25.3904
 22.7183  25.4737
 22.7413  25.4011
 22.7643  25.3526
 22.7873  25.3821
 22.8103  25.5121
 22.8333  25.6129
 22.8563  25.7298
 22.8793  25.7736
 22.9022  25.8766
 22.9253  25.9995
 22.9483  26.0611
 22.9713  26.2116
 22.9943  26.4128