File: test-data-xrd/xrd-map-34-ID-E/Data_0026.chi
F:\20151113_APS_34IDE\\Brian\Particle1\OCV\Data_0026.tif
2-Theta Angle (Degrees)
Intensity
       2000
 0.01725  0.0000000E+00
 0.04025  0.0000000E+00
 0.06325  0.0000000E+00
 0.08625  0.0000000E+00
 0.10925  0.0000000E+00
 0.13225  0.0000000E+00
 0.15525  0.0000000E+00
 0.17825  0.0000000E+00
 0.20125  0.0000000E+00
 0.22425  0.0000000E+00
 0.24725  0.0000000E+00
 0.27025  0.0000000E+00
 0.29325  0.0000000E+00
 0.31625  0.0000000E+00
 0.33925  0.0000000E+00
 0.36225  0.0000000E+00
 0.38525  0.0000000E+00
 0.40825  0.0000000E+00
 0.43125  0.0000000E+00
 0.45425  0.0000000E+00
 0.47725  0.0000000E+00
 0.50025  0.0000000E+00
 0.52325  0.0000000E+00
 0.54625  0.0000000E+00
 0.56925  0.0000000E+00
 0.59225  0.0000000E+00
 0.61525  0.0000000E+00
 0.63825  0.0000000E+00
 0.66125  0.0000000E+00
 0.68425  0.0000000E+00
 0.70725  0.0000000E+00
 0.73025  0.0000000E+00
 0.75325  0.0000000E+00
 0.77625  0.0000000E+00
 0.79925  0.0000000E+00
 0.82225  0.0000000E+00
 0.84525  0.0000000E+00
 0.86825  0.0000000E+00
 0.89125  0.0000000E+00
 0.91425  0.0000000E+00
 0.93725  0.0000000E+00
 0.96025  0.0000000E+00
 0.98325  0.0000000E+00
 1.00625  0.0000000E+00
 1.02925  0.0000000E+00
 1.05225  0.0000000E+00
 1.07525  0.0000000E+00
 1.09825  0.0000000E+00
 1.12125  0.0000000E+00
 1.14425  0.0000000E+00
 1.16725  0.0000000E+00
 1.19025  0.0000000E+00
 1.21325  0.0000000E+00
 1.23625  0.0000000E+00
 1.25925  0.0000000E+00
 1.28225  0.0000000E+00
 1.30525  0.0000000E+00
 1.32825  0.0000000E+00
 1.35125  0.0000000E+00
 1.37425  0.0000000E+00
 1.39725  0.0000000E+00
 1.42025  0.0000000E+00
 1.44325  0.0000000E+00
 1.46625  0.0000000E+00
 1.48925  0.0000000E+00
 1.51225  0.0000000E+00
 1.53525  0.0000000E+00
 1.55825  0.0000000E+00
 1.58125  0.0000000E+00
 1.60425  0.0000000E+00
 1.62725  0.0000000E+00
 1.65025  0.0000000E+00
 1.67325  0.0000000E+00
 1.69625  0.0000000E+00
 1.71925  0.0000000E+00
 1.74225  0.0000000E+00
 1.76525  0.0000000E+00
 1.78825  0.0000000E+00
 1.81125  0.0000000E+00
 1.83425  0.0000000E+00
 1.85725  0.0000000E+00
 1.88025  0.0000000E+00
 1.90325  0.0000000E+00
 1.92625  0.0000000E+00
 1.94925  0.0000000E+00
 1.97225  0.0000000E+00
 1.99525  0.0000000E+00
 2.01825  0.0000000E+00
 2.04125  0.0000000E+00
 2.06425  0.0000000E+00
 2.08725  0.0000000E+00
 2.11025  0.0000000E+00
 2.13325  0.0000000E+00
 2.15625  0.0000000E+00
 2.17925  0.0000000E+00
 2.20225  0.0000000E+00
 2.22525  0.0000000E+00
 2.24825  0.0000000E+00
 2.27125  0.0000000E+00
 2.29425  0.0000000E+00
 2.31725  0.0000000E+00
 2.34025  0.0000000E+00
 2.36325  0.0000000E+00
 2.38625  0.0000000E+00
 2.40925  0.0000000E+00
 2.43225  0.0000000E+00
 2.45525  0.0000000E+00
 2.47825  0.0000000E+00
 2.50125  0.0000000E+00
 2.52425  0.0000000E+00
 2.54725  0.0000000E+00
 2.57025  0.0000000E+00
 2.59325  0.0000000E+00
 2.61625  0.0000000E+00
 2.63925  0.0000000E+00
 2.66225  0.0000000E+00
 2.68525  0.0000000E+00
 2.70825  0.0000000E+00
 2.73125  0.0000000E+00
 2.75425  0.0000000E+00
 2.77725  0.0000000E+00
 2.80025  0.0000000E+00
 2.82325  35.7046
 2.84625  33.9033
 2.86925  34.9507
 2.89225  36.0796
 2.91525  36.715
 2.93825  36.9262
 2.96125  36.7477
 2.98425  35.9257
 3.00725  36.2835
 3.03025  36.6306
 3.05325  36.3202
 3.07625  36.061
 3.09925  36.3796
 3.12225  35.9903
 3.14525  35.4409
 3.16825  35.3544
 3.19125  35.4354
 3.21425  35.5474
 3.23725  34.8823
 3.26025  34.496
 3.28325  34.7144
 3.30625  34.2414
 3.32925  34.3599
 3.35225  34.6809
 3.37525  34.8181
 3.39825  34.9933
 3.42125  34.7962
 3.44425  34.4399
 3.46725  34.2047
 3.49025  34.0817
 3.51325  33.6418
 3.53625  33.4966
 3.55925  33.8004
 3.58225  33.9036
 3.60525  33.8307
 3.62825  33.6899
 3.65125  33.2822
 3.67425  32.9006
 3.69725  32.9183
 3.72025  32.9178
 3.74325  33.0709
 3.76625  33.2491
 3.78925  33.4783
 3.81225  33.3798
 3.83525  33.2225
 3.85825  33
 3.88125  32.6826
 3.90425  32.5308
 3.92725  32.1824
 3.95025  32.1918
 3.97325  32.5895
 3.99625  32.8174
 4.01925  32.5932
 4.04225  32.2049
 4.06525  32.1974
 4.08825  32.4196
 4.11125  32.7029
 4.13425  32.5989
 4.15725  32.3776
 4.18025  32.1827
 4.20325  32.3218
 4.22625  32.4897
 4.24925  32.3051
 4.27225  32.1852
 4.29525  32.2123
 4.31825  32.3008
 4.34125  32.4871
 4.36425  32.623
 4.38725  32.7179
 4.41025  32.6325
 4.43325  32.7749
 4.45625  32.8742
 4.47925  32.8342
 4.50225  32.5647
 4.52525  32.6143
 4.54825  32.6776
 4.57125  32.2702
 4.59425  32.3556
 4.61725  32.6052
 4.64025  32.8124
 4.66325  32.6737
 4.68625  32.7416
 4.70925  32.7674
 4.73225  32.6056
 4.75525  32.5902
 4.77825  32.7262
 4.80125  32.8739
 4.82425  32.729
 4.84725  32.6821
 4.87025  32.8347
 4.89325  32.9111
 4.91625  32.8136
 4.93925  32.8537
 4.96225  32.8495
 4.98525  33.0032
 5.00825  32.9591
 5.03125  33.0669
 5.05425  33.1407
 5.07725  33.2392
 5.10025  33.4531
 5.12325  33.428
 5.14625  33.4482
 5.16925  33.6117
 5.19225  33.787
 5.21525  33.7698
 5.23825  34.039
 5.26125  34.2675
 5.28425  34.2542
 5.30725  34.2004
 5.33025  34.1416
 5.35325  34.1966
 5.37625  34.2611
 5.39925  34.424
 5.42225  34.5295
 5.44525  34.5964
 5.46825  34.5616
 5.49125  34.5157
 5.51425  34.8085
 5.53725  35.0154
 5.56025  35.2668
 5.58325  35.3965
 5.60625  35.4123
 5.62925  35.475
 5.65225  35.4368
 5.67525  35.7751
 5.69825  35.9429
 5.72125  35.8115
 5.74425  35.7827
 5.76725  35.7687
 5.79025  35.8769
 5.81325  36.1672
 5.83625  36.4522
 5.85925  36.7724
 5.88225  37.3766
 5.90525  38.5992
 5.92825  41.9471
 5.95125  52.081
 5.97425  63.2006
 5.99725  65.9812
 6.02025  55.1472
 6.04325  46.315
 6.06625  40.604
 6.08925  38.3711
 6.11225  37.8265
 6.13525  37.5861
 6.15825  37.4381
 6.18125  37.3962
 6.20425  37.1898
 6.22725  37.245
 6.25025  37.4383
 6.27325  37.6203
 6.29625  37.7688
 6.31925  37.7521
 6.34225  37.9835
 6.36525  38.3069
 6.38825  38.4997
 6.41125  38.5833
 6.43425  38.5591
 6.45725  38.4792
 6.48025  38.6232
 6.50325  39.0867
 6.52625  39.3912
 6.54925  39.635
 6.57225  39.8321
 6.59525  39.8922
 6.61825  40.1577
 6.64125  40.3211
 6.66425  40.3986
 6.68725  40.2713
 6.71025  40.1179
 6.73325  40.3355
 6.75625  40.636
 6.77925  40.8027
 6.80225  40.9285
 6.82525  41.2345
 6.84825  41.5535
 6.87125  41.8798
 6.89425  42.2868
 6.91725  42.4133
 6.94025  42.3133
 6.96325  42.1393
 6.98625  42.2776
 7.00925  42.3301
 7.03225  42.3714
 7.05525  42.4646
 7.07825  42.627
 7.10125  43.0972
 7.12425  43.4645
 7.14725  43.4657
 7.17025  43.3692
 7.19325  43.4004
 7.21625  43.5267
 7.23925  43.587
 7.26225  43.7534
 7.28525  44.0177
 7.30825  44.0007
 7.33125  43.8944
 7.35425  43.9943
 7.37725  44.173
 7.40025  44.3408
 7.42325  44.3384
 7.44625  44.3807
 7.46925  44.5033
 7.49225  44.5296
 7.51525  44.4603
 7.53825  44.4339
 7.56125  44.3823
 7.58425  44.5263
 7.60725  44.579
 7.63025  44.6123
 7.65325  44.635
 7.67625  44.4853
 7.69925  44.5457
 7.72225  44.7168
 7.74525  45.4799
 7.76825  46.2202
 7.79125  45.6537
 7.81425  44.8403
 7.83725  44.647
 7.86025  44.4419
 7.88325  44.2437
 7.90625  44.1845
 7.92925  44.2733
 7.95225  44.2607
 7.97525  44.0007
 7.99825  43.937
 8.02125  43.8032
 8.04425  43.5975
 8.06725  43.4122
 8.09025  43.3581
 8.11325  43.214
 8.13625  43.0971
 8.15925  42.7187
 8.18225  42.2968
 8.20525  42.111
 8.22825  41.9589
 8.25125  41.894
 8.27425  41.6134
 8.29725  41.2003
 8.32025  40.9039
 8.34325  40.604
 8.36625  40.4004
 8.38925  40.2248
 8.41225  39.9584
 8.43525  39.4523
 8.45825  38.9813
 8.48125  38.7951
 8.50425  38.5769
 8.52725  38.3459
 8.55025  38.1911
 8.57325  37.712
 8.59625  37.0631
 8.61925  36.7135
 8.64225  36.5815
 8.66525  36.2472
 8.68825  35.7978
 8.71125  35.4174
 8.73425  35.1388
 8.75725  34.8098
 8.78025  34.5264
 8.80325  34.2486
 8.82625  33.8085
 8.84925  33.4043
 8.87225  33.0321
 8.89525  32.7119
 8.91825  32.3928
 8.94125  32.1926
 8.96425  31.8456
 8.98725  31.4992
 9.01025  31.1649
 9.03325  30.9193
 9.05625  30.704
 9.07925  30.5057
 9.10225  30.2214
 9.12525  30.0394
 9.14825  29.8454
 9.17125  29.6614
 9.19425  29.4651
 9.21725  29.2048
 9.24025  28.9869
 9.26325  28.8455
 9.28625  28.565
 9.30925  28.3102
 9.33225  28.0895
 9.35525  27.8705
 9.37825  27.7974
 9.40125  27.7052
 9.42425  27.6673
 9.44725  27.5383
 9.47025  27.295
 9.49325  27.0743
 9.51625  26.8015
 9.53925  26.6016
 9.56225  26.4345
 9.58525  26.3544
 9.60825  26.4048
 9.63125  26.3773
 9.65425  26.1725
 9.67725  25.9579
 9.70025  25.9598
 9.72325  26.1164
 9.74625  26.034
 9.76925  25.7107
 9.79225  25.5347
 9.81525  25.5458
 9.83825  25.5154
 9.86125  25.3759
 9.88425  25.24
 9.90725  25.0915
 9.93025  24.9349
 9.95325  24.9447
 9.97625  24.91
 9.99925  24.8671
 10.0222  24.8247
 10.0453  24.7472
 10.0683  24.7
 10.0913  24.6714
 10.1143  24.5722
 10.1373  24.4478
 10.1603  24.3727
 10.1832  24.4111
 10.2063  24.4451
 10.2293  24.4784
 10.2523  24.4326
 10.2752  24.2474
 10.2982  24.1993
 10.3213  24.1219
 10.3443  24.0992
 10.3673  23.9789
 10.3902  23.9584
 10.4133  23.931
 10.4363  23.8629
 10.4593  23.8424
 10.4823  23.7428
 10.5053  23.6976
 10.5283  23.5725
 10.5512  23.5712
 10.5742  23.6884
 10.5973  23.6535
 10.6203  23.5898
 10.6433  23.5363
 10.6662  23.4721
 10.6893  23.4233
 10.7123  23.345
 10.7353  23.2686
 10.7583  23.2586
 10.7813  23.2677
 10.8043  23.253
 10.8272  23.3138
 10.8503  23.2471
 10.8733  23.2852
 10.8963  23.2262
 10.9192  23.2559
 10.9422  23.2425
 10.9653  23.1678
 10.9883  23.1279
 11.0113  23.0959
 11.0343  23.0259
 11.0573  22.9895
 11.0803  22.9663
 11.1033  22.9946
 11.1263  23.0232
 11.1493  23.0183
 11.1723  22.9917
 11.1953  22.9763
 11.2182  23.0157
 11.2413  22.9991
 11.2643  22.9608
 11.2873  22.9001
 11.3102  22.9514
 11.3333  23.0319
 11.3563  22.9941
 11.3793  23.195
 11.4023  23.4752
 11.4253  23.5144
 11.4483  23.4101
 11.4713  23.3236
 11.4942  23.3756
 11.5173  23.6217
 11.5403  24.7469
 11.5633  27.713
 11.5862  31.2253
 11.6093  33.0665
 11.6323  29.651
 11.6553  26.3701
 11.6783  24.315
 11.7013  23.4255
 11.7243  23.1899
 11.7473  23.1866
 11.7703  23.1027
 11.7933  23.006
 11.8163  23.0139
 11.8393  22.9494
 11.8622  22.8675
 11.8853  22.9476
 11.9083  23.0528
 11.9313  23.2583
 11.9543  23.7471
 11.9773  24.4578
 12.0003  25.1016
 12.0233  24.6491
 12.0463  24.3869
 12.0693  24.6346
 12.0923  25.5592
 12.1153  25.6264
 12.1382  24.8559
 12.1613  23.8847
 12.1843  23.27
 12.2073  22.9864
 12.2302  22.969
 12.2533  22.9861
 12.2763  22.9453
 12.2993  22.9505
 12.3223  22.9416
 12.3453  22.9259
 12.3683  22.9644
 12.3913  23.0592
 12.4142  23.0085
 12.4373  23.0439
 12.4603  23.0558
 12.4833  23.0792
 12.5062  22.9832
 12.5292  23.01
 12.5523  23.1341
 12.5753  23.1435
 12.5983  23.1901
 12.6212  23.2296
 12.6443  23.2256
 12.6673  23.1775
 12.6903  23.2363
 12.7133  23.3948
 12.7363  23.4858
 12.7593  23.4451
 12.7822  23.5082
 12.8052  23.5381
 12.8283  23.6024
 12.8513  23.6689
 12.8742  23.6878
 12.8972  23.7056
 12.9203  23.89
 12.9433  24.1796
 12.9663  24.2783
 12.9893  24.3162
 13.0123  24.4054
 13.0353  24.5828
 13.0582  24.7937
 13.0813  24.9232
 13.1043  25.1222
 13.1273  25.3041
 13.1502  25.5939
 13.1732  25.8122
 13.1963  26.0855
 13.2193  26.3234
 13.2423  26.5274
 13.2652  26.751
 13.2883  27.0945
 13.3113  27.3921
 13.3343  27.6536
 13.3573  27.9595
 13.3803  28.2929
 13.4033  28.5399
 13.4262  28.7575
 13.4492  29.0077
 13.4723  29.1953
 13.4953  29.4804
 13.5183  29.7868
 13.5412  29.9152
 13.5643  30.0316
 13.5873  30.1399
 13.6103  30.1423
 13.6333  30.0992
 13.6563  30.1114
 13.6793  30.0957
 13.7022  30.0255
 13.7253  30.0417
 13.7483  30.0424
 13.7713  29.8842
 13.7942  29.7467
 13.8172  29.7073
 13.8403  29.6776
 13.8633  29.9668
 13.8863  30.7312
 13.9093  32.8531
 13.9323  36.6472
 13.9553  39.5585
 13.9783  38.1639
 14.0013  34.1184
 14.0243  30.7729
 14.0473  29.2201
 14.0703  28.6341
 14.0932  28.2532
 14.1163  27.8836
 14.1393  27.6497
 14.1623  27.4708
 14.1852  27.2477
 14.2083  27.0871
 14.2313  27.0041
 14.2543  26.9234
 14.2773  26.839
 14.3003  26.7492
 14.3233  26.6156
 14.3463  26.5152
 14.3692  26.4737
 14.3923  26.4753
 14.4153  26.4699
 14.4383  26.441
 14.4612  26.3727
 14.4843  26.2196
 14.5073  26.1469
 14.5303  26.0458
 14.5533  26.0551
 14.5763  26.113
 14.5993  26.0982
 14.6223  25.8917
 14.6453  25.6953
 14.6683  25.6234
 14.6913  25.6175
 14.7143  25.5695
 14.7372  25.5485
 14.7603  25.4922
 14.7833  25.5925
 14.8063  25.5689
 14.8293  25.3759
 14.8523  25.3587
 14.8753  25.3169
 14.8983  25.4135
 14.9213  25.4145
 14.9443  25.4279
 14.9673  25.4276
 14.9903  25.3156
 15.0132  25.5755
 15.0363  25.4384
 15.0593  25.3276
 15.0823  25.3377
 15.1052  25.378
 15.1283  25.5809
 15.1513  26.1347
 15.1743  26.9923
 15.1973  27.366
 15.2203  27.0272
 15.2433  26.1127
 15.2663  25.3946
 15.2892  25.2295
 15.3123  25.1143
 15.3353  25.0751
 15.3583  25.0372
 15.3812  24.9819
 15.4043  25.0039
 15.4273  25.2186
 15.4503  25.0923
 15.4733  25.0111
 15.4963  25.0215
 15.5193  24.9786
 15.5423  24.9995
 15.5653  25.0508
 15.5883  25.0009
 15.6113  24.906
 15.6343  24.8896
 15.6572  24.9434
 15.6803  25.0403
 15.7033  25.0018
 15.7263  24.9857
 15.7492  24.9023
 15.7723  25.0032
 15.7953  25.0853
 15.8183  25.1192
 15.8413  24.99
 15.8643  24.9914
 15.8873  24.9415
 15.9103  24.9808
 15.9332  25.0166
 15.9563  24.9701
 15.9793  24.9216
 16.0023  24.904
 16.0253  24.9491
 16.0482  24.9497
 16.0713  24.9447
 16.0943  24.9906
 16.1172  25.1098
 16.1403  25.1554
 16.1633  25.2149
 16.1863  25.4732
 16.2093  25.905
 16.2323  26.268
 16.2553  26.5547
 16.2783  26.4083
 16.3012  25.8077
 16.3243  25.4169
 16.3472  25.2553
 16.3703  25.1169
 16.3933  25.0803
 16.4163  25.1287
 16.4393  25.0399
 16.4623  24.9788
 16.4853  25.0362
 16.5083  25.0852
 16.5312  25.0368
 16.5543  25.0049
 16.5773  24.9679
 16.6002  25.0335
 16.6233  25.0081
 16.6463  24.8857
 16.6693  24.8815
 16.6923  24.8832
 16.7153  24.8938
 16.7383  24.9393
 16.7613  24.9202
 16.7843  24.8331
 16.8073  24.8341
 16.8303  24.7871
 16.8533  24.7185
 16.8763  24.6637
 16.8992  24.6855
 16.9223  24.6625
 16.9453  24.6465
 16.9683  24.7466
 16.9913  24.664
 17.0143  24.6234
 17.0373  24.5534
 17.0603  24.5847
 17.0832  24.6496
 17.1063  24.6749
 17.1293  24.7442
 17.1522  24.8007
 17.1753  24.8268
 17.1983  24.7843
 17.2213  24.6154
 17.2443  24.4993
 17.2673  24.3799
 17.2903  24.4096
 17.3133  24.4262
 17.3362  24.4005
 17.3593  24.2844
 17.3823  24.2673
 17.4053  24.2411
 17.4283  24.3784
 17.4513  24.4618
 17.4743  24.3782
 17.4973  24.3351
 17.5203  24.2883
 17.5433  24.3259
 17.5663  24.275
 17.5893  24.2185
 17.6123  24.1632
 17.6352  24.1736
 17.6583  24.1812
 17.6813  24.1847
 17.7042  24.2898
 17.7273  24.336
 17.7503  24.2662
 17.7733  24.2448
 17.7963  24.2736
 17.8193  24.2144
 17.8423  24.1906
 17.8653  24.204
 17.8882  24.2745
 17.9113  24.316
 17.9343  24.4015
 17.9573  24.4502
 17.9803  24.584
 18.0033  24.9166
 18.0263  25.4586
 18.0493  26.1465
 18.0723  27.0258
 18.0953  27.8138
 18.1183  27.7249
 18.1413  26.5516
 18.1643  25.4198
 18.1872  24.7356
 18.2103  24.4142
 18.2333  24.2272
 18.2563  24.1405
 18.2793  24.1288
 18.3023  24.0588
 18.3253  24.0396
 18.3483  24.079
 18.3712  24.0263
 18.3943  24.135
 18.4173  24.3139
 18.4402  24.1803
 18.4633  23.9941
 18.4863  23.9819
 18.5093  23.9657
 18.5323  23.9885
 18.5553  24.0207
 18.5783  24.0579
 18.6013  24.0588
 18.6242  23.9934
 18.6473  23.9203
 18.6703  23.9039
 18.6933  23.9996
 18.7163  23.9488
 18.7392  23.9264
 18.7623  23.8944
 18.7853  23.8589
 18.8083  23.7994
 18.8313  23.8415
 18.8543  23.8509
 18.8773  23.8321
 18.9003  23.8831
 18.9232  23.9546
 18.9463  24.0049
 18.9693  24.03
 18.9922  23.9525
 19.0153  23.913
 19.0383  23.9069
 19.0613  23.8711
 19.0843  23.9304
 19.1073  23.864
 19.1303  23.8712
 19.1533  23.9676
 19.1762  23.9683
 19.1993  24.0049
 19.2223  24.0409
 19.2453  23.9826
 19.2683  24.0464
 19.2913  24.01
 19.3143  24.077
 19.3373  24.0689
 19.3603  24.0619
 19.3833  23.969
 19.4062  24.0206
 19.4293  24.0893
 19.4523  24.1267
 19.4752  24.1691
 19.4983  24.1355
 19.5213  24.1101
 19.5443  24.197
 19.5673  24.2715
 19.5903  24.3406
 19.6133  24.4472
 19.6363  24.6802
 19.6593  25.1867
 19.6823  26.0338
 19.7053  27.0886
 19.7283  27.3173
 19.7513  26.7166
 19.7742  25.9347
 19.7973  25.911
 19.8203  27.0776
 19.8433  28.8146
 19.8663  29.1032
 19.8893  27.6492
 19.9123  26.0132
 19.9353  25.0355
 19.9582  24.5744
 19.9813  24.3829
 20.0043  24.3527
 20.0272  24.2873
 20.0503  24.2243
 20.0733  24.1305
 20.0963  24.139
 20.1193  24.102
 20.1423  24.0429
 20.1653  24.1801
 20.1883  24.2424
 20.2112  24.1648
 20.2343  24.228
 20.2573  24.189
 20.2803  24.1529
 20.3033  24.2111
 20.3263  24.122
 20.3493  24.0443
 20.3723  24.1112
 20.3953  24.1215
 20.4183  24.1326
 20.4413  24.1772
 20.4643  24.1046
 20.4873  24.1318
 20.5102  24.1318
 20.5333  24.0265
 20.5563  24.1129
 20.5792  24.2567
 20.6023  24.3863
 20.6253  24.4142
 20.6483  24.3907
 20.6713  24.4155
 20.6943  24.6903
 20.7173  25.2276
 20.7403  25.8164
 20.7632  26.4573
 20.7863  26.5226
 20.8093  26.1187
 20.8323  25.4106
 20.8553  24.7722
 20.8783  24.5432
 20.9013  24.4069
 20.9243  24.4453
 20.9473  24.4135
 20.9703  24.3647
 20.9933  24.342
 21.0163  24.2903
 21.0393  24.2383
 21.0622  24.2328
 21.0853  24.3491
 21.1083  24.3184
 21.1313  24.2951
 21.1543  24.2354
 21.1773  24.3082
 21.2003  24.3051
 21.2233  24.2626
 21.2462  24.2711
 21.2693  24.3182
 21.2923  24.3463
 21.3152  24.2826
 21.3383  24.2773
 21.3613  24.3724
 21.3843  24.4107
 21.4073  24.3358
 21.4303  24.3071
 21.4533  24.3158
 21.4763  24.3962
 21.4992  24.3642
 21.5223  24.366
 21.5453  24.3489
 21.5683  24.4398
 21.5913  24.4511
 21.6142  24.4643
 21.6373  24.5004
 21.6603  24.5861
 21.6833  24.5712
 21.7063  24.5012
 21.7293  24.4312
 21.7523  24.3389
 21.7753  24.3147
 21.7982  24.4094
 21.8213  24.4442
 21.8443  24.411
 21.8672  24.5308
 21.8903  24.5307
 21.9133  24.5394
 21.9363  24.5106
 21.9593  24.5535
 21.9823  24.575
 22.0053  24.6003
 22.0283  24.6196
 22.0512  24.6358
 22.0743  24.635
 22.0973  24.5952
 22.1203  24.7224
 22.1433  24.7374
 22.1663  24.7586
 22.1893  24.707
 22.2123  24.6927
 22.2353  24.7462
 22.2583  24.7676
 22.2813  24.7493
 22.3043  24.7879
 22.3273  24.8116
 22.3502  24.9333
 22.3733  24.9516
 22.3963  24.934
 22.4193  24.9183
 22.4423  24.9778
 22.4653  25.0313
 22.4883  25.0793
 22.5113  25.1464
 22.5343  25.1273
 22.5573  25.157
 22.5803  25.1762
 22.6033  25.2827
 22.6263  25.368
 22.6493  25.4331
 22.6723  25.4171
 22.6953  25.4392
 22.7183  25.4412
 22.7413  25.4908
 22.7643  25.507
 22.7873  25.5455
 22.8103  25.7561
 22.8333  25.9932
 22.8563  25.9913
 22.8793  25.9806
 22.9022  26.0703
 22.9253  26.2525
 22.9483  26.3154
 22.9713  26.5302
 22.9943  26.7586