File: test-data-xrd/xrd-map-34-ID-E/Data_0135.chi
F:\20151113_APS_34IDE\\Brian\Particle1\OCV\Data_0135.tif
2-Theta Angle (Degrees)
Intensity
       2000
 0.01725  0.0000000E+00
 0.04025  0.0000000E+00
 0.06325  0.0000000E+00
 0.08625  0.0000000E+00
 0.10925  0.0000000E+00
 0.13225  0.0000000E+00
 0.15525  0.0000000E+00
 0.17825  0.0000000E+00
 0.20125  0.0000000E+00
 0.22425  0.0000000E+00
 0.24725  0.0000000E+00
 0.27025  0.0000000E+00
 0.29325  0.0000000E+00
 0.31625  0.0000000E+00
 0.33925  0.0000000E+00
 0.36225  0.0000000E+00
 0.38525  0.0000000E+00
 0.40825  0.0000000E+00
 0.43125  0.0000000E+00
 0.45425  0.0000000E+00
 0.47725  0.0000000E+00
 0.50025  0.0000000E+00
 0.52325  0.0000000E+00
 0.54625  0.0000000E+00
 0.56925  0.0000000E+00
 0.59225  0.0000000E+00
 0.61525  0.0000000E+00
 0.63825  0.0000000E+00
 0.66125  0.0000000E+00
 0.68425  0.0000000E+00
 0.70725  0.0000000E+00
 0.73025  0.0000000E+00
 0.75325  0.0000000E+00
 0.77625  0.0000000E+00
 0.79925  0.0000000E+00
 0.82225  0.0000000E+00
 0.84525  0.0000000E+00
 0.86825  0.0000000E+00
 0.89125  0.0000000E+00
 0.91425  0.0000000E+00
 0.93725  0.0000000E+00
 0.96025  0.0000000E+00
 0.98325  0.0000000E+00
 1.00625  0.0000000E+00
 1.02925  0.0000000E+00
 1.05225  0.0000000E+00
 1.07525  0.0000000E+00
 1.09825  0.0000000E+00
 1.12125  0.0000000E+00
 1.14425  0.0000000E+00
 1.16725  0.0000000E+00
 1.19025  0.0000000E+00
 1.21325  0.0000000E+00
 1.23625  0.0000000E+00
 1.25925  0.0000000E+00
 1.28225  0.0000000E+00
 1.30525  0.0000000E+00
 1.32825  0.0000000E+00
 1.35125  0.0000000E+00
 1.37425  0.0000000E+00
 1.39725  0.0000000E+00
 1.42025  0.0000000E+00
 1.44325  0.0000000E+00
 1.46625  0.0000000E+00
 1.48925  0.0000000E+00
 1.51225  0.0000000E+00
 1.53525  0.0000000E+00
 1.55825  0.0000000E+00
 1.58125  0.0000000E+00
 1.60425  0.0000000E+00
 1.62725  0.0000000E+00
 1.65025  0.0000000E+00
 1.67325  0.0000000E+00
 1.69625  0.0000000E+00
 1.71925  0.0000000E+00
 1.74225  0.0000000E+00
 1.76525  0.0000000E+00
 1.78825  0.0000000E+00
 1.81125  0.0000000E+00
 1.83425  0.0000000E+00
 1.85725  0.0000000E+00
 1.88025  0.0000000E+00
 1.90325  0.0000000E+00
 1.92625  0.0000000E+00
 1.94925  0.0000000E+00
 1.97225  0.0000000E+00
 1.99525  0.0000000E+00
 2.01825  0.0000000E+00
 2.04125  0.0000000E+00
 2.06425  0.0000000E+00
 2.08725  0.0000000E+00
 2.11025  0.0000000E+00
 2.13325  0.0000000E+00
 2.15625  0.0000000E+00
 2.17925  0.0000000E+00
 2.20225  0.0000000E+00
 2.22525  0.0000000E+00
 2.24825  0.0000000E+00
 2.27125  0.0000000E+00
 2.29425  0.0000000E+00
 2.31725  0.0000000E+00
 2.34025  0.0000000E+00
 2.36325  0.0000000E+00
 2.38625  0.0000000E+00
 2.40925  0.0000000E+00
 2.43225  0.0000000E+00
 2.45525  0.0000000E+00
 2.47825  0.0000000E+00
 2.50125  0.0000000E+00
 2.52425  0.0000000E+00
 2.54725  0.0000000E+00
 2.57025  0.0000000E+00
 2.59325  0.0000000E+00
 2.61625  0.0000000E+00
 2.63925  0.0000000E+00
 2.66225  0.0000000E+00
 2.68525  0.0000000E+00
 2.70825  0.0000000E+00
 2.73125  0.0000000E+00
 2.75425  0.0000000E+00
 2.77725  0.0000000E+00
 2.80025  0.0000000E+00
 2.82325  33.2963
 2.84625  36.0625
 2.86925  36.2002
 2.89225  37.1157
 2.91525  37.2972
 2.93825  36.9894
 2.96125  36.3507
 2.98425  35.598
 3.00725  35.4641
 3.03025  35.5695
 3.05325  35.7009
 3.07625  35.3561
 3.09925  35.6635
 3.12225  35.3273
 3.14525  34.9095
 3.16825  35.3598
 3.19125  35.0578
 3.21425  35.1397
 3.23725  34.9848
 3.26025  35.1223
 3.28325  35.1533
 3.30625  35.7989
 3.32925  35.8868
 3.35225  35.2635
 3.37525  35.3264
 3.39825  34.6398
 3.42125  34.5142
 3.44425  34.8511
 3.46725  34.3909
 3.49025  33.9501
 3.51325  33.7119
 3.53625  33.835
 3.55925  33.6222
 3.58225  33.5367
 3.60525  33.391
 3.62825  33.2968
 3.65125  33.2243
 3.67425  33.0021
 3.69725  32.8238
 3.72025  32.8093
 3.74325  33.2424
 3.76625  33.3168
 3.78925  33.0616
 3.81225  32.7827
 3.83525  32.5477
 3.85825  32.3997
 3.88125  32.5296
 3.90425  32.6062
 3.92725  32.7781
 3.95025  32.8055
 3.97325  32.5081
 3.99625  32.6672
 4.01925  32.659
 4.04225  32.6531
 4.06525  32.361
 4.08825  32.1091
 4.11125  32.0805
 4.13425  32.2114
 4.15725  32.3788
 4.18025  32.4569
 4.20325  32.3911
 4.22625  32.2467
 4.24925  32.1593
 4.27225  32.618
 4.29525  32.7974
 4.31825  32.4666
 4.34125  32.2128
 4.36425  32.2191
 4.38725  32.4947
 4.41025  32.5684
 4.43325  32.4887
 4.45625  32.3951
 4.47925  32.4281
 4.50225  32.362
 4.52525  32.2979
 4.54825  32.3997
 4.57125  32.5106
 4.59425  32.6082
 4.61725  32.5885
 4.64025  32.696
 4.66325  32.6481
 4.68625  32.467
 4.70925  32.2899
 4.73225  32.0245
 4.75525  31.9529
 4.77825  32.436
 4.80125  32.6127
 4.82425  32.5771
 4.84725  32.6046
 4.87025  32.8104
 4.89325  32.7957
 4.91625  32.7997
 4.93925  32.7955
 4.96225  32.8082
 4.98525  32.9914
 5.00825  33.2123
 5.03125  33.3476
 5.05425  33.4301
 5.07725  33.2517
 5.10025  33.3717
 5.12325  33.4759
 5.14625  33.5654
 5.16925  33.7137
 5.19225  33.7117
 5.21525  33.9275
 5.23825  34.0407
 5.26125  34.1032
 5.28425  34.1606
 5.30725  34.061
 5.33025  33.9682
 5.35325  33.9954
 5.37625  34.1715
 5.39925  34.4257
 5.42225  34.3969
 5.44525  34.4013
 5.46825  34.6516
 5.49125  34.6336
 5.51425  34.6273
 5.53725  34.9026
 5.56025  35.0515
 5.58325  34.9191
 5.60625  34.8947
 5.62925  34.9795
 5.65225  34.7957
 5.67525  35.0308
 5.69825  35.0947
 5.72125  35.1394
 5.74425  35.1806
 5.76725  35.3695
 5.79025  35.4442
 5.81325  35.3681
 5.83625  35.6207
 5.85925  35.6264
 5.88225  35.6448
 5.90525  35.9171
 5.92825  36.1947
 5.95125  37.2097
 5.97425  38.2976
 5.99725  38.6192
 6.02025  37.9994
 6.04325  36.9934
 6.06625  36.347
 6.08925  36.3069
 6.11225  36.3473
 6.13525  36.2691
 6.15825  36.4149
 6.18125  36.6429
 6.20425  36.814
 6.22725  37.1459
 6.25025  37.2331
 6.27325  37.3223
 6.29625  37.3664
 6.31925  37.4099
 6.34225  37.5812
 6.36525  37.8034
 6.38825  38.089
 6.41125  38.2458
 6.43425  38.5407
 6.45725  38.7121
 6.48025  38.7617
 6.50325  39.0076
 6.52625  39.2897
 6.54925  39.5122
 6.57225  39.5519
 6.59525  39.6676
 6.61825  39.8688
 6.64125  39.9533
 6.66425  40.1017
 6.68725  40.2502
 6.71025  40.3114
 6.73325  40.3386
 6.75625  40.6233
 6.77925  40.8477
 6.80225  40.8217
 6.82525  41.2433
 6.84825  41.5846
 6.87125  41.9079
 6.89425  42.0069
 6.91725  42.0562
 6.94025  41.9974
 6.96325  42.1317
 6.98625  42.024
 7.00925  42.0774
 7.03225  42.3388
 7.05525  42.5534
 7.07825  42.7518
 7.10125  42.8702
 7.12425  42.9575
 7.14725  42.9966
 7.17025  42.9347
 7.19325  42.959
 7.21625  43.1387
 7.23925  43.4592
 7.26225  43.618
 7.28525  43.4658
 7.30825  43.5271
 7.33125  43.6871
 7.35425  43.6723
 7.37725  43.8417
 7.40025  44.04
 7.42325  43.9211
 7.44625  43.8824
 7.46925  44.1036
 7.49225  44.3067
 7.51525  44.3451
 7.53825  44.3673
 7.56125  44.4003
 7.58425  44.365
 7.60725  44.2151
 7.63025  44.188
 7.65325  44.2339
 7.67625  44.049
 7.69925  44.0102
 7.72225  44.1467
 7.74525  44.1616
 7.76825  44.2718
 7.79125  44.2867
 7.81425  44.0349
 7.83725  43.8967
 7.86025  43.8821
 7.88325  43.7772
 7.90625  43.715
 7.92925  43.6009
 7.95225  43.5623
 7.97525  43.3735
 7.99825  43.3483
 8.02125  43.2182
 8.04425  43.1807
 8.06725  43.0117
 8.09025  42.8481
 8.11325  42.746
 8.13625  42.6102
 8.15925  42.4449
 8.18225  42.2306
 8.20525  41.7188
 8.22825  41.3221
 8.25125  41.1365
 8.27425  40.99
 8.29725  40.8204
 8.32025  40.4769
 8.34325  40.2051
 8.36625  39.7884
 8.38925  39.4055
 8.41225  39.0343
 8.43525  38.7034
 8.45825  38.4052
 8.48125  38.1921
 8.50425  38.0459
 8.52725  37.7249
 8.55025  37.3964
 8.57325  36.8997
 8.59625  36.3902
 8.61925  35.9436
 8.64225  35.6481
 8.66525  35.1228
 8.68825  34.771
 8.71125  34.5225
 8.73425  34.1445
 8.75725  33.8256
 8.78025  33.5045
 8.80325  33.2245
 8.82625  33.0507
 8.84925  32.7645
 8.87225  32.4219
 8.89525  32.018
 8.91825  31.8694
 8.94125  31.6082
 8.96425  31.1642
 8.98725  30.7554
 9.01025  30.4777
 9.03325  30.2195
 9.05625  30.0008
 9.07925  29.7348
 9.10225  29.4442
 9.12525  29.187
 9.14825  29.0369
 9.17125  28.8666
 9.19425  28.7573
 9.21725  28.438
 9.24025  28.0627
 9.26325  27.8818
 9.28625  27.6591
 9.30925  27.4279
 9.33225  27.2741
 9.35525  27.1837
 9.37825  27.1277
 9.40125  27.0933
 9.42425  26.8614
 9.44725  26.5788
 9.47025  26.4434
 9.49325  26.3649
 9.51625  26.2316
 9.53925  26.0061
 9.56225  25.7452
 9.58525  25.6233
 9.60825  25.6753
 9.63125  25.5885
 9.65425  25.3809
 9.67725  25.2381
 9.70025  25.063
 9.72325  24.9948
 9.74625  24.9648
 9.76925  24.8912
 9.79225  24.7948
 9.81525  24.7731
 9.83825  24.6866
 9.86125  24.4835
 9.88425  24.4311
 9.90725  24.3541
 9.93025  24.2865
 9.95325  24.2345
 9.97625  24.2204
 9.99925  24.2714
 10.0222  24.327
 10.0453  24.1278
 10.0683  24.1153
 10.0913  23.9084
 10.1143  23.8139
 10.1373  23.7912
 10.1603  23.8469
 10.1832  23.7669
 10.2063  23.5638
 10.2293  23.5183
 10.2523  23.4735
 10.2752  23.3893
 10.2982  23.3515
 10.3213  23.3137
 10.3443  23.2671
 10.3673  23.192
 10.3902  23.2165
 10.4133  23.1599
 10.4363  23.0629
 10.4593  23.0427
 10.4823  23.0709
 10.5053  23.0947
 10.5283  22.92
 10.5512  22.8208
 10.5742  22.7812
 10.5973  22.6723
 10.6203  22.657
 10.6433  22.8277
 10.6662  22.9019
 10.6893  22.8408
 10.7123  22.7059
 10.7353  22.6903
 10.7583  22.6579
 10.7813  22.6547
 10.8043  22.5886
 10.8272  22.5972
 10.8503  22.6362
 10.8733  22.6001
 10.8963  22.5283
 10.9192  22.5578
 10.9422  22.6543
 10.9653  22.6446
 10.9883  22.4412
 11.0113  22.28
 11.0343  22.2287
 11.0573  22.1916
 11.0803  22.256
 11.1033  22.2596
 11.1263  22.3067
 11.1493  22.2656
 11.1723  22.3073
 11.1953  22.3016
 11.2182  22.3122
 11.2413  22.2072
 11.2643  22.1347
 11.2873  22.0757
 11.3102  22.1033
 11.3333  22.0441
 11.3563  22.0705
 11.3793  22.1896
 11.4023  22.371
 11.4253  22.465
 11.4483  22.4901
 11.4713  22.4425
 11.4942  22.3289
 11.5173  22.405
 11.5403  22.8703
 11.5633  23.3895
 11.5862  23.8287
 11.6093  23.708
 11.6323  23.151
 11.6553  22.5478
 11.6783  22.2894
 11.7013  22.1819
 11.7243  22.1057
 11.7473  22.1443
 11.7703  22.1294
 11.7933  22.1577
 11.8163  22.2364
 11.8393  22.3465
 11.8622  22.3193
 11.8853  22.2993
 11.9083  22.3195
 11.9313  22.4091
 11.9543  22.5334
 11.9773  22.6019
 12.0003  22.5314
 12.0233  22.4743
 12.0463  22.506
 12.0693  22.6533
 12.0923  22.7712
 12.1153  22.7483
 12.1382  22.5932
 12.1613  22.4401
 12.1843  22.35
 12.2073  22.3394
 12.2302  22.2819
 12.2533  22.2287
 12.2763  22.1521
 12.2993  22.1431
 12.3223  22.1988
 12.3453  22.1884
 12.3683  22.3032
 12.3913  22.3963
 12.4142  22.3832
 12.4373  22.3492
 12.4603  22.3913
 12.4833  22.3476
 12.5062  22.3243
 12.5292  22.3803
 12.5523  22.4315
 12.5753  22.444
 12.5983  22.4679
 12.6212  22.5436
 12.6443  22.5844
 12.6673  22.6349
 12.6903  22.7098
 12.7133  22.8062
 12.7363  22.7822
 12.7593  22.7991
 12.7822  22.8474
 12.8052  22.8887
 12.8283  23.0804
 12.8513  23.1623
 12.8742  23.1491
 12.8972  23.1734
 12.9203  23.2363
 12.9433  23.3351
 12.9663  23.4606
 12.9893  23.5759
 13.0123  23.7969
 13.0353  23.8399
 13.0582  24.0781
 13.0813  24.2811
 13.1043  24.4527
 13.1273  24.6515
 13.1502  24.8951
 13.1732  25.2057
 13.1963  25.4456
 13.2193  25.7901
 13.2423  26.1638
 13.2652  26.2483
 13.2883  26.4627
 13.3113  26.7425
 13.3343  27.0752
 13.3573  27.4375
 13.3803  27.7373
 13.4033  27.9952
 13.4262  28.1103
 13.4492  28.3709
 13.4723  28.6464
 13.4953  28.904
 13.5183  29.1731
 13.5412  29.3396
 13.5643  29.3865
 13.5873  29.4675
 13.6103  29.473
 13.6333  29.4069
 13.6563  29.4015
 13.6793  29.5066
 13.7022  29.5552
 13.7253  29.4676
 13.7483  29.3616
 13.7713  29.2558
 13.7942  29.0878
 13.8172  28.8735
 13.8403  28.7522
 13.8633  28.7145
 13.8863  28.5767
 13.9093  28.8435
 13.9323  29.2054
 13.9553  29.4195
 13.9783  29.1213
 14.0013  28.3794
 14.0243  27.7445
 14.0473  27.3973
 14.0703  27.2797
 14.0932  27.0442
 14.1163  26.9573
 14.1393  26.8817
 14.1623  26.7269
 14.1852  26.5187
 14.2083  26.3819
 14.2313  26.2082
 14.2543  26.1839
 14.2773  26.1878
 14.3003  26.1222
 14.3233  26.0185
 14.3463  25.9754
 14.3692  26.0395
 14.3923  25.9373
 14.4153  25.646
 14.4383  25.557
 14.4612  25.5927
 14.4843  25.5496
 14.5073  25.4554
 14.5303  25.4325
 14.5533  25.3714
 14.5763  25.3786
 14.5993  25.3017
 14.6223  25.2372
 14.6453  25.101
 14.6683  24.8735
 14.6913  24.7959
 14.7143  24.8929
 14.7372  24.9296
 14.7603  24.9134
 14.7833  24.8211
 14.8063  24.8609
 14.8293  24.8541
 14.8523  24.8118
 14.8753  24.6341
 14.8983  24.6264
 14.9213  24.6731
 14.9443  24.7018
 14.9673  24.7226
 14.9903  24.6768
 15.0132  24.5976
 15.0363  24.5551
 15.0593  24.4945
 15.0823  24.5212
 15.1052  24.4332
 15.1283  24.3399
 15.1513  24.474
 15.1743  24.6876
 15.1973  24.7203
 15.2203  24.6878
 15.2433  24.54
 15.2663  24.4403
 15.2892  24.462
 15.3123  24.5474
 15.3353  24.5303
 15.3583  24.5617
 15.3812  24.4197
 15.4043  24.2854
 15.4273  24.2862
 15.4503  24.2925
 15.4733  24.2959
 15.4963  24.3828
 15.5193  24.3644
 15.5423  24.2048
 15.5653  24.1761
 15.5883  24.3048
 15.6113  24.2809
 15.6343  24.1432
 15.6572  24.1183
 15.6803  24.2022
 15.7033  24.2966
 15.7263  24.3615
 15.7492  24.2925
 15.7723  24.3185
 15.7953  24.3569
 15.8183  24.4069
 15.8413  24.341
 15.8643  24.2345
 15.8873  24.2335
 15.9103  24.3837
 15.9332  24.3667
 15.9563  24.3278
 15.9793  24.4108
 16.0023  24.4462
 16.0253  24.4438
 16.0482  24.4852
 16.0713  24.4633
 16.0943  24.4725
 16.1172  24.5521
 16.1403  24.6418
 16.1633  24.6637
 16.1863  24.9692
 16.2093  25.668
 16.2323  26.9484
 16.2553  27.9546
 16.2783  27.2865
 16.3012  25.6459
 16.3243  24.7777
 16.3472  24.6037
 16.3703  24.5647
 16.3933  24.5912
 16.4163  24.5601
 16.4393  24.4759
 16.4623  24.5145
 16.4853  24.5448
 16.5083  24.6169
 16.5312  24.5531
 16.5543  24.5093
 16.5773  24.4525
 16.6002  24.5013
 16.6233  24.5539
 16.6463  24.6038
 16.6693  24.5893
 16.6923  24.5378
 16.7153  24.4377
 16.7383  24.3652
 16.7613  24.3272
 16.7843  24.2739
 16.8073  24.1985
 16.8303  24.1117
 16.8533  24.0741
 16.8763  24.1398
 16.8992  24.1602
 16.9223  24.2173
 16.9453  24.1759
 16.9683  24.146
 16.9913  24.0692
 17.0143  24.1291
 17.0373  24.1218
 17.0603  24.0183
 17.0832  23.9504
 17.1063  23.9328
 17.1293  23.9221
 17.1522  23.8885
 17.1753  23.8952
 17.1983  24.0205
 17.2213  24.0467
 17.2443  23.9436
 17.2673  23.6712
 17.2903  23.6613
 17.3133  23.8307
 17.3362  23.8748
 17.3593  23.78
 17.3823  23.7199
 17.4053  23.7207
 17.4283  23.7265
 17.4513  23.677
 17.4743  23.5911
 17.4973  23.6486
 17.5203  23.7257
 17.5433  23.8114
 17.5663  23.7443
 17.5893  23.5605
 17.6123  23.416
 17.6352  23.482
 17.6583  23.4873
 17.6813  23.5783
 17.7042  23.5941
 17.7273  23.4963
 17.7503  23.429
 17.7733  23.5553
 17.7963  23.6484
 17.8193  23.5307
 17.8423  23.45
 17.8653  23.4619
 17.8882  23.4431
 17.9113  23.4982
 17.9343  23.4452
 17.9573  23.3876
 17.9803  23.443
 18.0033  23.5178
 18.0263  23.5444
 18.0493  23.6034
 18.0723  23.734
 18.0953  23.8172
 18.1183  23.7981
 18.1413  23.6709
 18.1643  23.5261
 18.1872  23.4339
 18.2103  23.3929
 18.2333  23.3743
 18.2563  23.3263
 18.2793  23.3492
 18.3023  23.4015
 18.3253  23.2927
 18.3483  23.3649
 18.3712  23.4071
 18.3943  23.4041
 18.4173  23.3966
 18.4402  23.3605
 18.4633  23.3108
 18.4863  23.3545
 18.5093  23.3642
 18.5323  23.3458
 18.5553  23.3334
 18.5783  23.3536
 18.6013  23.2929
 18.6242  23.1743
 18.6473  23.157
 18.6703  23.1283
 18.6933  23.1851
 18.7163  23.1591
 18.7392  23.1841
 18.7623  23.1079
 18.7853  23.1918
 18.8083  23.2127
 18.8313  23.2107
 18.8543  23.178
 18.8773  23.1369
 18.9003  23.245
 18.9232  23.2996
 18.9463  23.3315
 18.9693  23.3036
 18.9922  23.2084
 19.0153  23.1966
 19.0383  23.2321
 19.0613  23.2021
 19.0843  23.1933
 19.1073  23.169
 19.1303  23.2488
 19.1533  23.3061
 19.1762  23.1611
 19.1993  23.1526
 19.2223  23.1973
 19.2453  23.1975
 19.2683  23.1868
 19.2913  23.1831
 19.3143  23.2511
 19.3373  23.2682
 19.3603  23.2274
 19.3833  23.2761
 19.4062  23.3516
 19.4293  23.3296
 19.4523  23.3223
 19.4752  23.4056
 19.4983  23.3628
 19.5213  23.3383
 19.5443  23.3894
 19.5673  23.416
 19.5903  23.4878
 19.6133  23.4177
 19.6363  23.442
 19.6593  23.5013
 19.6823  23.6587
 19.7053  23.8282
 19.7283  23.8477
 19.7513  23.7741
 19.7742  23.683
 19.7973  23.6879
 19.8203  23.9232
 19.8433  24.2977
 19.8663  24.2936
 19.8893  24.1252
 19.9123  23.9273
 19.9353  23.5595
 19.9582  23.3601
 19.9813  23.3832
 20.0043  23.3925
 20.0272  23.3689
 20.0503  23.4942
 20.0733  23.5039
 20.0963  23.4425
 20.1193  23.4807
 20.1423  23.4402
 20.1653  23.3781
 20.1883  23.3687
 20.2112  23.4038
 20.2343  23.4203
 20.2573  23.381
 20.2803  23.381
 20.3033  23.3589
 20.3263  23.306
 20.3493  23.376
 20.3723  23.3042
 20.3953  23.3077
 20.4183  23.4585
 20.4413  23.4834
 20.4643  23.3804
 20.4873  23.286
 20.5102  23.3629
 20.5333  23.3476
 20.5563  23.3919
 20.5792  23.744
 20.6023  23.5126
 20.6253  23.4445
 20.6483  23.4382
 20.6713  23.4373
 20.6943  23.6159
 20.7173  23.8433
 20.7403  23.9559
 20.7632  24.0064
 20.7863  23.9154
 20.8093  23.7489
 20.8323  23.6184
 20.8553  23.5118
 20.8783  23.5303
 20.9013  23.591
 20.9243  23.596
 20.9473  23.5826
 20.9703  23.4518
 20.9933  23.4437
 21.0163  23.4514
 21.0393  23.4802
 21.0622  23.5091
 21.0853  23.5171
 21.1083  23.5122
 21.1313  23.6471
 21.1543  23.6267
 21.1773  23.6079
 21.2003  23.6709
 21.2233  23.6738
 21.2462  23.6126
 21.2693  23.5883
 21.2923  23.6434
 21.3152  23.6975
 21.3383  23.7566
 21.3613  23.7347
 21.3843  23.7192
 21.4073  23.6599
 21.4303  23.641
 21.4533  23.6478
 21.4763  23.6514
 21.4992  23.6874
 21.5223  23.6638
 21.5453  23.5904
 21.5683  23.6187
 21.5913  23.7474
 21.6142  23.7882
 21.6373  23.8025
 21.6603  23.8584
 21.6833  23.7984
 21.7063  23.7466
 21.7293  23.8309
 21.7523  23.8749
 21.7753  23.8212
 21.7982  23.8862
 21.8213  23.9075
 21.8443  23.886
 21.8672  23.9155
 21.8903  23.8982
 21.9133  23.8146
 21.9363  23.7594
 21.9593  23.8468
 21.9823  23.8941
 22.0053  23.9309
 22.0283  23.9829
 22.0512  24.0019
 22.0743  23.9567
 22.0973  23.9895
 22.1203  24.0596
 22.1433  24.0959
 22.1663  24.0969
 22.1893  24.0029
 22.2123  24.0315
 22.2353  24.1021
 22.2583  24.205
 22.2813  24.2788
 22.3043  24.3124
 22.3273  24.199
 22.3502  24.19
 22.3733  24.2448
 22.3963  24.1147
 22.4193  24.1489
 22.4423  24.2681
 22.4653  24.3338
 22.4883  24.3647
 22.5113  24.408
 22.5343  24.4062
 22.5573  24.4298
 22.5803  24.4643
 22.6033  24.5994
 22.6263  24.7278
 22.6493  24.6578
 22.6723  24.6807
 22.6953  24.8339
 22.7183  24.8536
 22.7413  24.8365
 22.7643  24.909
 22.7873  24.9253
 22.8103  25.0137
 22.8333  25.148
 22.8563  25.1792
 22.8793  25.2286
 22.9022  25.324
 22.9253  25.5165
 22.9483  25.5884
 22.9713  25.7407
 22.9943  25.871