File: test-data-xrd/xrd-map-34-ID-E/Data_0042.chi
F:\20151113_APS_34IDE\\Brian\Particle1\OCV\Data_0042.tif
2-Theta Angle (Degrees)
Intensity
       2000
 0.01725  0.0000000E+00
 0.04025  0.0000000E+00
 0.06325  0.0000000E+00
 0.08625  0.0000000E+00
 0.10925  0.0000000E+00
 0.13225  0.0000000E+00
 0.15525  0.0000000E+00
 0.17825  0.0000000E+00
 0.20125  0.0000000E+00
 0.22425  0.0000000E+00
 0.24725  0.0000000E+00
 0.27025  0.0000000E+00
 0.29325  0.0000000E+00
 0.31625  0.0000000E+00
 0.33925  0.0000000E+00
 0.36225  0.0000000E+00
 0.38525  0.0000000E+00
 0.40825  0.0000000E+00
 0.43125  0.0000000E+00
 0.45425  0.0000000E+00
 0.47725  0.0000000E+00
 0.50025  0.0000000E+00
 0.52325  0.0000000E+00
 0.54625  0.0000000E+00
 0.56925  0.0000000E+00
 0.59225  0.0000000E+00
 0.61525  0.0000000E+00
 0.63825  0.0000000E+00
 0.66125  0.0000000E+00
 0.68425  0.0000000E+00
 0.70725  0.0000000E+00
 0.73025  0.0000000E+00
 0.75325  0.0000000E+00
 0.77625  0.0000000E+00
 0.79925  0.0000000E+00
 0.82225  0.0000000E+00
 0.84525  0.0000000E+00
 0.86825  0.0000000E+00
 0.89125  0.0000000E+00
 0.91425  0.0000000E+00
 0.93725  0.0000000E+00
 0.96025  0.0000000E+00
 0.98325  0.0000000E+00
 1.00625  0.0000000E+00
 1.02925  0.0000000E+00
 1.05225  0.0000000E+00
 1.07525  0.0000000E+00
 1.09825  0.0000000E+00
 1.12125  0.0000000E+00
 1.14425  0.0000000E+00
 1.16725  0.0000000E+00
 1.19025  0.0000000E+00
 1.21325  0.0000000E+00
 1.23625  0.0000000E+00
 1.25925  0.0000000E+00
 1.28225  0.0000000E+00
 1.30525  0.0000000E+00
 1.32825  0.0000000E+00
 1.35125  0.0000000E+00
 1.37425  0.0000000E+00
 1.39725  0.0000000E+00
 1.42025  0.0000000E+00
 1.44325  0.0000000E+00
 1.46625  0.0000000E+00
 1.48925  0.0000000E+00
 1.51225  0.0000000E+00
 1.53525  0.0000000E+00
 1.55825  0.0000000E+00
 1.58125  0.0000000E+00
 1.60425  0.0000000E+00
 1.62725  0.0000000E+00
 1.65025  0.0000000E+00
 1.67325  0.0000000E+00
 1.69625  0.0000000E+00
 1.71925  0.0000000E+00
 1.74225  0.0000000E+00
 1.76525  0.0000000E+00
 1.78825  0.0000000E+00
 1.81125  0.0000000E+00
 1.83425  0.0000000E+00
 1.85725  0.0000000E+00
 1.88025  0.0000000E+00
 1.90325  0.0000000E+00
 1.92625  0.0000000E+00
 1.94925  0.0000000E+00
 1.97225  0.0000000E+00
 1.99525  0.0000000E+00
 2.01825  0.0000000E+00
 2.04125  0.0000000E+00
 2.06425  0.0000000E+00
 2.08725  0.0000000E+00
 2.11025  0.0000000E+00
 2.13325  0.0000000E+00
 2.15625  0.0000000E+00
 2.17925  0.0000000E+00
 2.20225  0.0000000E+00
 2.22525  0.0000000E+00
 2.24825  0.0000000E+00
 2.27125  0.0000000E+00
 2.29425  0.0000000E+00
 2.31725  0.0000000E+00
 2.34025  0.0000000E+00
 2.36325  0.0000000E+00
 2.38625  0.0000000E+00
 2.40925  0.0000000E+00
 2.43225  0.0000000E+00
 2.45525  0.0000000E+00
 2.47825  0.0000000E+00
 2.50125  0.0000000E+00
 2.52425  0.0000000E+00
 2.54725  0.0000000E+00
 2.57025  0.0000000E+00
 2.59325  0.0000000E+00
 2.61625  0.0000000E+00
 2.63925  0.0000000E+00
 2.66225  0.0000000E+00
 2.68525  0.0000000E+00
 2.70825  0.0000000E+00
 2.73125  0.0000000E+00
 2.75425  0.0000000E+00
 2.77725  0.0000000E+00
 2.80025  0.0000000E+00
 2.82325  34.5121
 2.84625  33.4208
 2.86925  34.2198
 2.89225  34.7241
 2.91525  35.1597
 2.93825  35.2956
 2.96125  35.3221
 2.98425  35.9894
 3.00725  35.8194
 3.03025  35.2123
 3.05325  34.5137
 3.07625  34.6717
 3.09925  35.396
 3.12225  36.2804
 3.14525  36.0035
 3.16825  35.4901
 3.19125  35.5171
 3.21425  35.2745
 3.23725  35.5105
 3.26025  35.1409
 3.28325  34.4789
 3.30625  34.5793
 3.32925  34.9761
 3.35225  34.8579
 3.37525  34.2774
 3.39825  33.4804
 3.42125  33.069
 3.44425  33.5341
 3.46725  33.7841
 3.49025  33.6508
 3.51325  33.5389
 3.53625  33.6197
 3.55925  33.7348
 3.58225  33.7102
 3.60525  33.5318
 3.62825  33.2361
 3.65125  33.3781
 3.67425  33.245
 3.69725  32.7659
 3.72025  32.6603
 3.74325  33.0135
 3.76625  33.1743
 3.78925  32.8899
 3.81225  32.4981
 3.83525  32.6051
 3.85825  32.6678
 3.88125  32.8513
 3.90425  32.5356
 3.92725  32.517
 3.95025  32.5873
 3.97325  32.5554
 3.99625  32.8501
 4.01925  32.5624
 4.04225  32.1279
 4.06525  32.0797
 4.08825  32.1997
 4.11125  32.3917
 4.13425  32.6228
 4.15725  32.7446
 4.18025  32.4025
 4.20325  32.3183
 4.22625  32.3218
 4.24925  32.0986
 4.27225  32.1517
 4.29525  32.2659
 4.31825  32.3956
 4.34125  32.6912
 4.36425  32.7377
 4.38725  32.5787
 4.41025  32.2068
 4.43325  32.2084
 4.45625  32.2728
 4.47925  32.308
 4.50225  32.4284
 4.52525  32.53
 4.54825  32.5585
 4.57125  32.4396
 4.59425  32.5302
 4.61725  32.4952
 4.64025  32.7544
 4.66325  33.0095
 4.68625  32.9438
 4.70925  32.8272
 4.73225  32.7099
 4.75525  32.6616
 4.77825  32.6334
 4.80125  32.5582
 4.82425  32.5927
 4.84725  32.6889
 4.87025  32.7544
 4.89325  32.6287
 4.91625  32.8206
 4.93925  33.1162
 4.96225  33.2109
 4.98525  33.0621
 5.00825  33.0009
 5.03125  33.1231
 5.05425  33.2155
 5.07725  33.2679
 5.10025  33.3485
 5.12325  33.1584
 5.14625  33.2295
 5.16925  33.6191
 5.19225  33.7742
 5.21525  33.8906
 5.23825  33.9067
 5.26125  33.7723
 5.28425  33.9401
 5.30725  34.1903
 5.33025  34.3518
 5.35325  34.2976
 5.37625  34.2312
 5.39925  34.3561
 5.42225  34.4682
 5.44525  34.6946
 5.46825  34.7553
 5.49125  34.662
 5.51425  34.7194
 5.53725  34.7705
 5.56025  34.871
 5.58325  34.9922
 5.60625  35.1352
 5.62925  35.0466
 5.65225  35.1871
 5.67525  35.3713
 5.69825  35.409
 5.72125  35.3335
 5.74425  35.4512
 5.76725  35.5159
 5.79025  35.5096
 5.81325  35.6554
 5.83625  35.9423
 5.85925  36.0285
 5.88225  36.2779
 5.90525  36.6979
 5.92825  37.777
 5.95125  40.5597
 5.97425  43.8586
 5.99725  46.1393
 6.02025  42.908
 6.04325  39.278
 6.06625  37.61
 6.08925  37.2129
 6.11225  37.1787
 6.13525  37.0798
 6.15825  36.8173
 6.18125  36.8682
 6.20425  37.0388
 6.22725  37.2766
 6.25025  37.0789
 6.27325  37.1347
 6.29625  37.5074
 6.31925  37.6909
 6.34225  37.9378
 6.36525  38.0541
 6.38825  38.0898
 6.41125  38.1194
 6.43425  38.2986
 6.45725  38.616
 6.48025  38.7092
 6.50325  38.8463
 6.52625  39.0382
 6.54925  39.1537
 6.57225  39.2734
 6.59525  39.5825
 6.61825  39.815
 6.64125  39.9225
 6.66425  40.0777
 6.68725  40.1274
 6.71025  40.1892
 6.73325  40.3917
 6.75625  40.5119
 6.77925  40.4993
 6.80225  40.5614
 6.82525  40.8622
 6.84825  41.1519
 6.87125  41.3232
 6.89425  41.5692
 6.91725  41.7379
 6.94025  41.7006
 6.96325  41.7631
 6.98625  41.97
 7.00925  42.2059
 7.03225  42.3768
 7.05525  42.64
 7.07825  42.8159
 7.10125  42.8187
 7.12425  42.8641
 7.14725  43.1183
 7.17025  43.3047
 7.19325  43.2673
 7.21625  43.2876
 7.23925  43.4405
 7.26225  43.6756
 7.28525  43.887
 7.30825  43.9662
 7.33125  44.0274
 7.35425  43.9467
 7.37725  43.8315
 7.40025  43.9008
 7.42325  44.1676
 7.44625  44.0579
 7.46925  44.0021
 7.49225  44.0323
 7.51525  44.1614
 7.53825  43.978
 7.56125  43.9129
 7.58425  44.0368
 7.60725  44.1389
 7.63025  44.0824
 7.65325  44.0394
 7.67625  43.99
 7.69925  44.1902
 7.72225  44.2575
 7.74525  44.2446
 7.76825  44.2288
 7.79125  44.1689
 7.81425  44.0868
 7.83725  44.0238
 7.86025  44.1625
 7.88325  43.9547
 7.90625  43.8932
 7.92925  43.7357
 7.95225  43.4502
 7.97525  43.2231
 7.99825  43.147
 8.02125  43.0568
 8.04425  43.1842
 8.06725  42.8451
 8.09025  42.7594
 8.11325  42.6581
 8.13625  42.376
 8.15925  42.0648
 8.18225  41.7327
 8.20525  41.5218
 8.22825  41.3998
 8.25125  41.244
 8.27425  41.015
 8.29725  40.7571
 8.32025  40.4605
 8.34325  40.1339
 8.36625  39.9024
 8.38925  39.6018
 8.41225  39.3528
 8.43525  38.9109
 8.45825  38.479
 8.48125  38.0691
 8.50425  37.7769
 8.52725  37.5453
 8.55025  37.3209
 8.57325  36.9732
 8.59625  36.5142
 8.61925  36.1203
 8.64225  35.824
 8.66525  35.401
 8.68825  34.9791
 8.71125  34.7251
 8.73425  34.3473
 8.75725  33.8304
 8.78025  33.5203
 8.80325  33.3695
 8.82625  33.1807
 8.84925  32.8873
 8.87225  32.5372
 8.89525  32.174
 8.91825  31.9198
 8.94125  31.6209
 8.96425  31.255
 8.98725  30.8634
 9.01025  30.4272
 9.03325  30.0815
 9.05625  29.8716
 9.07925  29.7725
 9.10225  29.5
 9.12525  29.3162
 9.14825  29.1965
 9.17125  28.908
 9.19425  28.5995
 9.21725  28.4314
 9.24025  28.5164
 9.26325  28.4943
 9.28625  27.8926
 9.30925  27.5517
 9.33225  27.2983
 9.35525  27.0292
 9.37825  26.9892
 9.40125  26.8914
 9.42425  26.7072
 9.44725  26.5692
 9.47025  26.4898
 9.49325  26.3922
 9.51625  26.3571
 9.53925  26.2293
 9.56225  26.0993
 9.58525  25.8865
 9.60825  25.7151
 9.63125  25.5544
 9.65425  25.3817
 9.67725  25.2934
 9.70025  25.1645
 9.72325  25.1519
 9.74625  25.0944
 9.76925  24.9759
 9.79225  24.9121
 9.81525  24.8239
 9.83825  24.72
 9.86125  24.5979
 9.88425  24.5285
 9.90725  24.5405
 9.93025  24.4587
 9.95325  24.3655
 9.97625  24.3327
 9.99925  24.273
 10.0222  24.1883
 10.0453  24.1768
 10.0683  24.1047
 10.0913  23.9048
 10.1143  23.7429
 10.1373  23.6508
 10.1603  23.706
 10.1832  23.7998
 10.2063  23.7388
 10.2293  23.6422
 10.2523  23.5416
 10.2752  23.5122
 10.2982  23.5079
 10.3213  23.4332
 10.3443  23.4478
 10.3673  23.4072
 10.3902  23.3053
 10.4133  23.2894
 10.4363  23.2422
 10.4593  23.2042
 10.4823  23.1102
 10.5053  23.1133
 10.5283  23.1378
 10.5512  23.0775
 10.5742  22.9618
 10.5973  22.9101
 10.6203  22.9197
 10.6433  22.9424
 10.6662  22.8809
 10.6893  22.8538
 10.7123  22.8517
 10.7353  22.8488
 10.7583  22.8399
 10.7813  22.8613
 10.8043  22.856
 10.8272  22.7993
 10.8503  22.7515
 10.8733  22.7558
 10.8963  22.6376
 10.9192  22.6192
 10.9422  22.5648
 10.9653  22.557
 10.9883  22.4942
 11.0113  22.3983
 11.0343  22.3644
 11.0573  22.3639
 11.0803  22.3199
 11.1033  22.3078
 11.1263  22.3704
 11.1493  22.368
 11.1723  22.3518
 11.1953  22.2728
 11.2182  22.289
 11.2413  22.3076
 11.2643  22.3405
 11.2873  22.3725
 11.3102  22.3541
 11.3333  22.3484
 11.3563  22.3226
 11.3793  22.4532
 11.4023  22.8884
 11.4253  22.9928
 11.4483  22.893
 11.4713  22.9545
 11.4942  23.0696
 11.5173  23.514
 11.5403  24.7858
 11.5633  26.8357
 11.5862  28.0445
 11.6093  27.254
 11.6323  25.5364
 11.6553  24.0413
 11.6783  23.2351
 11.7013  22.722
 11.7243  22.5473
 11.7473  22.4517
 11.7703  22.4089
 11.7933  22.4104
 11.8163  22.4911
 11.8393  22.4598
 11.8622  22.4615
 11.8853  22.4866
 11.9083  22.5779
 11.9313  22.6084
 11.9543  22.9858
 11.9773  23.2792
 12.0003  23.3889
 12.0233  23.3428
 12.0463  23.3879
 12.0693  23.8411
 12.0923  24.2105
 12.1153  24.1021
 12.1382  23.4661
 12.1613  22.9543
 12.1843  22.716
 12.2073  22.5712
 12.2302  22.4455
 12.2533  22.4882
 12.2763  22.5223
 12.2993  22.4891
 12.3223  22.4785
 12.3453  22.4349
 12.3683  22.4978
 12.3913  22.5086
 12.4142  22.4299
 12.4373  22.4659
 12.4603  22.5339
 12.4833  22.5603
 12.5062  22.5071
 12.5292  22.5394
 12.5523  22.6183
 12.5753  22.6918
 12.5983  22.7501
 12.6212  22.8148
 12.6443  22.7143
 12.6673  22.7067
 12.6903  22.7363
 12.7133  22.8838
 12.7363  22.9057
 12.7593  22.8273
 12.7822  22.8444
 12.8052  22.952
 12.8283  23.1015
 12.8513  23.1659
 12.8742  23.2886
 12.8972  23.3211
 12.9203  23.3605
 12.9433  23.4929
 12.9663  23.6103
 12.9893  23.754
 13.0123  23.8147
 13.0353  23.9419
 13.0582  24.1306
 13.0813  24.3987
 13.1043  24.7144
 13.1273  24.9386
 13.1502  25.1577
 13.1732  25.3522
 13.1963  25.5426
 13.2193  25.8295
 13.2423  26.1151
 13.2652  26.3814
 13.2883  26.6384
 13.3113  26.9831
 13.3343  27.3187
 13.3573  27.6043
 13.3803  27.8489
 13.4033  28.1736
 13.4262  28.4601
 13.4492  28.6241
 13.4723  28.8
 13.4953  29.0657
 13.5183  29.222
 13.5412  29.3334
 13.5643  29.5217
 13.5873  29.6888
 13.6103  29.7264
 13.6333  29.7094
 13.6563  29.5901
 13.6793  29.6616
 13.7022  29.6887
 13.7253  29.5595
 13.7483  29.4388
 13.7713  29.403
 13.7942  29.4373
 13.8172  29.4219
 13.8403  29.3839
 13.8633  29.5017
 13.8863  29.7423
 13.9093  30.6625
 13.9323  31.8674
 13.9553  32.2949
 13.9783  31.5083
 14.0013  29.9986
 14.0243  28.8579
 14.0473  28.2092
 14.0703  27.8538
 14.0932  27.6228
 14.1163  27.4162
 14.1393  27.212
 14.1623  27.0402
 14.1852  26.762
 14.2083  26.5623
 14.2313  26.3664
 14.2543  26.2383
 14.2773  26.1422
 14.3003  26.1421
 14.3233  26.122
 14.3463  26.0642
 14.3692  26.0882
 14.3923  25.9148
 14.4153  25.7861
 14.4383  25.7416
 14.4612  25.7494
 14.4843  25.6872
 14.5073  25.5589
 14.5303  25.4375
 14.5533  25.4394
 14.5763  25.4503
 14.5993  25.3939
 14.6223  25.3295
 14.6453  25.1821
 14.6683  25.0807
 14.6913  25.0886
 14.7143  25.0917
 14.7372  24.9936
 14.7603  24.8648
 14.7833  24.8265
 14.8063  24.8149
 14.8293  24.8562
 14.8523  24.8813
 14.8753  24.7681
 14.8983  24.7161
 14.9213  24.7594
 14.9443  24.8035
 14.9673  24.7493
 14.9903  24.6866
 15.0132  24.6822
 15.0363  24.7512
 15.0593  24.8038
 15.0823  24.9288
 15.1052  24.9523
 15.1283  24.974
 15.1513  25.3832
 15.1743  26.1204
 15.1973  26.4185
 15.2203  26.2333
 15.2433  25.5183
 15.2663  24.9519
 15.2892  24.6741
 15.3123  24.5864
 15.3353  24.564
 15.3583  24.5138
 15.3812  24.4129
 15.4043  24.2983
 15.4273  24.2619
 15.4503  24.3915
 15.4733  24.3634
 15.4963  24.3552
 15.5193  24.2998
 15.5423  24.3135
 15.5653  24.288
 15.5883  24.3571
 15.6113  24.3571
 15.6343  24.2578
 15.6572  24.4102
 15.6803  24.4806
 15.7033  24.4096
 15.7263  24.3826
 15.7492  24.3333
 15.7723  24.4209
 15.7953  24.3832
 15.8183  24.4352
 15.8413  24.3794
 15.8643  24.3601
 15.8873  24.3958
 15.9103  24.5249
 15.9332  24.5749
 15.9563  24.5198
 15.9793  24.525
 16.0023  24.5469
 16.0253  24.5745
 16.0482  24.605
 16.0713  24.5608
 16.0943  24.4721
 16.1172  24.6276
 16.1403  24.6666
 16.1633  24.7459
 16.1863  24.7303
 16.2093  24.7928
 16.2323  24.9398
 16.2553  25.1402
 16.2783  25.2169
 16.3012  25.0287
 16.3243  24.7824
 16.3472  24.6627
 16.3703  24.5635
 16.3933  24.5858
 16.4163  24.7605
 16.4393  24.769
 16.4623  24.6518
 16.4853  24.5744
 16.5083  24.5776
 16.5312  24.5332
 16.5543  24.5811
 16.5773  24.4647
 16.6002  24.3747
 16.6233  24.3132
 16.6463  24.3326
 16.6693  24.3349
 16.6923  24.4304
 16.7153  24.4963
 16.7383  24.4269
 16.7613  24.3794
 16.7843  24.2932
 16.8073  24.2768
 16.8303  24.4002
 16.8533  24.4084
 16.8763  24.3344
 16.8992  24.2933
 16.9223  24.2082
 16.9453  24.1119
 16.9683  24.1065
 16.9913  24.1599
 17.0143  24.2165
 17.0373  24.132
 17.0603  24.0064
 17.0832  24.0323
 17.1063  24.0908
 17.1293  24.1679
 17.1522  24.0957
 17.1753  24.1231
 17.1983  24.072
 17.2213  24.1027
 17.2443  24.0916
 17.2673  23.9728
 17.2903  23.9475
 17.3133  24.0059
 17.3362  24.0649
 17.3593  23.9475
 17.3823  23.9282
 17.4053  23.8629
 17.4283  23.8641
 17.4513  23.8778
 17.4743  23.8637
 17.4973  23.7725
 17.5203  23.6919
 17.5433  23.7669
 17.5663  23.8091
 17.5893  23.667
 17.6123  23.6647
 17.6352  23.7237
 17.6583  23.6436
 17.6813  23.6583
 17.7042  23.6889
 17.7273  23.6724
 17.7503  23.5707
 17.7733  23.5484
 17.7963  23.694
 17.8193  23.6171
 17.8423  23.6177
 17.8653  23.633
 17.8882  23.5427
 17.9113  23.5011
 17.9343  23.6827
 17.9573  23.8158
 17.9803  23.9389
 18.0033  23.944
 18.0263  23.923
 18.0493  24.1141
 18.0723  24.3759
 18.0953  24.4707
 18.1183  24.3574
 18.1413  24.2092
 18.1643  23.9722
 18.1872  23.6661
 18.2103  23.575
 18.2333  23.5639
 18.2563  23.5137
 18.2793  23.5195
 18.3023  23.4932
 18.3253  23.4763
 18.3483  23.4104
 18.3712  23.4399
 18.3943  23.4792
 18.4173  23.4529
 18.4402  23.3591
 18.4633  23.3817
 18.4863  23.4031
 18.5093  23.3796
 18.5323  23.3559
 18.5553  23.3038
 18.5783  23.349
 18.6013  23.3814
 18.6242  23.3488
 18.6473  23.3154
 18.6703  23.3525
 18.6933  23.4372
 18.7163  23.4514
 18.7392  23.3333
 18.7623  23.2459
 18.7853  23.3337
 18.8083  23.4088
 18.8313  23.4024
 18.8543  23.3061
 18.8773  23.3109
 18.9003  23.4035
 18.9232  23.3972
 18.9463  23.4384
 18.9693  23.4009
 18.9922  23.347
 19.0153  23.3821
 19.0383  23.4559
 19.0613  23.4118
 19.0843  23.4036
 19.1073  23.3912
 19.1303  23.3469
 19.1533  23.3312
 19.1762  23.3911
 19.1993  23.4718
 19.2223  23.4008
 19.2453  23.3659
 19.2683  23.381
 19.2913  23.3612
 19.3143  23.4677
 19.3373  23.4412
 19.3603  23.3695
 19.3833  23.417
 19.4062  23.4942
 19.4293  23.5081
 19.4523  23.4983
 19.4752  23.5672
 19.4983  23.5412
 19.5213  23.5762
 19.5443  23.6154
 19.5673  23.5855
 19.5903  23.6074
 19.6133  23.6623
 19.6363  23.873
 19.6593  24.2596
 19.6823  24.5529
 19.7053  24.9268
 19.7283  25.0842
 19.7513  25.0638
 19.7742  24.9174
 19.7973  24.845
 19.8203  24.9341
 19.8433  25.2845
 19.8663  25.3743
 19.8893  24.9759
 19.9123  24.4606
 19.9353  24.0437
 19.9582  23.8461
 19.9813  23.7426
 20.0043  23.6389
 20.0272  23.5504
 20.0503  23.5608
 20.0733  23.576
 20.0963  23.7402
 20.1193  23.7531
 20.1423  23.6108
 20.1653  23.6634
 20.1883  23.7299
 20.2112  23.7419
 20.2343  23.7087
 20.2573  23.6798
 20.2803  23.5775
 20.3033  23.4931
 20.3263  23.4744
 20.3493  23.5405
 20.3723  23.575
 20.3953  23.5824
 20.4183  23.7095
 20.4413  23.6859
 20.4643  23.609
 20.4873  23.5915
 20.5102  23.635
 20.5333  23.4981
 20.5563  23.5809
 20.5792  23.6728
 20.6023  23.8107
 20.6253  23.8558
 20.6483  23.8143
 20.6713  23.9353
 20.6943  24.1755
 20.7173  24.5389
 20.7403  24.9579
 20.7632  25.1174
 20.7863  25.0304
 20.8093  24.6084
 20.8323  24.1415
 20.8553  23.9011
 20.8783  23.932
 20.9013  23.9399
 20.9243  23.9488
 20.9473  23.9821
 20.9703  23.8399
 20.9933  23.8004
 21.0163  23.7166
 21.0393  23.7391
 21.0622  23.705
 21.0853  23.7757
 21.1083  23.691
 21.1313  23.7646
 21.1543  23.6886
 21.1773  23.7157
 21.2003  23.7073
 21.2233  23.6745
 21.2462  23.7019
 21.2693  23.7083
 21.2923  23.6593
 21.3152  23.7062
 21.3383  23.742
 21.3613  23.7653
 21.3843  23.7706
 21.4073  23.7599
 21.4303  23.8289
 21.4533  23.8477
 21.4763  23.7394
 21.4992  23.7438
 21.5223  23.7466
 21.5453  23.7905
 21.5683  23.8282
 21.5913  23.8845
 21.6142  23.8922
 21.6373  23.8876
 21.6603  23.9424
 21.6833  23.9798
 21.7063  23.9423
 21.7293  23.9267
 21.7523  23.9289
 21.7753  23.9302
 21.7982  23.9351
 21.8213  23.9314
 21.8443  23.9282
 21.8672  23.989
 21.8903  23.89
 21.9133  23.9592
 21.9363  23.9884
 21.9593  24.0921
 21.9823  24.3222
 22.0053  24.543
 22.0283  24.6153
 22.0512  24.4467
 22.0743  24.3221
 22.0973  24.2134
 22.1203  24.2252
 22.1433  24.1841
 22.1663  24.2594
 22.1893  24.2461
 22.2123  24.2051
 22.2353  24.2627
 22.2583  24.2536
 22.2813  24.2324
 22.3043  24.331
 22.3273  24.3326
 22.3502  24.3553
 22.3733  24.3518
 22.3963  24.3479
 22.4193  24.3839
 22.4423  24.5558
 22.4653  24.6307
 22.4883  24.5015
 22.5113  24.523
 22.5343  24.6093
 22.5573  24.6143
 22.5803  24.5705
 22.6033  24.6266
 22.6263  24.7443
 22.6493  24.7956
 22.6723  24.8867
 22.6953  24.9871
 22.7183  24.999
 22.7413  25.0415
 22.7643  25.1341
 22.7873  25.1456
 22.8103  25.26
 22.8333  25.3426
 22.8563  25.3994
 22.8793  25.4918
 22.9022  25.5988
 22.9253  25.7673
 22.9483  25.9345
 22.9713  26.0968
 22.9943  26.3832