File: test-data-xrd/xrd-map-34-ID-E/Data_0044.chi
F:\20151113_APS_34IDE\\Brian\Particle1\OCV\Data_0044.tif
2-Theta Angle (Degrees)
Intensity
       2000
 0.01725  0.0000000E+00
 0.04025  0.0000000E+00
 0.06325  0.0000000E+00
 0.08625  0.0000000E+00
 0.10925  0.0000000E+00
 0.13225  0.0000000E+00
 0.15525  0.0000000E+00
 0.17825  0.0000000E+00
 0.20125  0.0000000E+00
 0.22425  0.0000000E+00
 0.24725  0.0000000E+00
 0.27025  0.0000000E+00
 0.29325  0.0000000E+00
 0.31625  0.0000000E+00
 0.33925  0.0000000E+00
 0.36225  0.0000000E+00
 0.38525  0.0000000E+00
 0.40825  0.0000000E+00
 0.43125  0.0000000E+00
 0.45425  0.0000000E+00
 0.47725  0.0000000E+00
 0.50025  0.0000000E+00
 0.52325  0.0000000E+00
 0.54625  0.0000000E+00
 0.56925  0.0000000E+00
 0.59225  0.0000000E+00
 0.61525  0.0000000E+00
 0.63825  0.0000000E+00
 0.66125  0.0000000E+00
 0.68425  0.0000000E+00
 0.70725  0.0000000E+00
 0.73025  0.0000000E+00
 0.75325  0.0000000E+00
 0.77625  0.0000000E+00
 0.79925  0.0000000E+00
 0.82225  0.0000000E+00
 0.84525  0.0000000E+00
 0.86825  0.0000000E+00
 0.89125  0.0000000E+00
 0.91425  0.0000000E+00
 0.93725  0.0000000E+00
 0.96025  0.0000000E+00
 0.98325  0.0000000E+00
 1.00625  0.0000000E+00
 1.02925  0.0000000E+00
 1.05225  0.0000000E+00
 1.07525  0.0000000E+00
 1.09825  0.0000000E+00
 1.12125  0.0000000E+00
 1.14425  0.0000000E+00
 1.16725  0.0000000E+00
 1.19025  0.0000000E+00
 1.21325  0.0000000E+00
 1.23625  0.0000000E+00
 1.25925  0.0000000E+00
 1.28225  0.0000000E+00
 1.30525  0.0000000E+00
 1.32825  0.0000000E+00
 1.35125  0.0000000E+00
 1.37425  0.0000000E+00
 1.39725  0.0000000E+00
 1.42025  0.0000000E+00
 1.44325  0.0000000E+00
 1.46625  0.0000000E+00
 1.48925  0.0000000E+00
 1.51225  0.0000000E+00
 1.53525  0.0000000E+00
 1.55825  0.0000000E+00
 1.58125  0.0000000E+00
 1.60425  0.0000000E+00
 1.62725  0.0000000E+00
 1.65025  0.0000000E+00
 1.67325  0.0000000E+00
 1.69625  0.0000000E+00
 1.71925  0.0000000E+00
 1.74225  0.0000000E+00
 1.76525  0.0000000E+00
 1.78825  0.0000000E+00
 1.81125  0.0000000E+00
 1.83425  0.0000000E+00
 1.85725  0.0000000E+00
 1.88025  0.0000000E+00
 1.90325  0.0000000E+00
 1.92625  0.0000000E+00
 1.94925  0.0000000E+00
 1.97225  0.0000000E+00
 1.99525  0.0000000E+00
 2.01825  0.0000000E+00
 2.04125  0.0000000E+00
 2.06425  0.0000000E+00
 2.08725  0.0000000E+00
 2.11025  0.0000000E+00
 2.13325  0.0000000E+00
 2.15625  0.0000000E+00
 2.17925  0.0000000E+00
 2.20225  0.0000000E+00
 2.22525  0.0000000E+00
 2.24825  0.0000000E+00
 2.27125  0.0000000E+00
 2.29425  0.0000000E+00
 2.31725  0.0000000E+00
 2.34025  0.0000000E+00
 2.36325  0.0000000E+00
 2.38625  0.0000000E+00
 2.40925  0.0000000E+00
 2.43225  0.0000000E+00
 2.45525  0.0000000E+00
 2.47825  0.0000000E+00
 2.50125  0.0000000E+00
 2.52425  0.0000000E+00
 2.54725  0.0000000E+00
 2.57025  0.0000000E+00
 2.59325  0.0000000E+00
 2.61625  0.0000000E+00
 2.63925  0.0000000E+00
 2.66225  0.0000000E+00
 2.68525  0.0000000E+00
 2.70825  0.0000000E+00
 2.73125  0.0000000E+00
 2.75425  0.0000000E+00
 2.77725  0.0000000E+00
 2.80025  0.0000000E+00
 2.82325  33.925
 2.84625  34.6777
 2.86925  34.9826
 2.89225  35.4785
 2.91525  34.9895
 2.93825  34.8862
 2.96125  34.9948
 2.98425  34.2641
 3.00725  34.4789
 3.03025  34.9004
 3.05325  35.6043
 3.07625  35.3739
 3.09925  34.9896
 3.12225  34.1863
 3.14525  34.5358
 3.16825  35.0572
 3.19125  35.8978
 3.21425  36.1662
 3.23725  35.9791
 3.26025  35.6441
 3.28325  35.074
 3.30625  34.3752
 3.32925  34.3553
 3.35225  34.6551
 3.37525  34.5256
 3.39825  34.583
 3.42125  34.7239
 3.44425  34.8246
 3.46725  35.0724
 3.49025  35.3167
 3.51325  34.6916
 3.53625  34.438
 3.55925  34.4792
 3.58225  33.876
 3.60525  33.3897
 3.62825  33.5948
 3.65125  33.9409
 3.67425  34.3776
 3.69725  34.3352
 3.72025  33.8975
 3.74325  33.3751
 3.76625  33.2609
 3.78925  33.1464
 3.81225  33.1036
 3.83525  33.0667
 3.85825  32.8651
 3.88125  32.9545
 3.90425  32.7675
 3.92725  32.4728
 3.95025  32.4569
 3.97325  32.625
 3.99625  32.4576
 4.01925  32.3831
 4.04225  32.3204
 4.06525  32.1066
 4.08825  31.9187
 4.11125  31.807
 4.13425  32.1582
 4.15725  32.3313
 4.18025  32.279
 4.20325  32.1319
 4.22625  32.113
 4.24925  32.1131
 4.27225  32.4607
 4.29525  32.6318
 4.31825  32.521
 4.34125  32.1415
 4.36425  32.0996
 4.38725  32.2322
 4.41025  32.4295
 4.43325  32.6821
 4.45625  32.8349
 4.47925  32.8819
 4.50225  32.8865
 4.52525  32.5851
 4.54825  32.6019
 4.57125  32.8149
 4.59425  32.994
 4.61725  32.831
 4.64025  32.6399
 4.66325  32.6341
 4.68625  32.7833
 4.70925  33.0777
 4.73225  33.0953
 4.75525  32.7657
 4.77825  32.4583
 4.80125  32.4855
 4.82425  32.4785
 4.84725  32.7729
 4.87025  32.9337
 4.89325  33.224
 4.91625  33.2527
 4.93925  33.0683
 4.96225  32.6602
 4.98525  32.5627
 5.00825  32.6786
 5.03125  32.9276
 5.05425  33.0977
 5.07725  33.1096
 5.10025  33.1786
 5.12325  33.2814
 5.14625  33.5508
 5.16925  33.7664
 5.19225  33.8414
 5.21525  33.8169
 5.23825  33.9306
 5.26125  33.9197
 5.28425  33.827
 5.30725  33.987
 5.33025  34.0175
 5.35325  33.9635
 5.37625  34.1666
 5.39925  34.4515
 5.42225  34.3833
 5.44525  34.5161
 5.46825  34.627
 5.49125  34.6243
 5.51425  34.726
 5.53725  34.819
 5.56025  34.8298
 5.58325  34.8143
 5.60625  34.8149
 5.62925  34.7494
 5.65225  34.9376
 5.67525  35.2897
 5.69825  35.2013
 5.72125  35.1355
 5.74425  35.3829
 5.76725  35.425
 5.79025  35.6539
 5.81325  35.7612
 5.83625  35.8462
 5.85925  36.0785
 5.88225  36.4591
 5.90525  37.0979
 5.92825  38.6375
 5.95125  41.6492
 5.97425  43.8112
 5.99725  41.8329
 6.02025  39.4527
 6.04325  37.588
 6.06625  36.7442
 6.08925  36.498
 6.11225  36.5586
 6.13525  36.523
 6.15825  36.6111
 6.18125  36.8484
 6.20425  37.0643
 6.22725  37.4508
 6.25025  37.6883
 6.27325  37.6002
 6.29625  37.5494
 6.31925  37.5948
 6.34225  37.7737
 6.36525  38.0099
 6.38825  38.1121
 6.41125  38.3433
 6.43425  38.4281
 6.45725  38.6049
 6.48025  38.7301
 6.50325  38.9927
 6.52625  39.3121
 6.54925  39.2583
 6.57225  39.3584
 6.59525  39.5647
 6.61825  39.7404
 6.64125  39.8213
 6.66425  39.9002
 6.68725  39.9609
 6.71025  40.1701
 6.73325  40.4215
 6.75625  40.7015
 6.77925  41.0041
 6.80225  41.226
 6.82525  41.5325
 6.84825  41.5928
 6.87125  41.6109
 6.89425  41.5048
 6.91725  41.414
 6.94025  41.5469
 6.96325  41.9253
 6.98625  42.1895
 7.00925  42.2808
 7.03225  42.3685
 7.05525  42.6472
 7.07825  42.8851
 7.10125  42.954
 7.12425  43.0019
 7.14725  43.0887
 7.17025  43.1067
 7.19325  43.1947
 7.21625  43.4818
 7.23925  43.6397
 7.26225  43.6561
 7.28525  43.6149
 7.30825  43.7035
 7.33125  43.8783
 7.35425  43.9089
 7.37725  43.8809
 7.40025  43.9408
 7.42325  44.2841
 7.44625  44.8268
 7.46925  45.6548
 7.49225  45.4725
 7.51525  44.6147
 7.53825  44.5271
 7.56125  44.5431
 7.58425  44.6295
 7.60725  44.6574
 7.63025  44.6055
 7.65325  44.2048
 7.67625  44.0274
 7.69925  44.0652
 7.72225  44.065
 7.74525  44.09
 7.76825  44.0969
 7.79125  44.1345
 7.81425  44.1755
 7.83725  44.2058
 7.86025  44.0766
 7.88325  43.9913
 7.90625  43.9537
 7.92925  43.9106
 7.95225  43.9072
 7.97525  43.8203
 7.99825  43.8125
 8.02125  43.5825
 8.04425  43.261
 8.06725  43.0417
 8.09025  42.9019
 8.11325  42.8011
 8.13625  42.4912
 8.15925  42.3381
 8.18225  42.0691
 8.20525  41.8554
 8.22825  41.4542
 8.25125  41.2725
 8.27425  41.0713
 8.29725  40.8321
 8.32025  40.5516
 8.34325  40.0986
 8.36625  39.8447
 8.38925  39.5231
 8.41225  39.3026
 8.43525  38.9876
 8.45825  38.5406
 8.48125  38.2083
 8.50425  37.9518
 8.52725  37.5613
 8.55025  37.0625
 8.57325  36.7233
 8.59625  36.3341
 8.61925  36.0007
 8.64225  35.8067
 8.66525  35.5547
 8.68825  35.2478
 8.71125  34.683
 8.73425  34.271
 8.75725  33.9831
 8.78025  33.6113
 8.80325  33.1694
 8.82625  32.8926
 8.84925  32.5679
 8.87225  32.2096
 8.89525  31.868
 8.91825  31.6959
 8.94125  31.4177
 8.96425  31.1009
 8.98725  30.8308
 9.01025  30.5103
 9.03325  30.2644
 9.05625  30.0942
 9.07925  29.92
 9.10225  29.6641
 9.12525  29.3877
 9.14825  29.0804
 9.17125  28.7606
 9.19425  28.5602
 9.21725  28.4485
 9.24025  28.1895
 9.26325  27.9618
 9.28625  27.6428
 9.30925  27.4605
 9.33225  27.3
 9.35525  27.1906
 9.37825  27.181
 9.40125  27.0702
 9.42425  26.8345
 9.44725  26.6412
 9.47025  26.4466
 9.49325  26.363
 9.51625  26.1608
 9.53925  25.944
 9.56225  25.8237
 9.58525  25.7936
 9.60825  25.7797
 9.63125  25.6573
 9.65425  25.4521
 9.67725  25.3094
 9.70025  25.128
 9.72325  25.095
 9.74625  25.099
 9.76925  25.0744
 9.79225  25.0085
 9.81525  24.9468
 9.83825  24.8644
 9.86125  24.7133
 9.88425  24.6043
 9.90725  24.4476
 9.93025  24.2421
 9.95325  24.1203
 9.97625  24.2283
 9.99925  24.3027
 10.0222  24.2126
 10.0453  24.1059
 10.0683  24.0458
 10.0913  24.0232
 10.1143  23.8666
 10.1373  23.6324
 10.1603  23.5677
 10.1832  23.5871
 10.2063  23.6754
 10.2293  23.7305
 10.2523  23.5323
 10.2752  23.4629
 10.2982  23.3814
 10.3213  23.3216
 10.3443  23.3107
 10.3673  23.2964
 10.3902  23.2676
 10.4133  23.2446
 10.4363  23.1853
 10.4593  23.0935
 10.4823  23.0841
 10.5053  23.0842
 10.5283  22.9904
 10.5512  22.9102
 10.5742  22.8927
 10.5973  22.9238
 10.6203  22.8569
 10.6433  22.9079
 10.6662  22.8629
 10.6893  22.7659
 10.7123  22.7963
 10.7353  22.7824
 10.7583  22.7868
 10.7813  22.8242
 10.8043  22.7535
 10.8272  22.6653
 10.8503  22.5858
 10.8733  22.6422
 10.8963  22.5755
 10.9192  22.6315
 10.9422  22.4442
 10.9653  22.369
 10.9883  22.4254
 11.0113  22.4622
 11.0343  22.4286
 11.0573  22.4136
 11.0803  22.4839
 11.1033  22.4546
 11.1263  22.3935
 11.1493  22.368
 11.1723  22.3612
 11.1953  22.2792
 11.2182  22.267
 11.2413  22.3036
 11.2643  22.1838
 11.2873  22.0592
 11.3102  22.1753
 11.3333  22.341
 11.3563  22.3855
 11.3793  22.5359
 11.4023  22.6272
 11.4253  22.685
 11.4483  22.5273
 11.4713  22.4041
 11.4942  22.3459
 11.5173  22.3784
 11.5403  22.5665
 11.5633  22.9128
 11.5862  23.2976
 11.6093  23.3179
 11.6323  22.97
 11.6553  22.5993
 11.6783  22.4363
 11.7013  22.3405
 11.7243  22.3161
 11.7473  22.312
 11.7703  22.1639
 11.7933  22.0884
 11.8163  22.1655
 11.8393  22.2871
 11.8622  22.2195
 11.8853  22.1633
 11.9083  22.2401
 11.9313  22.3311
 11.9543  22.4555
 11.9773  22.4961
 12.0003  22.6121
 12.0233  22.5262
 12.0463  22.4443
 12.0693  22.5405
 12.0923  22.6669
 12.1153  22.6992
 12.1382  22.6389
 12.1613  22.5212
 12.1843  22.4934
 12.2073  22.4564
 12.2302  22.3708
 12.2533  22.3165
 12.2763  22.2886
 12.2993  22.3212
 12.3223  22.336
 12.3453  22.3251
 12.3683  22.4277
 12.3913  22.4349
 12.4142  22.3449
 12.4373  22.3915
 12.4603  22.4588
 12.4833  22.5167
 12.5062  22.5207
 12.5292  22.528
 12.5523  22.6004
 12.5753  22.6013
 12.5983  22.6897
 12.6212  22.9052
 12.6443  22.9072
 12.6673  22.8418
 12.6903  22.8094
 12.7133  22.8305
 12.7363  22.7698
 12.7593  22.8394
 12.7822  22.9555
 12.8052  23.0711
 12.8283  23.1538
 12.8513  23.2478
 12.8742  23.3719
 12.8972  23.4512
 12.9203  23.5467
 12.9433  23.6169
 12.9663  23.6177
 12.9893  23.7356
 13.0123  23.8662
 13.0353  24.0492
 13.0582  24.2159
 13.0813  24.3221
 13.1043  24.5591
 13.1273  24.9525
 13.1502  25.1804
 13.1732  25.4116
 13.1963  25.5911
 13.2193  25.8077
 13.2423  26.0794
 13.2652  26.2778
 13.2883  26.5511
 13.3113  26.7685
 13.3343  27.0353
 13.3573  27.3483
 13.3803  27.6356
 13.4033  28.0208
 13.4262  28.2858
 13.4492  28.4682
 13.4723  28.6431
 13.4953  28.8916
 13.5183  29.0332
 13.5412  29.1596
 13.5643  29.3024
 13.5873  29.3818
 13.6103  29.4146
 13.6333  29.4874
 13.6563  29.4414
 13.6793  29.3853
 13.7022  29.384
 13.7253  29.3081
 13.7483  29.108
 13.7713  28.853
 13.7942  28.7246
 13.8172  28.5747
 13.8403  28.5695
 13.8633  28.6039
 13.8863  28.6084
 13.9093  28.837
 13.9323  29.1013
 13.9553  29.3822
 13.9783  29.1817
 14.0013  28.4134
 14.0243  27.909
 14.0473  27.6245
 14.0703  27.4383
 14.0932  27.2217
 14.1163  26.9824
 14.1393  26.808
 14.1623  26.7101
 14.1852  26.606
 14.2083  26.5156
 14.2313  26.3901
 14.2543  26.2988
 14.2773  26.2381
 14.3003  26.1041
 14.3233  25.9311
 14.3463  25.8078
 14.3692  25.7816
 14.3923  25.7726
 14.4153  25.7714
 14.4383  25.7212
 14.4612  25.622
 14.4843  25.4311
 14.5073  25.3477
 14.5303  25.3594
 14.5533  25.3144
 14.5763  25.3244
 14.5993  25.2466
 14.6223  25.1412
 14.6453  25.0819
 14.6683  24.9804
 14.6913  24.9778
 14.7143  25.004
 14.7372  24.9448
 14.7603  24.9111
 14.7833  24.9408
 14.8063  24.8786
 14.8293  24.7974
 14.8523  24.831
 14.8753  24.7873
 14.8983  24.7786
 14.9213  24.7366
 14.9443  24.6506
 14.9673  24.7253
 14.9903  24.788
 15.0132  24.7186
 15.0363  24.6638
 15.0593  24.5891
 15.0823  24.5338
 15.1052  24.6207
 15.1283  24.6794
 15.1513  24.8146
 15.1743  25.0204
 15.1973  25.0676
 15.2203  24.949
 15.2433  24.803
 15.2663  24.6446
 15.2892  24.5802
 15.3123  24.5227
 15.3353  24.4856
 15.3583  24.4094
 15.3812  24.451
 15.4043  24.4281
 15.4273  24.3518
 15.4503  24.442
 15.4733  24.4056
 15.4963  24.3776
 15.5193  24.3694
 15.5423  24.4032
 15.5653  24.4839
 15.5883  24.5158
 15.6113  24.3532
 15.6343  24.224
 15.6572  24.2768
 15.6803  24.4029
 15.7033  24.4347
 15.7263  24.4603
 15.7492  24.3623
 15.7723  24.3553
 15.7953  24.3625
 15.8183  24.4244
 15.8413  24.3863
 15.8643  24.4883
 15.8873  24.5246
 15.9103  24.4524
 15.9332  24.4442
 15.9563  24.4942
 15.9793  24.5195
 16.0023  24.5228
 16.0253  24.5606
 16.0482  24.6169
 16.0713  24.5563
 16.0943  24.5757
 16.1172  24.6377
 16.1403  24.5681
 16.1633  24.6358
 16.1863  24.6503
 16.2093  24.6966
 16.2323  24.7581
 16.2553  24.8359
 16.2783  24.878
 16.3012  24.7054
 16.3243  24.601
 16.3472  24.514
 16.3703  24.3917
 16.3933  24.4063
 16.4163  24.4994
 16.4393  24.5879
 16.4623  24.5666
 16.4853  24.5368
 16.5083  24.5116
 16.5312  24.4455
 16.5543  24.3876
 16.5773  24.4216
 16.6002  24.5137
 16.6233  24.4782
 16.6463  24.3712
 16.6693  24.3118
 16.6923  24.2665
 16.7153  24.3077
 16.7383  24.3673
 16.7613  24.4451
 16.7843  24.3003
 16.8073  24.2826
 16.8303  24.2826
 16.8533  24.2495
 16.8763  24.2038
 16.8992  24.1203
 16.9223  24.0824
 16.9453  24.071
 16.9683  24.1274
 16.9913  24.1454
 17.0143  24.1673
 17.0373  24.1822
 17.0603  24.0871
 17.0832  24.0507
 17.1063  24.0051
 17.1293  23.9598
 17.1522  24.0342
 17.1753  24.017
 17.1983  24.0389
 17.2213  24.0904
 17.2443  24.0666
 17.2673  24.0095
 17.2903  23.9006
 17.3133  23.8457
 17.3362  23.8591
 17.3593  23.9604
 17.3823  24.0308
 17.4053  23.862
 17.4283  23.8123
 17.4513  23.7888
 17.4743  23.7405
 17.4973  23.6539
 17.5203  23.631
 17.5433  23.7314
 17.5663  23.6822
 17.5893  23.5995
 17.6123  23.5855
 17.6352  23.6359
 17.6583  23.6046
 17.6813  23.5649
 17.7042  23.55
 17.7273  23.5334
 17.7503  23.6141
 17.7733  23.5943
 17.7963  23.5953
 17.8193  23.5539
 17.8423  23.5296
 17.8653  23.4684
 17.8882  23.4163
 17.9113  23.4445
 17.9343  23.5355
 17.9573  23.6
 17.9803  23.6004
 18.0033  23.5844
 18.0263  23.6143
 18.0493  23.6697
 18.0723  23.6894
 18.0953  23.7773
 18.1183  23.7954
 18.1413  23.6844
 18.1643  23.5068
 18.1872  23.3962
 18.2103  23.3861
 18.2333  23.3251
 18.2563  23.2778
 18.2793  23.3092
 18.3023  23.3829
 18.3253  23.4443
 18.3483  23.576
 18.3712  23.6347
 18.3943  23.5163
 18.4173  23.5356
 18.4402  23.4342
 18.4633  23.5201
 18.4863  23.5302
 18.5093  23.4614
 18.5323  23.4261
 18.5553  23.3931
 18.5783  23.3365
 18.6013  23.3596
 18.6242  23.2795
 18.6473  23.278
 18.6703  23.2749
 18.6933  23.3362
 18.7163  23.2872
 18.7392  23.3157
 18.7623  23.2728
 18.7853  23.3239
 18.8083  23.3876
 18.8313  23.4074
 18.8543  23.3671
 18.8773  23.4048
 18.9003  23.3712
 18.9232  23.3822
 18.9463  23.413
 18.9693  23.3315
 18.9922  23.3056
 19.0153  23.3519
 19.0383  23.3814
 19.0613  23.3378
 19.0843  23.3617
 19.1073  23.3014
 19.1303  23.2621
 19.1533  23.2694
 19.1762  23.2773
 19.1993  23.2988
 19.2223  23.2758
 19.2453  23.275
 19.2683  23.368
 19.2913  23.424
 19.3143  23.3188
 19.3373  23.291
 19.3603  23.3096
 19.3833  23.3207
 19.4062  23.3614
 19.4293  23.3375
 19.4523  23.3734
 19.4752  23.3974
 19.4983  23.4025
 19.5213  23.4131
 19.5443  23.4604
 19.5673  23.417
 19.5903  23.4593
 19.6133  23.4232
 19.6363  23.4996
 19.6593  23.5259
 19.6823  23.6259
 19.7053  23.826
 19.7283  23.819
 19.7513  23.7151
 19.7742  23.6304
 19.7973  23.7031
 19.8203  23.7123
 19.8433  23.794
 19.8663  23.8492
 19.8893  23.872
 19.9123  23.7168
 19.9353  23.5633
 19.9582  23.5199
 19.9813  23.4821
 20.0043  23.5016
 20.0272  23.399
 20.0503  23.4441
 20.0733  23.4225
 20.0963  23.3562
 20.1193  23.3692
 20.1423  23.4025
 20.1653  23.3865
 20.1883  23.3634
 20.2112  23.4079
 20.2343  23.5226
 20.2573  23.4889
 20.2803  23.4988
 20.3033  23.4032
 20.3263  23.3584
 20.3493  23.441
 20.3723  23.5153
 20.3953  23.5261
 20.4183  23.5281
 20.4413  23.5507
 20.4643  23.5709
 20.4873  23.4904
 20.5102  23.4026
 20.5333  23.4394
 20.5563  23.5754
 20.5792  23.556
 20.6023  23.5033
 20.6253  23.5271
 20.6483  23.5763
 20.6713  23.5011
 20.6943  23.5455
 20.7173  23.6516
 20.7403  23.7242
 20.7632  23.797
 20.7863  23.8006
 20.8093  23.7009
 20.8323  23.6184
 20.8553  23.6023
 20.8783  23.6366
 20.9013  23.6968
 20.9243  23.7149
 20.9473  23.7284
 20.9703  23.6275
 20.9933  23.6236
 21.0163  23.5627
 21.0393  23.5898
 21.0622  23.5663
 21.0853  23.5832
 21.1083  23.5773
 21.1313  23.6236
 21.1543  23.6054
 21.1773  23.6803
 21.2003  23.6634
 21.2233  23.5894
 21.2462  23.6213
 21.2693  23.6556
 21.2923  23.7571
 21.3152  23.685
 21.3383  23.7048
 21.3613  23.7168
 21.3843  23.7475
 21.4073  23.6962
 21.4303  23.708
 21.4533  23.6073
 21.4763  23.5864
 21.4992  23.7029
 21.5223  23.7197
 21.5453  23.7326
 21.5683  23.7632
 21.5913  23.883
 21.6142  23.9836
 21.6373  23.9503
 21.6603  23.8531
 21.6833  23.8242
 21.7063  23.9022
 21.7293  23.9154
 21.7523  23.9057
 21.7753  23.9227
 21.7982  23.8802
 21.8213  23.8708
 21.8443  23.8051
 21.8672  23.8629
 21.8903  23.86
 21.9133  23.9261
 21.9363  23.9773
 21.9593  24.018
 21.9823  24.0526
 22.0053  24.0865
 22.0283  24.0499
 22.0512  24.0351
 22.0743  24.0822
 22.0973  24.116
 22.1203  24.2445
 22.1433  24.2629
 22.1663  24.2903
 22.1893  24.1301
 22.2123  24.1901
 22.2353  24.3765
 22.2583  24.2976
 22.2813  24.1652
 22.3043  24.2263
 22.3273  24.2889
 22.3502  24.3097
 22.3733  24.3229
 22.3963  24.408
 22.4193  24.3664
 22.4423  24.3707
 22.4653  24.4226
 22.4883  24.4396
 22.5113  24.5005
 22.5343  24.6165
 22.5573  24.5704
 22.5803  24.5139
 22.6033  24.6014
 22.6263  24.7523
 22.6493  24.7068
 22.6723  24.7039
 22.6953  24.8899
 22.7183  24.9625
 22.7413  24.9689
 22.7643  25.1745
 22.7873  25.1877
 22.8103  25.1762
 22.8333  25.2308
 22.8563  25.2044
 22.8793  25.2893
 22.9022  25.3905
 22.9253  25.5241
 22.9483  25.6323
 22.9713  25.8391
 22.9943  26.0557