File: test-data-xrd/xrd-map-34-ID-E/Data_0108.chi
F:\20151113_APS_34IDE\\Brian\Particle1\OCV\Data_0108.tif
2-Theta Angle (Degrees)
Intensity
       2000
 0.01725  0.0000000E+00
 0.04025  0.0000000E+00
 0.06325  0.0000000E+00
 0.08625  0.0000000E+00
 0.10925  0.0000000E+00
 0.13225  0.0000000E+00
 0.15525  0.0000000E+00
 0.17825  0.0000000E+00
 0.20125  0.0000000E+00
 0.22425  0.0000000E+00
 0.24725  0.0000000E+00
 0.27025  0.0000000E+00
 0.29325  0.0000000E+00
 0.31625  0.0000000E+00
 0.33925  0.0000000E+00
 0.36225  0.0000000E+00
 0.38525  0.0000000E+00
 0.40825  0.0000000E+00
 0.43125  0.0000000E+00
 0.45425  0.0000000E+00
 0.47725  0.0000000E+00
 0.50025  0.0000000E+00
 0.52325  0.0000000E+00
 0.54625  0.0000000E+00
 0.56925  0.0000000E+00
 0.59225  0.0000000E+00
 0.61525  0.0000000E+00
 0.63825  0.0000000E+00
 0.66125  0.0000000E+00
 0.68425  0.0000000E+00
 0.70725  0.0000000E+00
 0.73025  0.0000000E+00
 0.75325  0.0000000E+00
 0.77625  0.0000000E+00
 0.79925  0.0000000E+00
 0.82225  0.0000000E+00
 0.84525  0.0000000E+00
 0.86825  0.0000000E+00
 0.89125  0.0000000E+00
 0.91425  0.0000000E+00
 0.93725  0.0000000E+00
 0.96025  0.0000000E+00
 0.98325  0.0000000E+00
 1.00625  0.0000000E+00
 1.02925  0.0000000E+00
 1.05225  0.0000000E+00
 1.07525  0.0000000E+00
 1.09825  0.0000000E+00
 1.12125  0.0000000E+00
 1.14425  0.0000000E+00
 1.16725  0.0000000E+00
 1.19025  0.0000000E+00
 1.21325  0.0000000E+00
 1.23625  0.0000000E+00
 1.25925  0.0000000E+00
 1.28225  0.0000000E+00
 1.30525  0.0000000E+00
 1.32825  0.0000000E+00
 1.35125  0.0000000E+00
 1.37425  0.0000000E+00
 1.39725  0.0000000E+00
 1.42025  0.0000000E+00
 1.44325  0.0000000E+00
 1.46625  0.0000000E+00
 1.48925  0.0000000E+00
 1.51225  0.0000000E+00
 1.53525  0.0000000E+00
 1.55825  0.0000000E+00
 1.58125  0.0000000E+00
 1.60425  0.0000000E+00
 1.62725  0.0000000E+00
 1.65025  0.0000000E+00
 1.67325  0.0000000E+00
 1.69625  0.0000000E+00
 1.71925  0.0000000E+00
 1.74225  0.0000000E+00
 1.76525  0.0000000E+00
 1.78825  0.0000000E+00
 1.81125  0.0000000E+00
 1.83425  0.0000000E+00
 1.85725  0.0000000E+00
 1.88025  0.0000000E+00
 1.90325  0.0000000E+00
 1.92625  0.0000000E+00
 1.94925  0.0000000E+00
 1.97225  0.0000000E+00
 1.99525  0.0000000E+00
 2.01825  0.0000000E+00
 2.04125  0.0000000E+00
 2.06425  0.0000000E+00
 2.08725  0.0000000E+00
 2.11025  0.0000000E+00
 2.13325  0.0000000E+00
 2.15625  0.0000000E+00
 2.17925  0.0000000E+00
 2.20225  0.0000000E+00
 2.22525  0.0000000E+00
 2.24825  0.0000000E+00
 2.27125  0.0000000E+00
 2.29425  0.0000000E+00
 2.31725  0.0000000E+00
 2.34025  0.0000000E+00
 2.36325  0.0000000E+00
 2.38625  0.0000000E+00
 2.40925  0.0000000E+00
 2.43225  0.0000000E+00
 2.45525  0.0000000E+00
 2.47825  0.0000000E+00
 2.50125  0.0000000E+00
 2.52425  0.0000000E+00
 2.54725  0.0000000E+00
 2.57025  0.0000000E+00
 2.59325  0.0000000E+00
 2.61625  0.0000000E+00
 2.63925  0.0000000E+00
 2.66225  0.0000000E+00
 2.68525  0.0000000E+00
 2.70825  0.0000000E+00
 2.73125  0.0000000E+00
 2.75425  0.0000000E+00
 2.77725  0.0000000E+00
 2.80025  0.0000000E+00
 2.82325  33.3862
 2.84625  34.4615
 2.86925  35.1826
 2.89225  35.836
 2.91525  36.0045
 2.93825  35.7708
 2.96125  35.2868
 2.98425  35.4062
 3.00725  36.823
 3.03025  36.5928
 3.05325  35.5137
 3.07625  35.5138
 3.09925  36.4897
 3.12225  37.1686
 3.14525  36.5007
 3.16825  35.925
 3.19125  35.4848
 3.21425  35.8913
 3.23725  36.7503
 3.26025  37.1867
 3.28325  36.1781
 3.30625  35.6003
 3.32925  34.6822
 3.35225  34.4411
 3.37525  34.1605
 3.39825  34.2144
 3.42125  34.4723
 3.44425  34.8323
 3.46725  34.6558
 3.49025  34.9358
 3.51325  34.3798
 3.53625  33.6363
 3.55925  33.537
 3.58225  33.4414
 3.60525  33.3347
 3.62825  33.1726
 3.65125  33.3659
 3.67425  33.5613
 3.69725  33.3777
 3.72025  33.2436
 3.74325  33.4698
 3.76625  33.9485
 3.78925  34.0267
 3.81225  33.6309
 3.83525  33.5968
 3.85825  33.4077
 3.88125  33.4825
 3.90425  33.3215
 3.92725  33.1067
 3.95025  33.0079
 3.97325  32.9548
 3.99625  32.9781
 4.01925  32.9781
 4.04225  32.8679
 4.06525  32.7383
 4.08825  32.3861
 4.11125  32.1348
 4.13425  32.2713
 4.15725  32.7075
 4.18025  32.6978
 4.20325  32.8065
 4.22625  33.048
 4.24925  32.8976
 4.27225  32.667
 4.29525  32.3486
 4.31825  32.1832
 4.34125  32.165
 4.36425  32.486
 4.38725  32.557
 4.41025  32.7501
 4.43325  32.8341
 4.45625  32.6856
 4.47925  32.7321
 4.50225  32.7591
 4.52525  32.5082
 4.54825  32.4138
 4.57125  32.5186
 4.59425  32.8627
 4.61725  32.8755
 4.64025  32.8467
 4.66325  32.8998
 4.68625  32.8007
 4.70925  32.5576
 4.73225  32.1722
 4.75525  32.0332
 4.77825  32.2591
 4.80125  32.3584
 4.82425  32.5405
 4.84725  32.6209
 4.87025  32.754
 4.89325  32.6822
 4.91625  32.6842
 4.93925  32.8221
 4.96225  32.8907
 4.98525  32.843
 5.00825  32.8791
 5.03125  33.0489
 5.05425  33.2936
 5.07725  33.3605
 5.10025  33.5223
 5.12325  33.5683
 5.14625  33.7265
 5.16925  33.9369
 5.19225  33.7722
 5.21525  33.8072
 5.23825  33.8631
 5.26125  34.1065
 5.28425  34.3309
 5.30725  34.2238
 5.33025  34.1044
 5.35325  34.0932
 5.37625  34.2829
 5.39925  34.4024
 5.42225  34.5824
 5.44525  34.629
 5.46825  34.5298
 5.49125  34.4115
 5.51425  34.4708
 5.53725  34.4111
 5.56025  34.6825
 5.58325  34.8015
 5.60625  34.8998
 5.62925  35.0104
 5.65225  35.1444
 5.67525  35.3089
 5.69825  35.198
 5.72125  35.0196
 5.74425  35.1495
 5.76725  35.2597
 5.79025  35.4797
 5.81325  35.6548
 5.83625  35.6962
 5.85925  35.7737
 5.88225  36.0322
 5.90525  36.4225
 5.92825  36.9258
 5.95125  38.1893
 5.97425  39.4821
 5.99725  39.531
 6.02025  38.2969
 6.04325  37.2073
 6.06625  36.6379
 6.08925  36.6245
 6.11225  36.5904
 6.13525  36.4
 6.15825  36.4527
 6.18125  36.7947
 6.20425  36.9189
 6.22725  36.9359
 6.25025  36.9016
 6.27325  37.2806
 6.29625  37.7354
 6.31925  37.8077
 6.34225  38.035
 6.36525  38.0853
 6.38825  38.2351
 6.41125  38.0928
 6.43425  38.0615
 6.45725  38.1369
 6.48025  38.4438
 6.50325  38.8771
 6.52625  39.2572
 6.54925  39.306
 6.57225  39.4864
 6.59525  39.5349
 6.61825  39.6746
 6.64125  39.6468
 6.66425  39.8812
 6.68725  40.0961
 6.71025  40.1877
 6.73325  40.4205
 6.75625  40.6363
 6.77925  40.7454
 6.80225  40.8147
 6.82525  41.0305
 6.84825  41.3466
 6.87125  41.5913
 6.89425  41.6373
 6.91725  41.5611
 6.94025  41.5105
 6.96325  41.6177
 6.98625  41.9007
 7.00925  41.9853
 7.03225  42.1953
 7.05525  42.2436
 7.07825  42.3191
 7.10125  42.4239
 7.12425  42.7777
 7.14725  42.802
 7.17025  42.8859
 7.19325  43.0223
 7.21625  43.2001
 7.23925  43.2976
 7.26225  43.3627
 7.28525  43.2867
 7.30825  43.1937
 7.33125  43.3363
 7.35425  43.5593
 7.37725  43.5657
 7.40025  43.5773
 7.42325  43.5632
 7.44625  43.6675
 7.46925  43.7432
 7.49225  43.9541
 7.51525  44.0432
 7.53825  44.0768
 7.56125  43.9917
 7.58425  44.0788
 7.60725  44.1832
 7.63025  44.2159
 7.65325  44.1825
 7.67625  44.0488
 7.69925  43.9319
 7.72225  43.8798
 7.74525  43.9255
 7.76825  43.9986
 7.79125  43.971
 7.81425  43.9086
 7.83725  44.0024
 7.86025  44.0445
 7.88325  43.7792
 7.90625  43.4955
 7.92925  43.3375
 7.95225  42.9945
 7.97525  42.8799
 7.99825  43.0317
 8.02125  43.2682
 8.04425  43.266
 8.06725  42.8405
 8.09025  42.4402
 8.11325  42.4041
 8.13625  42.2667
 8.15925  41.9786
 8.18225  41.7616
 8.20525  41.4078
 8.22825  41.0244
 8.25125  40.763
 8.27425  40.6002
 8.29725  40.1958
 8.32025  39.9544
 8.34325  39.91
 8.36625  39.8229
 8.38925  39.4757
 8.41225  39.1038
 8.43525  38.5382
 8.45825  38.0506
 8.48125  37.7298
 8.50425  37.4986
 8.52725  37.1244
 8.55025  36.8588
 8.57325  36.6237
 8.59625  36.2276
 8.61925  35.861
 8.64225  35.6119
 8.66525  35.2692
 8.68825  34.8792
 8.71125  34.459
 8.73425  33.9509
 8.75725  33.5746
 8.78025  33.4331
 8.80325  33.0287
 8.82625  32.64
 8.84925  32.2767
 8.87225  32.0639
 8.89525  31.873
 8.91825  31.6323
 8.94125  31.3678
 8.96425  31.0015
 8.98725  30.6413
 9.01025  30.2047
 9.03325  29.9338
 9.05625  29.658
 9.07925  29.4766
 9.10225  29.1279
 9.12525  28.9083
 9.14825  28.671
 9.17125  28.4515
 9.19425  28.3539
 9.21725  28.1245
 9.24025  27.8474
 9.26325  27.6903
 9.28625  27.4473
 9.30925  27.301
 9.33225  27.1809
 9.35525  26.8948
 9.37825  26.7015
 9.40125  26.5734
 9.42425  26.4044
 9.44725  26.2038
 9.47025  26.0593
 9.49325  25.9548
 9.51625  25.8638
 9.53925  25.7925
 9.56225  25.6239
 9.58525  25.4114
 9.60825  25.4087
 9.63125  25.3557
 9.65425  25.1624
 9.67725  24.9185
 9.70025  24.8875
 9.72325  24.9877
 9.74625  24.9372
 9.76925  24.668
 9.79225  24.4307
 9.81525  24.3321
 9.83825  24.2403
 9.86125  24.2013
 9.88425  24.1958
 9.90725  24.1622
 9.93025  23.975
 9.95325  23.9207
 9.97625  23.9159
 9.99925  23.8762
 10.0222  23.8239
 10.0453  23.8313
 10.0683  23.8162
 10.0913  24.2516
 10.1143  24.41
 10.1373  24.2128
 10.1603  23.7544
 10.1832  23.4532
 10.2063  23.4295
 10.2293  23.3121
 10.2523  23.2148
 10.2752  23.3044
 10.2982  23.2862
 10.3213  23.1561
 10.3443  23.0051
 10.3673  22.8527
 10.3902  22.8676
 10.4133  22.8511
 10.4363  22.8232
 10.4593  22.752
 10.4823  22.7907
 10.5053  22.8269
 10.5283  22.8469
 10.5512  22.8445
 10.5742  22.757
 10.5973  22.5905
 10.6203  22.6483
 10.6433  22.661
 10.6662  22.5774
 10.6893  22.5164
 10.7123  22.5354
 10.7353  22.4459
 10.7583  22.291
 10.7813  22.3322
 10.8043  22.3879
 10.8272  22.3729
 10.8503  22.2117
 10.8733  22.2156
 10.8963  22.2191
 10.9192  22.2402
 10.9422  22.2164
 10.9653  22.1501
 10.9883  22.1409
 11.0113  22.1393
 11.0343  22.2802
 11.0573  22.2811
 11.0803  22.2841
 11.1033  22.318
 11.1263  22.3083
 11.1493  22.1731
 11.1723  22.2159
 11.1953  22.1488
 11.2182  22.0784
 11.2413  22.1054
 11.2643  22.1428
 11.2873  22.0228
 11.3102  21.9624
 11.3333  22.1203
 11.3563  22.1993
 11.3793  22.2034
 11.4023  22.3564
 11.4253  22.2724
 11.4483  22.1948
 11.4713  22.2562
 11.4942  22.2932
 11.5173  22.3492
 11.5403  22.6758
 11.5633  23.241
 11.5862  23.7091
 11.6093  23.5291
 11.6323  22.9195
 11.6553  22.4078
 11.6783  22.1598
 11.7013  22.038
 11.7243  21.9914
 11.7473  22.0689
 11.7703  22.0332
 11.7933  22.0288
 11.8163  22.1073
 11.8393  22.1661
 11.8622  22.1411
 11.8853  22.2022
 11.9083  22.2061
 11.9313  22.2164
 11.9543  22.2627
 11.9773  22.3105
 12.0003  22.3035
 12.0233  22.4042
 12.0463  22.4357
 12.0693  22.3805
 12.0923  22.519
 12.1153  22.5066
 12.1382  22.3867
 12.1613  22.2838
 12.1843  22.1828
 12.2073  22.1004
 12.2302  22.0456
 12.2533  22.1559
 12.2763  22.1985
 12.2993  22.1586
 12.3223  22.0796
 12.3453  22.0212
 12.3683  21.9817
 12.3913  22.1373
 12.4142  22.162
 12.4373  22.2193
 12.4603  22.2556
 12.4833  22.3786
 12.5062  22.4026
 12.5292  22.3116
 12.5523  22.3779
 12.5753  22.3889
 12.5983  22.2701
 12.6212  22.255
 12.6443  22.2774
 12.6673  22.2935
 12.6903  22.3947
 12.7133  22.556
 12.7363  22.6005
 12.7593  22.5957
 12.7822  22.687
 12.8052  22.7467
 12.8283  22.8492
 12.8513  22.9548
 12.8742  23.056
 12.8972  23.1159
 12.9203  23.1561
 12.9433  23.2691
 12.9663  23.3684
 12.9893  23.4502
 13.0123  23.6219
 13.0353  23.8243
 13.0582  24.0256
 13.0813  24.1628
 13.1043  24.3685
 13.1273  24.6078
 13.1502  24.7353
 13.1732  24.9442
 13.1963  25.1518
 13.2193  25.4758
 13.2423  25.8189
 13.2652  26.0741
 13.2883  26.3675
 13.3113  26.5807
 13.3343  26.8448
 13.3573  27.1041
 13.3803  27.4038
 13.4033  27.6759
 13.4262  27.9238
 13.4492  28.1496
 13.4723  28.5271
 13.4953  28.8342
 13.5183  28.97
 13.5412  29.0255
 13.5643  29.1351
 13.5873  29.1951
 13.6103  29.1834
 13.6333  29.2179
 13.6563  29.2874
 13.6793  29.3337
 13.7022  29.1459
 13.7253  29.0708
 13.7483  29.0939
 13.7713  28.9825
 13.7942  28.7369
 13.8172  28.6715
 13.8403  28.6817
 13.8633  28.8978
 13.8863  29.4124
 13.9093  30.6444
 13.9323  32.3319
 13.9553  33.2138
 13.9783  32.6195
 14.0013  30.7644
 14.0243  29.0254
 14.0473  27.8669
 14.0703  27.3288
 14.0932  27.1097
 14.1163  26.9308
 14.1393  26.8221
 14.1623  26.6715
 14.1852  26.5483
 14.2083  26.4326
 14.2313  26.2175
 14.2543  26.0516
 14.2773  26.0174
 14.3003  26.0093
 14.3233  25.9784
 14.3463  25.9371
 14.3692  25.8923
 14.3923  25.8052
 14.4153  25.7033
 14.4383  25.5692
 14.4612  25.4366
 14.4843  25.3367
 14.5073  25.3225
 14.5303  25.2141
 14.5533  25.1996
 14.5763  25.0867
 14.5993  24.9668
 14.6223  24.9447
 14.6453  24.864
 14.6683  24.7535
 14.6913  24.7585
 14.7143  24.7459
 14.7372  24.7714
 14.7603  24.7542
 14.7833  24.7787
 14.8063  24.7935
 14.8293  24.7191
 14.8523  24.6769
 14.8753  24.5223
 14.8983  24.5277
 14.9213  24.5801
 14.9443  24.5143
 14.9673  24.3758
 14.9903  24.4224
 15.0132  24.5637
 15.0363  24.547
 15.0593  24.4591
 15.0823  24.4117
 15.1052  24.4204
 15.1283  24.4511
 15.1513  24.6507
 15.1743  24.8955
 15.1973  24.9417
 15.2203  24.7867
 15.2433  24.5275
 15.2663  24.3982
 15.2892  24.3863
 15.3123  24.3046
 15.3353  24.2387
 15.3583  24.1968
 15.3812  24.2155
 15.4043  24.2845
 15.4273  24.2617
 15.4503  24.1766
 15.4733  24.1579
 15.4963  24.188
 15.5193  24.2019
 15.5423  24.0726
 15.5653  24.0039
 15.5883  24.151
 15.6113  24.1833
 15.6343  24.1797
 15.6572  24.2837
 15.6803  24.2248
 15.7033  24.2366
 15.7263  24.2873
 15.7492  24.1836
 15.7723  24.1857
 15.7953  24.2146
 15.8183  24.2835
 15.8413  24.2997
 15.8643  24.3287
 15.8873  24.2299
 15.9103  24.2295
 15.9332  24.223
 15.9563  24.2353
 15.9793  24.4106
 16.0023  24.4043
 16.0253  24.3599
 16.0482  24.4427
 16.0713  24.4594
 16.0943  24.4979
 16.1172  24.4611
 16.1403  24.4333
 16.1633  24.4464
 16.1863  24.4469
 16.2093  24.5101
 16.2323  24.6853
 16.2553  24.9533
 16.2783  24.933
 16.3012  24.7332
 16.3243  24.5404
 16.3472  24.4267
 16.3703  24.2951
 16.3933  24.3026
 16.4163  24.2994
 16.4393  24.34
 16.4623  24.3787
 16.4853  24.3099
 16.5083  24.2377
 16.5312  24.2805
 16.5543  24.2353
 16.5773  24.2096
 16.6002  24.2542
 16.6233  24.1811
 16.6463  24.1622
 16.6693  24.1391
 16.6923  24.1171
 16.7153  24.2183
 16.7383  24.2603
 16.7613  24.2128
 16.7843  24.1637
 16.8073  24.067
 16.8303  23.9898
 16.8533  23.9679
 16.8763  23.9829
 16.8992  23.9308
 16.9223  23.9019
 16.9453  23.915
 16.9683  23.9351
 16.9913  24.0476
 17.0143  24.0437
 17.0373  23.9559
 17.0603  23.8659
 17.0832  23.8447
 17.1063  23.87
 17.1293  23.7939
 17.1522  23.7688
 17.1753  23.8064
 17.1983  23.8738
 17.2213  23.8412
 17.2443  23.6887
 17.2673  23.6009
 17.2903  23.6251
 17.3133  23.7081
 17.3362  23.7557
 17.3593  23.701
 17.3823  23.6369
 17.4053  23.5721
 17.4283  23.572
 17.4513  23.6029
 17.4743  23.5589
 17.4973  23.5363
 17.5203  23.4378
 17.5433  23.4722
 17.5663  23.5201
 17.5893  23.5127
 17.6123  23.4398
 17.6352  23.4743
 17.6583  23.3941
 17.6813  23.3099
 17.7042  23.3574
 17.7273  23.3451
 17.7503  23.3552
 17.7733  23.3865
 17.7963  23.3605
 17.8193  23.2861
 17.8423  23.2414
 17.8653  23.2946
 17.8882  23.3397
 17.9113  23.3735
 17.9343  23.3754
 17.9573  23.2454
 17.9803  23.2475
 18.0033  23.3012
 18.0263  23.3971
 18.0493  23.5515
 18.0723  23.652
 18.0953  23.7026
 18.1183  23.7294
 18.1413  23.6642
 18.1643  23.5471
 18.1872  23.3807
 18.2103  23.3063
 18.2333  23.224
 18.2563  23.2365
 18.2793  23.1217
 18.3023  23.1066
 18.3253  23.1181
 18.3483  23.1644
 18.3712  23.2295
 18.3943  23.2067
 18.4173  23.1991
 18.4402  23.1662
 18.4633  23.1943
 18.4863  23.2232
 18.5093  23.1156
 18.5323  23.1056
 18.5553  23.1533
 18.5783  23.1697
 18.6013  23.1683
 18.6242  23.1622
 18.6473  23.156
 18.6703  23.1199
 18.6933  23.1257
 18.7163  23.0833
 18.7392  23.0081
 18.7623  23.0351
 18.7853  23.0583
 18.8083  23.1252
 18.8313  23.0676
 18.8543  23.0504
 18.8773  23.0476
 18.9003  23.002
 18.9232  23.0619
 18.9463  23.1074
 18.9693  23.0776
 18.9922  22.9893
 19.0153  22.9589
 19.0383  22.9389
 19.0613  22.9784
 19.0843  23.0917
 19.1073  23.1118
 19.1303  23.0691
 19.1533  23.1138
 19.1762  23.0193
 19.1993  22.9842
 19.2223  22.9934
 19.2453  23.0263
 19.2683  23.0589
 19.2913  23.05
 19.3143  23.1351
 19.3373  23.1772
 19.3603  23.1616
 19.3833  23.0999
 19.4062  23.0964
 19.4293  23.1588
 19.4523  23.2003
 19.4752  23.1622
 19.4983  23.1212
 19.5213  23.2142
 19.5443  23.2605
 19.5673  23.1744
 19.5903  23.1802
 19.6133  23.2811
 19.6363  23.3203
 19.6593  23.3684
 19.6823  23.561
 19.7053  23.9647
 19.7283  24.2812
 19.7513  24.23
 19.7742  23.9123
 19.7973  23.7433
 19.8203  23.882
 19.8433  24.1191
 19.8663  24.1776
 19.8893  24.0362
 19.9123  23.7925
 19.9353  23.5018
 19.9582  23.3296
 19.9813  23.2965
 20.0043  23.2286
 20.0272  23.2014
 20.0503  23.2897
 20.0733  23.262
 20.0963  23.2035
 20.1193  23.2386
 20.1423  23.2529
 20.1653  23.2688
 20.1883  23.2598
 20.2112  23.1855
 20.2343  23.1337
 20.2573  23.2063
 20.2803  23.3198
 20.3033  23.2975
 20.3263  23.2529
 20.3493  23.2249
 20.3723  23.2381
 20.3953  23.1622
 20.4183  23.2068
 20.4413  23.3021
 20.4643  23.3292
 20.4873  23.228
 20.5102  23.2038
 20.5333  23.2026
 20.5563  23.2915
 20.5792  23.3494
 20.6023  23.512
 20.6253  23.5209
 20.6483  23.5082
 20.6713  23.4787
 20.6943  23.504
 20.7173  23.7483
 20.7403  23.9686
 20.7632  24.017
 20.7863  23.9021
 20.8093  23.687
 20.8323  23.4989
 20.8553  23.4867
 20.8783  23.4585
 20.9013  23.4531
 20.9243  23.5217
 20.9473  23.4903
 20.9703  23.3912
 20.9933  23.4474
 21.0163  23.4363
 21.0393  23.4386
 21.0622  23.371
 21.0853  23.3972
 21.1083  23.4475
 21.1313  23.5851
 21.1543  23.4688
 21.1773  23.4608
 21.2003  23.4462
 21.2233  23.3961
 21.2462  23.444
 21.2693  23.5084
 21.2923  23.4757
 21.3152  23.5206
 21.3383  23.4975
 21.3613  23.5214
 21.3843  23.5829
 21.4073  23.6645
 21.4303  23.6
 21.4533  23.6216
 21.4763  23.6523
 21.4992  23.5981
 21.5223  23.6073
 21.5453  23.5851
 21.5683  23.5301
 21.5913  23.6542
 21.6142  23.7033
 21.6373  23.6846
 21.6603  23.7207
 21.6833  23.7143
 21.7063  23.6898
 21.7293  23.6941
 21.7523  23.7025
 21.7753  23.771
 21.7982  23.8138
 21.8213  23.7905
 21.8443  23.7789
 21.8672  23.7764
 21.8903  23.745
 21.9133  23.8007
 21.9363  23.7609
 21.9593  23.7927
 21.9823  23.7974
 22.0053  23.7169
 22.0283  23.7771
 22.0512  23.8334
 22.0743  23.855
 22.0973  23.8528
 22.1203  23.8553
 22.1433  23.8519
 22.1663  23.8725
 22.1893  23.8726
 22.2123  23.8491
 22.2353  23.8766
 22.2583  23.9291
 22.2813  23.9869
 22.3043  24.0729
 22.3273  24.1014
 22.3502  24.1262
 22.3733  24.2347
 22.3963  24.1848
 22.4193  24.045
 22.4423  24.1359
 22.4653  24.2507
 22.4883  24.2732
 22.5113  24.2832
 22.5343  24.2136
 22.5573  24.2979
 22.5803  24.3513
 22.6033  24.3937
 22.6263  24.4423
 22.6493  24.4721
 22.6723  24.4881
 22.6953  24.6524
 22.7183  24.6732
 22.7413  24.7598
 22.7643  24.7463
 22.7873  24.7651
 22.8103  24.8997
 22.8333  24.9549
 22.8563  25.0644
 22.8793  25.1816
 22.9022  25.2254
 22.9253  25.4581
 22.9483  25.5661
 22.9713  25.6333
 22.9943  25.7986