File: test-data-xrd/xrd-map-34-ID-E/Data_0081.chi
F:\20151113_APS_34IDE\\Brian\Particle1\OCV\Data_0081.tif
2-Theta Angle (Degrees)
Intensity
       2000
 0.01725  0.0000000E+00
 0.04025  0.0000000E+00
 0.06325  0.0000000E+00
 0.08625  0.0000000E+00
 0.10925  0.0000000E+00
 0.13225  0.0000000E+00
 0.15525  0.0000000E+00
 0.17825  0.0000000E+00
 0.20125  0.0000000E+00
 0.22425  0.0000000E+00
 0.24725  0.0000000E+00
 0.27025  0.0000000E+00
 0.29325  0.0000000E+00
 0.31625  0.0000000E+00
 0.33925  0.0000000E+00
 0.36225  0.0000000E+00
 0.38525  0.0000000E+00
 0.40825  0.0000000E+00
 0.43125  0.0000000E+00
 0.45425  0.0000000E+00
 0.47725  0.0000000E+00
 0.50025  0.0000000E+00
 0.52325  0.0000000E+00
 0.54625  0.0000000E+00
 0.56925  0.0000000E+00
 0.59225  0.0000000E+00
 0.61525  0.0000000E+00
 0.63825  0.0000000E+00
 0.66125  0.0000000E+00
 0.68425  0.0000000E+00
 0.70725  0.0000000E+00
 0.73025  0.0000000E+00
 0.75325  0.0000000E+00
 0.77625  0.0000000E+00
 0.79925  0.0000000E+00
 0.82225  0.0000000E+00
 0.84525  0.0000000E+00
 0.86825  0.0000000E+00
 0.89125  0.0000000E+00
 0.91425  0.0000000E+00
 0.93725  0.0000000E+00
 0.96025  0.0000000E+00
 0.98325  0.0000000E+00
 1.00625  0.0000000E+00
 1.02925  0.0000000E+00
 1.05225  0.0000000E+00
 1.07525  0.0000000E+00
 1.09825  0.0000000E+00
 1.12125  0.0000000E+00
 1.14425  0.0000000E+00
 1.16725  0.0000000E+00
 1.19025  0.0000000E+00
 1.21325  0.0000000E+00
 1.23625  0.0000000E+00
 1.25925  0.0000000E+00
 1.28225  0.0000000E+00
 1.30525  0.0000000E+00
 1.32825  0.0000000E+00
 1.35125  0.0000000E+00
 1.37425  0.0000000E+00
 1.39725  0.0000000E+00
 1.42025  0.0000000E+00
 1.44325  0.0000000E+00
 1.46625  0.0000000E+00
 1.48925  0.0000000E+00
 1.51225  0.0000000E+00
 1.53525  0.0000000E+00
 1.55825  0.0000000E+00
 1.58125  0.0000000E+00
 1.60425  0.0000000E+00
 1.62725  0.0000000E+00
 1.65025  0.0000000E+00
 1.67325  0.0000000E+00
 1.69625  0.0000000E+00
 1.71925  0.0000000E+00
 1.74225  0.0000000E+00
 1.76525  0.0000000E+00
 1.78825  0.0000000E+00
 1.81125  0.0000000E+00
 1.83425  0.0000000E+00
 1.85725  0.0000000E+00
 1.88025  0.0000000E+00
 1.90325  0.0000000E+00
 1.92625  0.0000000E+00
 1.94925  0.0000000E+00
 1.97225  0.0000000E+00
 1.99525  0.0000000E+00
 2.01825  0.0000000E+00
 2.04125  0.0000000E+00
 2.06425  0.0000000E+00
 2.08725  0.0000000E+00
 2.11025  0.0000000E+00
 2.13325  0.0000000E+00
 2.15625  0.0000000E+00
 2.17925  0.0000000E+00
 2.20225  0.0000000E+00
 2.22525  0.0000000E+00
 2.24825  0.0000000E+00
 2.27125  0.0000000E+00
 2.29425  0.0000000E+00
 2.31725  0.0000000E+00
 2.34025  0.0000000E+00
 2.36325  0.0000000E+00
 2.38625  0.0000000E+00
 2.40925  0.0000000E+00
 2.43225  0.0000000E+00
 2.45525  0.0000000E+00
 2.47825  0.0000000E+00
 2.50125  0.0000000E+00
 2.52425  0.0000000E+00
 2.54725  0.0000000E+00
 2.57025  0.0000000E+00
 2.59325  0.0000000E+00
 2.61625  0.0000000E+00
 2.63925  0.0000000E+00
 2.66225  0.0000000E+00
 2.68525  0.0000000E+00
 2.70825  0.0000000E+00
 2.73125  0.0000000E+00
 2.75425  0.0000000E+00
 2.77725  0.0000000E+00
 2.80025  0.0000000E+00
 2.82325  32.2441
 2.84625  32.9292
 2.86925  33.2589
 2.89225  34.2785
 2.91525  34.3708
 2.93825  34.353
 2.96125  34.6833
 2.98425  34.8406
 3.00725  35.5888
 3.03025  36.2541
 3.05325  35.5174
 3.07625  34.6934
 3.09925  34.2536
 3.12225  33.773
 3.14525  34.5171
 3.16825  34.8357
 3.19125  35.0403
 3.21425  34.4738
 3.23725  34.0951
 3.26025  33.6211
 3.28325  33.7386
 3.30625  33.8237
 3.32925  34.0186
 3.35225  33.2841
 3.37525  33.4381
 3.39825  33.5083
 3.42125  33.7185
 3.44425  33.9236
 3.46725  34.229
 3.49025  34.0024
 3.51325  33.6094
 3.53625  33.3768
 3.55925  33.0024
 3.58225  32.7184
 3.60525  32.8643
 3.62825  33.2583
 3.65125  33.0823
 3.67425  32.8189
 3.69725  32.7835
 3.72025  32.7649
 3.74325  33.0257
 3.76625  32.9454
 3.78925  32.7674
 3.81225  32.3274
 3.83525  32.0409
 3.85825  31.982
 3.88125  32.2748
 3.90425  32.4829
 3.92725  32.675
 3.95025  32.5193
 3.97325  32.1801
 3.99625  31.8483
 4.01925  31.616
 4.04225  31.7117
 4.06525  31.9832
 4.08825  32.0661
 4.11125  31.9602
 4.13425  31.5946
 4.15725  31.6723
 4.18025  31.4985
 4.20325  31.286
 4.22625  31.3779
 4.24925  31.2516
 4.27225  31.3678
 4.29525  31.277
 4.31825  31.4755
 4.34125  31.8322
 4.36425  31.9042
 4.38725  32.1303
 4.41025  32.145
 4.43325  32.0642
 4.45625  32.1839
 4.47925  32.3539
 4.50225  32.3554
 4.52525  32.5615
 4.54825  32.7201
 4.57125  32.3994
 4.59425  32.338
 4.61725  32.2719
 4.64025  32.4868
 4.66325  32.6121
 4.68625  32.7745
 4.70925  32.6486
 4.73225  32.4328
 4.75525  32.3362
 4.77825  32.3112
 4.80125  32.2811
 4.82425  32.1033
 4.84725  32.2164
 4.87025  32.4524
 4.89325  32.6726
 4.91625  32.6219
 4.93925  32.5403
 4.96225  32.7669
 4.98525  32.8759
 5.00825  33.1863
 5.03125  33.2602
 5.05425  33.2375
 5.07725  33.3013
 5.10025  33.5439
 5.12325  33.7229
 5.14625  33.8225
 5.16925  33.7647
 5.19225  33.8467
 5.21525  33.8245
 5.23825  33.897
 5.26125  33.8429
 5.28425  33.872
 5.30725  34.0988
 5.33025  34.3225
 5.35325  34.2863
 5.37625  34.3356
 5.39925  34.4487
 5.42225  34.4412
 5.44525  34.3556
 5.46825  34.4053
 5.49125  34.3675
 5.51425  34.5733
 5.53725  34.8973
 5.56025  34.8802
 5.58325  34.8555
 5.60625  35.1328
 5.62925  35.4583
 5.65225  35.4477
 5.67525  35.797
 5.69825  36.031
 5.72125  36.0272
 5.74425  36.1744
 5.76725  36.3016
 5.79025  36.4669
 5.81325  36.784
 5.83625  37.356
 5.85925  37.9772
 5.88225  39.4016
 5.90525  43.4118
 5.92825  57.0054
 5.95125  85.3846
 5.97425  111.479
 5.99725  113.75
 6.02025  91.7996
 6.04325  63.1951
 6.06625  48.1209
 6.08925  40.8549
 6.11225  39.3621
 6.13525  38.6492
 6.15825  38.1869
 6.18125  37.7072
 6.20425  37.4189
 6.22725  37.5167
 6.25025  37.6523
 6.27325  37.7949
 6.29625  37.836
 6.31925  37.8267
 6.34225  38.1825
 6.36525  38.3879
 6.38825  38.5692
 6.41125  38.5914
 6.43425  38.5103
 6.45725  38.4704
 6.48025  38.6547
 6.50325  38.7826
 6.52625  38.9817
 6.54925  39.1205
 6.57225  39.3611
 6.59525  39.4728
 6.61825  39.5841
 6.64125  39.8441
 6.66425  40.0257
 6.68725  39.8801
 6.71025  39.9072
 6.73325  40.222
 6.75625  40.5054
 6.77925  40.7151
 6.80225  40.939
 6.82525  41.279
 6.84825  41.3472
 6.87125  41.3789
 6.89425  41.5811
 6.91725  41.7153
 6.94025  41.8934
 6.96325  41.9438
 6.98625  42.121
 7.00925  42.1504
 7.03225  42.3212
 7.05525  42.6521
 7.07825  42.6629
 7.10125  42.7155
 7.12425  43.0876
 7.14725  43.3651
 7.17025  43.3931
 7.19325  43.468
 7.21625  43.3316
 7.23925  43.2218
 7.26225  43.0877
 7.28525  43.1298
 7.30825  43.4231
 7.33125  43.7003
 7.35425  43.7293
 7.37725  43.6928
 7.40025  43.7234
 7.42325  43.7804
 7.44625  43.8024
 7.46925  43.6953
 7.49225  43.7694
 7.51525  43.9999
 7.53825  43.953
 7.56125  43.7865
 7.58425  43.97
 7.60725  44.0534
 7.63025  44.1496
 7.65325  44.223
 7.67625  44.1937
 7.69925  44.0756
 7.72225  44.0812
 7.74525  43.9666
 7.76825  43.5625
 7.79125  43.6565
 7.81425  44.0169
 7.83725  44.2784
 7.86025  44.1272
 7.88325  43.6365
 7.90625  43.3524
 7.92925  43.3047
 7.95225  43.2687
 7.97525  43.4089
 7.99825  43.391
 8.02125  43.0537
 8.04425  42.7565
 8.06725  42.6553
 8.09025  42.57
 8.11325  42.563
 8.13625  42.2766
 8.15925  42.0604
 8.18225  41.8393
 8.20525  41.7405
 8.22825  41.607
 8.25125  41.2822
 8.27425  41.0986
 8.29725  40.7882
 8.32025  40.3109
 8.34325  39.7746
 8.36625  39.4644
 8.38925  39.1703
 8.41225  38.8381
 8.43525  38.4847
 8.45825  38.2515
 8.48125  38.1068
 8.50425  37.9225
 8.52725  37.5515
 8.55025  36.8865
 8.57325  36.3099
 8.59625  36.025
 8.61925  35.8302
 8.64225  35.5414
 8.66525  35.1498
 8.68825  34.9265
 8.71125  34.6647
 8.73425  34.2947
 8.75725  33.7871
 8.78025  33.5316
 8.80325  33.3565
 8.82625  33.2506
 8.84925  32.9028
 8.87225  32.547
 8.89525  32.0714
 8.91825  31.6527
 8.94125  31.3304
 8.96425  31.0208
 8.98725  30.8291
 9.01025  30.5086
 9.03325  30.2295
 9.05625  29.9575
 9.07925  29.8584
 9.10225  29.6391
 9.12525  29.3381
 9.14825  29.1178
 9.17125  28.8904
 9.19425  28.543
 9.21725  28.2627
 9.24025  28.087
 9.26325  27.981
 9.28625  27.6679
 9.30925  27.4528
 9.33225  27.3521
 9.35525  27.2237
 9.37825  27.1458
 9.40125  26.9281
 9.42425  26.792
 9.44725  26.6242
 9.47025  26.4634
 9.49325  26.3223
 9.51625  26.1678
 9.53925  25.9505
 9.56225  25.7787
 9.58525  25.5577
 9.60825  25.5495
 9.63125  25.5579
 9.65425  25.4262
 9.67725  25.2455
 9.70025  25.1432
 9.72325  25.1816
 9.74625  25.1669
 9.76925  25.0948
 9.79225  25.1045
 9.81525  24.9745
 9.83825  24.842
 9.86125  24.6819
 9.88425  24.6425
 9.90725  24.6865
 9.93025  24.5761
 9.95325  24.3593
 9.97625  24.2849
 9.99925  24.2249
 10.0222  24.1543
 10.0453  24.1146
 10.0683  24.2033
 10.0913  24.1393
 10.1143  23.9981
 10.1373  23.964
 10.1603  23.9156
 10.1832  23.8223
 10.2063  23.6953
 10.2293  23.7159
 10.2523  23.6923
 10.2752  23.6737
 10.2982  23.6931
 10.3213  23.6313
 10.3443  23.5832
 10.3673  23.5317
 10.3902  23.5179
 10.4133  23.5963
 10.4363  23.4412
 10.4593  23.309
 10.4823  23.2841
 10.5053  23.2411
 10.5283  23.2166
 10.5512  23.1514
 10.5742  23.0885
 10.5973  23.0151
 10.6203  23.0395
 10.6433  23.1552
 10.6662  23.2671
 10.6893  23.1608
 10.7123  23.1506
 10.7353  23.0966
 10.7583  22.9248
 10.7813  22.8637
 10.8043  22.8286
 10.8272  22.7774
 10.8503  22.8322
 10.8733  22.7629
 10.8963  22.7037
 10.9192  22.7656
 10.9422  22.7047
 10.9653  22.641
 10.9883  22.6652
 11.0113  22.6897
 11.0343  22.6738
 11.0573  22.4946
 11.0803  22.5014
 11.1033  22.501
 11.1263  22.5344
 11.1493  22.5063
 11.1723  22.5573
 11.1953  22.5143
 11.2182  22.4596
 11.2413  22.4201
 11.2643  22.3106
 11.2873  22.2752
 11.3102  22.4738
 11.3333  22.61
 11.3563  22.54
 11.3793  22.6378
 11.4023  22.7796
 11.4253  22.7939
 11.4483  22.8057
 11.4713  22.8806
 11.4942  23.0324
 11.5173  23.5595
 11.5403  25.0453
 11.5633  27.9762
 11.5862  32.4459
 11.6093  33.4654
 11.6323  30.1528
 11.6553  25.8462
 11.6783  23.783
 11.7013  23.0697
 11.7243  22.828
 11.7473  22.6646
 11.7703  22.5571
 11.7933  22.5501
 11.8163  22.5965
 11.8393  22.6261
 11.8622  22.5989
 11.8853  22.6342
 11.9083  22.7756
 11.9313  23.0938
 11.9543  23.6758
 11.9773  24.2507
 12.0003  24.4383
 12.0233  24.1447
 12.0463  24.0797
 12.0693  25.2131
 12.0923  27.4725
 12.1153  28.4915
 12.1382  27.3141
 12.1613  25.1052
 12.1843  23.6018
 12.2073  22.9181
 12.2302  22.6091
 12.2533  22.4943
 12.2763  22.4983
 12.2993  22.5271
 12.3223  22.6041
 12.3453  22.5933
 12.3683  22.6746
 12.3913  22.7184
 12.4142  22.6841
 12.4373  22.6376
 12.4603  22.6678
 12.4833  22.7052
 12.5062  22.6209
 12.5292  22.6967
 12.5523  22.8098
 12.5753  22.7785
 12.5983  22.8128
 12.6212  22.8975
 12.6443  22.936
 12.6673  22.9855
 12.6903  22.8915
 12.7133  22.9529
 12.7363  23.1047
 12.7593  23.1327
 12.7822  23.0873
 12.8052  23.1787
 12.8283  23.2821
 12.8513  23.3408
 12.8742  23.3717
 12.8972  23.392
 12.9203  23.6379
 12.9433  23.7589
 12.9663  23.8355
 12.9893  23.9446
 13.0123  24.0306
 13.0353  24.1952
 13.0582  24.326
 13.0813  24.4066
 13.1043  24.6658
 13.1273  24.9748
 13.1502  25.1407
 13.1732  25.3474
 13.1963  25.6036
 13.2193  25.9024
 13.2423  26.2333
 13.2652  26.4083
 13.2883  26.666
 13.3113  26.8714
 13.3343  27.2272
 13.3573  27.5338
 13.3803  27.8062
 13.4033  28.0415
 13.4262  28.2417
 13.4492  28.5386
 13.4723  28.7982
 13.4953  29.1406
 13.5183  29.3297
 13.5412  29.4362
 13.5643  29.5337
 13.5873  29.6973
 13.6103  29.8394
 13.6333  29.9475
 13.6563  29.8388
 13.6793  29.8357
 13.7022  29.7345
 13.7253  29.6466
 13.7483  29.6032
 13.7713  29.5706
 13.7942  29.6393
 13.8172  29.6746
 13.8403  29.8975
 13.8633  30.2545
 13.8863  31.4708
 13.9093  34.7624
 13.9323  39.9231
 13.9553  44.381
 13.9783  45.108
 14.0013  40.2011
 14.0243  34.09
 14.0473  30.3942
 14.0703  28.6467
 14.0932  27.9453
 14.1163  27.6709
 14.1393  27.4431
 14.1623  27.2644
 14.1852  27.1113
 14.2083  26.8769
 14.2313  26.5786
 14.2543  26.546
 14.2773  26.5222
 14.3003  26.4997
 14.3233  26.4495
 14.3463  26.3188
 14.3692  26.2276
 14.3923  26.0644
 14.4153  25.9594
 14.4383  25.8696
 14.4612  25.7198
 14.4843  25.6511
 14.5073  25.6235
 14.5303  25.5236
 14.5533  25.4319
 14.5763  25.4343
 14.5993  25.4555
 14.6223  25.4062
 14.6453  25.3394
 14.6683  25.3568
 14.6913  25.3503
 14.7143  25.4117
 14.7372  25.3742
 14.7603  25.1857
 14.7833  25.0938
 14.8063  25.0723
 14.8293  25.0927
 14.8523  25.1553
 14.8753  24.9757
 14.8983  25.0429
 14.9213  25.0596
 14.9443  24.9906
 14.9673  24.8801
 14.9903  24.8711
 15.0132  24.967
 15.0363  25.0555
 15.0593  25.0467
 15.0823  25.0291
 15.1052  25.1903
 15.1283  25.6998
 15.1513  26.9322
 15.1743  28.8527
 15.1973  30.5322
 15.2203  30.5795
 15.2433  28.8421
 15.2663  26.5559
 15.2892  25.3577
 15.3123  25.0442
 15.3353  24.9016
 15.3583  24.8877
 15.3812  24.7864
 15.4043  24.7345
 15.4273  24.6754
 15.4503  24.578
 15.4733  24.63
 15.4963  24.7372
 15.5193  24.6956
 15.5423  24.6859
 15.5653  24.7092
 15.5883  24.6392
 15.6113  24.5509
 15.6343  24.5049
 15.6572  24.4691
 15.6803  24.529
 15.7033  24.6481
 15.7263  24.6831
 15.7492  24.6422
 15.7723  24.6631
 15.7953  24.572
 15.8183  24.6015
 15.8413  24.6021
 15.8643  24.5935
 15.8873  24.6027
 15.9103  24.618
 15.9332  24.6449
 15.9563  24.6421
 15.9793  24.5257
 16.0023  24.4413
 16.0253  24.4243
 16.0482  24.5999
 16.0713  24.6858
 16.0943  24.7288
 16.1172  24.768
 16.1403  24.7724
 16.1633  24.8885
 16.1863  25.0347
 16.2093  25.3899
 16.2323  26.0123
 16.2553  26.4302
 16.2783  26.2429
 16.3012  25.5302
 16.3243  25.0526
 16.3472  24.8583
 16.3703  24.7305
 16.3933  24.7369
 16.4163  24.8781
 16.4393  24.93
 16.4623  24.868
 16.4853  24.8208
 16.5083  24.8436
 16.5312  24.7655
 16.5543  24.6952
 16.5773  24.6524
 16.6002  24.6566
 16.6233  24.6472
 16.6463  24.5608
 16.6693  24.4728
 16.6923  24.5774
 16.7153  24.5826
 16.7383  24.6274
 16.7613  24.6476
 16.7843  24.5594
 16.8073  24.5238
 16.8303  24.5096
 16.8533  24.4488
 16.8763  24.4139
 16.8992  24.3911
 16.9223  24.3238
 16.9453  24.3249
 16.9683  24.2935
 16.9913  24.3554
 17.0143  24.3782
 17.0373  24.3733
 17.0603  24.2327
 17.0832  24.254
 17.1063  24.2927
 17.1293  24.2839
 17.1522  24.3742
 17.1753  24.3586
 17.1983  24.3614
 17.2213  24.2596
 17.2443  24.1674
 17.2673  24.1221
 17.2903  24.1145
 17.3133  24.2459
 17.3362  24.2832
 17.3593  24.1518
 17.3823  24.0271
 17.4053  23.9167
 17.4283  23.9032
 17.4513  24.0394
 17.4743  24.1794
 17.4973  24.1889
 17.5203  24.0353
 17.5433  23.9642
 17.5663  23.8814
 17.5893  23.8543
 17.6123  23.9304
 17.6352  23.9101
 17.6583  23.8204
 17.6813  23.8143
 17.7042  23.8693
 17.7273  23.8926
 17.7503  23.8075
 17.7733  23.7831
 17.7963  23.9158
 17.8193  23.9309
 17.8423  23.8709
 17.8653  23.9014
 17.8882  23.9737
 17.9113  24.0409
 17.9343  24.0706
 17.9573  24.2095
 17.9803  24.5173
 18.0033  24.9539
 18.0263  25.6046
 18.0493  26.5544
 18.0723  27.8351
 18.0953  28.7655
 18.1183  28.305
 18.1413  26.9831
 18.1643  25.6866
 18.1872  24.7674
 18.2103  24.2234
 18.2333  23.9588
 18.2563  23.8932
 18.2793  23.8634
 18.3023  23.8961
 18.3253  23.8124
 18.3483  23.7799
 18.3712  23.7722
 18.3943  23.7416
 18.4173  23.7684
 18.4402  23.7456
 18.4633  23.7213
 18.4863  23.703
 18.5093  23.7391
 18.5323  23.6348
 18.5553  23.5567
 18.5783  23.568
 18.6013  23.669
 18.6242  23.6665
 18.6473  23.6556
 18.6703  23.6431
 18.6933  23.6338
 18.7163  23.5012
 18.7392  23.5173
 18.7623  23.5505
 18.7853  23.5565
 18.8083  23.5383
 18.8313  23.5633
 18.8543  23.5596
 18.8773  23.5877
 18.9003  23.6213
 18.9232  23.68
 18.9463  23.7629
 18.9693  23.627
 18.9922  23.5466
 19.0153  23.6512
 19.0383  23.6943
 19.0613  23.7395
 19.0843  23.7649
 19.1073  23.7033
 19.1303  23.6593
 19.1533  23.6782
 19.1762  23.6301
 19.1993  23.6081
 19.2223  23.6469
 19.2453  23.7197
 19.2683  23.7455
 19.2913  23.6515
 19.3143  23.6442
 19.3373  23.5979
 19.3603  23.6815
 19.3833  23.7597
 19.4062  23.8157
 19.4293  23.9444
 19.4523  24.0401
 19.4752  23.9943
 19.4983  23.9074
 19.5213  23.9147
 19.5443  24.0691
 19.5673  24.1592
 19.5903  24.3322
 19.6133  24.5171
 19.6363  25.0338
 19.6593  26.1414
 19.6823  28.2705
 19.7053  30.935
 19.7283  32.2103
 19.7513  30.3818
 19.7742  28.4286
 19.7973  28.3674
 19.8203  29.7888
 19.8433  33.8382
 19.8663  37.0502
 19.8893  33.6417
 19.9123  29.7076
 19.9353  26.4261
 19.9582  25.0613
 19.9813  24.6353
 20.0043  24.4471
 20.0272  24.3483
 20.0503  24.3238
 20.0733  24.2107
 20.0963  24.1163
 20.1193  24.0518
 20.1423  23.9524
 20.1653  23.9173
 20.1883  23.986
 20.2112  24.0118
 20.2343  24.0568
 20.2573  23.9954
 20.2803  23.9173
 20.3033  23.8376
 20.3263  23.827
 20.3493  23.921
 20.3723  24.0043
 20.3953  24.0457
 20.4183  23.9616
 20.4413  23.8405
 20.4643  23.8288
 20.4873  23.8311
 20.5102  23.8089
 20.5333  23.7599
 20.5563  23.7899
 20.5792  23.8635
 20.6023  24.0837
 20.6253  24.1917
 20.6483  24.1901
 20.6713  24.4259
 20.6943  24.9961
 20.7173  26.1454
 20.7403  27.727
 20.7632  29.282
 20.7863  29.48
 20.8093  28.0469
 20.8323  25.7191
 20.8553  24.7102
 20.8783  24.3766
 20.9013  24.2936
 20.9243  24.2443
 20.9473  24.1365
 20.9703  24.0788
 20.9933  24.0633
 21.0163  24.0534
 21.0393  23.9993
 21.0622  24.0163
 21.0853  24.082
 21.1083  24.0392
 21.1313  24.061
 21.1543  23.928
 21.1773  23.9639
 21.2003  24.0239
 21.2233  23.9841
 21.2462  23.9533
 21.2693  23.9771
 21.2923  24.0058
 21.3152  24.0691
 21.3383  24.0648
 21.3613  23.995
 21.3843  23.9081
 21.4073  23.875
 21.4303  24.0018
 21.4533  24.0825
 21.4763  24.0934
 21.4992  24.0959
 21.5223  24.0722
 21.5453  24.0644
 21.5683  24.0044
 21.5913  24.1413
 21.6142  24.2123
 21.6373  24.1956
 21.6603  24.2087
 21.6833  24.2177
 21.7063  24.2792
 21.7293  24.4575
 21.7523  24.4004
 21.7753  24.362
 21.7982  24.3233
 21.8213  24.2734
 21.8443  24.2246
 21.8672  24.2255
 21.8903  24.2096
 21.9133  24.1921
 21.9363  24.2334
 21.9593  24.318
 21.9823  24.3198
 22.0053  24.3137
 22.0283  24.3193
 22.0512  24.3078
 22.0743  24.3241
 22.0973  24.2726
 22.1203  24.3197
 22.1433  24.3123
 22.1663  24.2962
 22.1893  24.2938
 22.2123  24.3809
 22.2353  24.7547
 22.2583  24.9827
 22.2813  24.7443
 22.3043  24.6822
 22.3273  24.8359
 22.3502  24.8741
 22.3733  24.7209
 22.3963  24.704
 22.4193  24.6988
 22.4423  24.7267
 22.4653  24.7674
 22.4883  24.6672
 22.5113  24.7022
 22.5343  24.811
 22.5573  24.9292
 22.5803  24.8929
 22.6033  24.9234
 22.6263  25.0041
 22.6493  24.9943
 22.6723  25.0809
 22.6953  25.1656
 22.7183  25.2116
 22.7413  25.321
 22.7643  25.4241
 22.7873  25.4537
 22.8103  25.4462
 22.8333  25.5455
 22.8563  25.6228
 22.8793  25.7582
 22.9022  25.9179
 22.9253  26.0055
 22.9483  26.0644
 22.9713  26.1282
 22.9943  26.3495