File: test-data-xrd/xrd-map-34-ID-E/Data_0064.chi
F:\20151113_APS_34IDE\\Brian\Particle1\OCV\Data_0064.tif
2-Theta Angle (Degrees)
Intensity
       2000
 0.01725  0.0000000E+00
 0.04025  0.0000000E+00
 0.06325  0.0000000E+00
 0.08625  0.0000000E+00
 0.10925  0.0000000E+00
 0.13225  0.0000000E+00
 0.15525  0.0000000E+00
 0.17825  0.0000000E+00
 0.20125  0.0000000E+00
 0.22425  0.0000000E+00
 0.24725  0.0000000E+00
 0.27025  0.0000000E+00
 0.29325  0.0000000E+00
 0.31625  0.0000000E+00
 0.33925  0.0000000E+00
 0.36225  0.0000000E+00
 0.38525  0.0000000E+00
 0.40825  0.0000000E+00
 0.43125  0.0000000E+00
 0.45425  0.0000000E+00
 0.47725  0.0000000E+00
 0.50025  0.0000000E+00
 0.52325  0.0000000E+00
 0.54625  0.0000000E+00
 0.56925  0.0000000E+00
 0.59225  0.0000000E+00
 0.61525  0.0000000E+00
 0.63825  0.0000000E+00
 0.66125  0.0000000E+00
 0.68425  0.0000000E+00
 0.70725  0.0000000E+00
 0.73025  0.0000000E+00
 0.75325  0.0000000E+00
 0.77625  0.0000000E+00
 0.79925  0.0000000E+00
 0.82225  0.0000000E+00
 0.84525  0.0000000E+00
 0.86825  0.0000000E+00
 0.89125  0.0000000E+00
 0.91425  0.0000000E+00
 0.93725  0.0000000E+00
 0.96025  0.0000000E+00
 0.98325  0.0000000E+00
 1.00625  0.0000000E+00
 1.02925  0.0000000E+00
 1.05225  0.0000000E+00
 1.07525  0.0000000E+00
 1.09825  0.0000000E+00
 1.12125  0.0000000E+00
 1.14425  0.0000000E+00
 1.16725  0.0000000E+00
 1.19025  0.0000000E+00
 1.21325  0.0000000E+00
 1.23625  0.0000000E+00
 1.25925  0.0000000E+00
 1.28225  0.0000000E+00
 1.30525  0.0000000E+00
 1.32825  0.0000000E+00
 1.35125  0.0000000E+00
 1.37425  0.0000000E+00
 1.39725  0.0000000E+00
 1.42025  0.0000000E+00
 1.44325  0.0000000E+00
 1.46625  0.0000000E+00
 1.48925  0.0000000E+00
 1.51225  0.0000000E+00
 1.53525  0.0000000E+00
 1.55825  0.0000000E+00
 1.58125  0.0000000E+00
 1.60425  0.0000000E+00
 1.62725  0.0000000E+00
 1.65025  0.0000000E+00
 1.67325  0.0000000E+00
 1.69625  0.0000000E+00
 1.71925  0.0000000E+00
 1.74225  0.0000000E+00
 1.76525  0.0000000E+00
 1.78825  0.0000000E+00
 1.81125  0.0000000E+00
 1.83425  0.0000000E+00
 1.85725  0.0000000E+00
 1.88025  0.0000000E+00
 1.90325  0.0000000E+00
 1.92625  0.0000000E+00
 1.94925  0.0000000E+00
 1.97225  0.0000000E+00
 1.99525  0.0000000E+00
 2.01825  0.0000000E+00
 2.04125  0.0000000E+00
 2.06425  0.0000000E+00
 2.08725  0.0000000E+00
 2.11025  0.0000000E+00
 2.13325  0.0000000E+00
 2.15625  0.0000000E+00
 2.17925  0.0000000E+00
 2.20225  0.0000000E+00
 2.22525  0.0000000E+00
 2.24825  0.0000000E+00
 2.27125  0.0000000E+00
 2.29425  0.0000000E+00
 2.31725  0.0000000E+00
 2.34025  0.0000000E+00
 2.36325  0.0000000E+00
 2.38625  0.0000000E+00
 2.40925  0.0000000E+00
 2.43225  0.0000000E+00
 2.45525  0.0000000E+00
 2.47825  0.0000000E+00
 2.50125  0.0000000E+00
 2.52425  0.0000000E+00
 2.54725  0.0000000E+00
 2.57025  0.0000000E+00
 2.59325  0.0000000E+00
 2.61625  0.0000000E+00
 2.63925  0.0000000E+00
 2.66225  0.0000000E+00
 2.68525  0.0000000E+00
 2.70825  0.0000000E+00
 2.73125  0.0000000E+00
 2.75425  0.0000000E+00
 2.77725  0.0000000E+00
 2.80025  0.0000000E+00
 2.82325  34.6218
 2.84625  34.8862
 2.86925  35.5919
 2.89225  36.1241
 2.91525  35.9448
 2.93825  35.7201
 2.96125  35.226
 2.98425  35.5014
 3.00725  36.6836
 3.03025  36.7453
 3.05325  36.0207
 3.07625  34.7047
 3.09925  34.395
 3.12225  34.9426
 3.14525  35.6191
 3.16825  35.5736
 3.19125  34.7509
 3.21425  34.3128
 3.23725  34.415
 3.26025  34.4357
 3.28325  33.8223
 3.30625  33.3878
 3.32925  33.3312
 3.35225  33.7797
 3.37525  33.2251
 3.39825  32.4728
 3.42125  32.6836
 3.44425  33.2457
 3.46725  33.7202
 3.49025  33.9771
 3.51325  33.6501
 3.53625  33.4724
 3.55925  33.5629
 3.58225  33.4842
 3.60525  33.2426
 3.62825  32.8944
 3.65125  32.8887
 3.67425  32.5934
 3.69725  32.6223
 3.72025  32.5795
 3.74325  32.6586
 3.76625  32.7749
 3.78925  32.7637
 3.81225  32.3601
 3.83525  31.9313
 3.85825  31.9073
 3.88125  32.2093
 3.90425  32.1545
 3.92725  31.8929
 3.95025  31.9938
 3.97325  32.3398
 3.99625  32.3233
 4.01925  32.3457
 4.04225  32.0346
 4.06525  31.669
 4.08825  31.5041
 4.11125  31.5808
 4.13425  31.6831
 4.15725  31.6398
 4.18025  31.611
 4.20325  31.662
 4.22625  31.6975
 4.24925  31.7456
 4.27225  31.8066
 4.29525  31.8598
 4.31825  31.7778
 4.34125  31.7843
 4.36425  31.9545
 4.38725  32.3549
 4.41025  32.4669
 4.43325  32.3397
 4.45625  32.1082
 4.47925  32.1613
 4.50225  32.1682
 4.52525  32.2956
 4.54825  32.1178
 4.57125  31.7482
 4.59425  31.5501
 4.61725  31.8353
 4.64025  32.1168
 4.66325  32.2704
 4.68625  31.9982
 4.70925  31.7233
 4.73225  31.8324
 4.75525  31.819
 4.77825  31.9784
 4.80125  32.0309
 4.82425  32.0027
 4.84725  32.1528
 4.87025  32.1556
 4.89325  32.1011
 4.91625  32.2599
 4.93925  32.311
 4.96225  32.2501
 4.98525  32.3637
 5.00825  32.5997
 5.03125  32.8248
 5.05425  32.6125
 5.07725  32.5322
 5.10025  32.8177
 5.12325  32.9578
 5.14625  33.1907
 5.16925  33.2507
 5.19225  33.399
 5.21525  33.4719
 5.23825  33.4256
 5.26125  33.3717
 5.28425  33.3103
 5.30725  33.4455
 5.33025  33.4576
 5.35325  33.5022
 5.37625  33.5167
 5.39925  33.7736
 5.42225  33.7814
 5.44525  33.8045
 5.46825  34.1223
 5.49125  34.2258
 5.51425  34.1317
 5.53725  34.2499
 5.56025  34.4824
 5.58325  34.5742
 5.60625  34.4627
 5.62925  34.3548
 5.65225  34.4202
 5.67525  34.7389
 5.69825  34.7139
 5.72125  34.6778
 5.74425  34.5909
 5.76725  34.6451
 5.79025  34.8461
 5.81325  35.2161
 5.83625  35.6399
 5.85925  35.8065
 5.88225  35.7313
 5.90525  36.3061
 5.92825  37.3484
 5.95125  40.381
 5.97425  44.1044
 5.99725  45.8494
 6.02025  42.7563
 6.04325  39.3044
 6.06625  37.2299
 6.08925  36.4189
 6.11225  36.1111
 6.13525  36.2217
 6.15825  36.2186
 6.18125  36.3507
 6.20425  36.3966
 6.22725  36.7309
 6.25025  36.8205
 6.27325  36.8754
 6.29625  36.9189
 6.31925  36.888
 6.34225  37.1056
 6.36525  37.3028
 6.38825  37.648
 6.41125  37.5959
 6.43425  37.4761
 6.45725  37.6198
 6.48025  37.9083
 6.50325  38.2282
 6.52625  38.3002
 6.54925  38.4061
 6.57225  38.7133
 6.59525  39.0393
 6.61825  39.1498
 6.64125  39.3428
 6.66425  39.4555
 6.68725  39.6183
 6.71025  39.7807
 6.73325  39.961
 6.75625  39.9939
 6.77925  40.1627
 6.80225  40.338
 6.82525  40.5495
 6.84825  40.7404
 6.87125  40.8675
 6.89425  40.8375
 6.91725  40.9388
 6.94025  41.0823
 6.96325  41.1731
 6.98625  41.304
 7.00925  41.4343
 7.03225  41.639
 7.05525  41.847
 7.07825  41.8481
 7.10125  42.0516
 7.12425  42.2213
 7.14725  42.2311
 7.17025  42.4897
 7.19325  42.8018
 7.21625  42.928
 7.23925  43.014
 7.26225  43.0134
 7.28525  42.9886
 7.30825  42.9296
 7.33125  43.0184
 7.35425  43.0573
 7.37725  43.2258
 7.40025  43.3484
 7.42325  43.527
 7.44625  43.5611
 7.46925  43.6574
 7.49225  43.7178
 7.51525  43.7591
 7.53825  43.8082
 7.56125  43.7489
 7.58425  43.7823
 7.60725  43.6753
 7.63025  43.4921
 7.65325  43.3301
 7.67625  43.2234
 7.69925  43.1316
 7.72225  43.3067
 7.74525  43.4414
 7.76825  43.5354
 7.79125  43.5876
 7.81425  43.5703
 7.83725  43.5654
 7.86025  43.5599
 7.88325  43.1936
 7.90625  43.1851
 7.92925  43.2365
 7.95225  43.1139
 7.97525  42.9835
 7.99825  42.9034
 8.02125  42.7451
 8.04425  42.5502
 8.06725  42.3029
 8.09025  42.0898
 8.11325  42.1119
 8.13625  41.8947
 8.15925  41.6921
 8.18225  41.5467
 8.20525  41.3064
 8.22825  40.9902
 8.25125  40.7389
 8.27425  40.5435
 8.29725  40.3287
 8.32025  39.9595
 8.34325  39.5623
 8.36625  39.3511
 8.38925  39.1199
 8.41225  38.7125
 8.43525  38.1095
 8.45825  37.7287
 8.48125  37.5873
 8.50425  37.4343
 8.52725  37.0529
 8.55025  36.5217
 8.57325  36.1767
 8.59625  35.7494
 8.61925  35.4464
 8.64225  35.1238
 8.66525  34.7278
 8.68825  34.3921
 8.71125  34.0106
 8.73425  33.675
 8.75725  33.4201
 8.78025  33.1649
 8.80325  32.8994
 8.82625  32.6636
 8.84925  32.406
 8.87225  32.1311
 8.89525  31.8001
 8.91825  31.3876
 8.94125  30.9758
 8.96425  30.6728
 8.98725  30.4579
 9.01025  30.2985
 9.03325  30.0915
 9.05625  29.7314
 9.07925  29.4674
 9.10225  29.0897
 9.12525  28.9043
 9.14825  28.808
 9.17125  28.5425
 9.19425  28.2389
 9.21725  28.1844
 9.24025  28.0081
 9.26325  27.6874
 9.28625  27.4433
 9.30925  27.2264
 9.33225  27.0897
 9.35525  26.8737
 9.37825  26.7875
 9.40125  26.6796
 9.42425  26.4926
 9.44725  26.2179
 9.47025  26.1241
 9.49325  26.0111
 9.51625  25.8591
 9.53925  25.7359
 9.56225  25.5549
 9.58525  25.4387
 9.60825  25.402
 9.63125  25.3911
 9.65425  25.2775
 9.67725  25.0154
 9.70025  24.8715
 9.72325  24.8682
 9.74625  24.7688
 9.76925  24.6969
 9.79225  24.59
 9.81525  24.4383
 9.83825  24.4408
 9.86125  24.3557
 9.88425  24.2477
 9.90725  24.1449
 9.93025  24.1548
 9.95325  24.0467
 9.97625  24.0119
 9.99925  23.9777
 10.0222  23.9178
 10.0453  23.7453
 10.0683  23.6387
 10.0913  23.6289
 10.1143  23.7307
 10.1373  23.7907
 10.1603  23.7757
 10.1832  23.5727
 10.2063  23.3742
 10.2293  23.3258
 10.2523  23.2085
 10.2752  23.1352
 10.2982  23.307
 10.3213  23.3346
 10.3443  23.3279
 10.3673  23.1694
 10.3902  23.1371
 10.4133  23.1242
 10.4363  23.0432
 10.4593  22.9797
 10.4823  23.0561
 10.5053  23.077
 10.5283  23.0907
 10.5512  22.9913
 10.5742  22.7484
 10.5973  22.6941
 10.6203  22.7118
 10.6433  22.6237
 10.6662  22.651
 10.6893  22.5944
 10.7123  22.484
 10.7353  22.4085
 10.7583  22.3831
 10.7813  22.4423
 10.8043  22.4516
 10.8272  22.479
 10.8503  22.4762
 10.8733  22.3963
 10.8963  22.3243
 10.9192  22.4197
 10.9422  22.4701
 10.9653  22.508
 10.9883  22.5241
 11.0113  22.4513
 11.0343  22.4014
 11.0573  22.3294
 11.0803  22.4863
 11.1033  22.576
 11.1263  22.4719
 11.1493  22.3387
 11.1723  22.2724
 11.1953  22.2159
 11.2182  22.2253
 11.2413  22.2124
 11.2643  22.1587
 11.2873  22.129
 11.3102  22.1962
 11.3333  22.2919
 11.3563  22.3497
 11.3793  22.4299
 11.4023  22.5972
 11.4253  22.5724
 11.4483  22.4094
 11.4713  22.5345
 11.4942  22.8548
 11.5173  23.4523
 11.5403  24.7158
 11.5633  27.5362
 11.5862  30.4797
 11.6093  30.7817
 11.6323  28.0634
 11.6553  24.9653
 11.6783  23.4112
 11.7013  22.6966
 11.7243  22.4104
 11.7473  22.2964
 11.7703  22.2278
 11.7933  22.2276
 11.8163  22.2182
 11.8393  22.2196
 11.8622  22.1685
 11.8853  22.309
 11.9083  22.3869
 11.9313  22.5526
 11.9543  23.0743
 11.9773  23.7706
 12.0003  24.0819
 12.0233  23.6641
 12.0463  23.1999
 12.0693  23.3236
 12.0923  23.73
 12.1153  23.8821
 12.1382  23.4438
 12.1613  22.8125
 12.1843  22.4422
 12.2073  22.326
 12.2302  22.2879
 12.2533  22.2084
 12.2763  22.1384
 12.2993  22.1472
 12.3223  22.156
 12.3453  22.1199
 12.3683  22.1281
 12.3913  22.179
 12.4142  22.1789
 12.4373  22.2555
 12.4603  22.5022
 12.4833  22.5886
 12.5062  22.4192
 12.5292  22.361
 12.5523  22.3556
 12.5753  22.3269
 12.5983  22.421
 12.6212  22.4799
 12.6443  22.495
 12.6673  22.4694
 12.6903  22.5576
 12.7133  22.6389
 12.7363  22.7502
 12.7593  22.7977
 12.7822  22.7584
 12.8052  22.7457
 12.8283  22.8054
 12.8513  22.9595
 12.8742  23.0904
 12.8972  23.1584
 12.9203  23.2708
 12.9433  23.3678
 12.9663  23.4811
 12.9893  23.6482
 13.0123  23.8016
 13.0353  23.9815
 13.0582  24.1213
 13.0813  24.1788
 13.1043  24.381
 13.1273  24.5406
 13.1502  24.804
 13.1732  25.0481
 13.1963  25.1814
 13.2193  25.4519
 13.2423  25.8692
 13.2652  26.2766
 13.2883  26.5636
 13.3113  26.735
 13.3343  26.976
 13.3573  27.3509
 13.3803  27.6119
 13.4033  27.788
 13.4262  27.9347
 13.4492  28.2734
 13.4723  28.6037
 13.4953  28.823
 13.5183  28.882
 13.5412  29.0003
 13.5643  29.0552
 13.5873  29.1939
 13.6103  29.3035
 13.6333  29.258
 13.6563  29.2308
 13.6793  29.3423
 13.7022  29.2158
 13.7253  29.163
 13.7483  29.0875
 13.7713  28.9949
 13.7942  28.869
 13.8172  28.7513
 13.8403  28.7883
 13.8633  29.2885
 13.8863  30.3618
 13.9093  31.8789
 13.9323  33.5136
 13.9553  33.6298
 13.9783  32.4412
 14.0013  30.2957
 14.0243  28.659
 14.0473  27.8156
 14.0703  27.5603
 14.0932  27.2929
 14.1163  27.0586
 14.1393  26.8647
 14.1623  26.7697
 14.1852  26.6617
 14.2083  26.4314
 14.2313  26.1871
 14.2543  26.0113
 14.2773  25.9715
 14.3003  26.0097
 14.3233  25.9392
 14.3463  25.8962
 14.3692  25.7966
 14.3923  25.7254
 14.4153  25.6909
 14.4383  25.6078
 14.4612  25.3783
 14.4843  25.1875
 14.5073  25.1509
 14.5303  25.2107
 14.5533  25.2065
 14.5763  25.1964
 14.5993  25.0253
 14.6223  25.041
 14.6453  25.0296
 14.6683  24.9955
 14.6913  24.984
 14.7143  25.0463
 14.7372  25.002
 14.7603  24.9642
 14.7833  24.8945
 14.8063  24.8839
 14.8293  24.7486
 14.8523  24.6504
 14.8753  24.5898
 14.8983  24.6601
 14.9213  24.6834
 14.9443  24.5718
 14.9673  24.4758
 14.9903  24.5709
 15.0132  24.6421
 15.0363  24.5995
 15.0593  24.569
 15.0823  24.6616
 15.1052  24.7051
 15.1283  24.8862
 15.1513  25.3789
 15.1743  26.5387
 15.1973  27.2178
 15.2203  26.7835
 15.2433  25.6463
 15.2663  24.8496
 15.2892  24.5653
 15.3123  24.3909
 15.3353  24.4149
 15.3583  24.4597
 15.3812  24.3547
 15.4043  24.1674
 15.4273  24.1639
 15.4503  24.2014
 15.4733  24.1808
 15.4963  24.2024
 15.5193  24.1844
 15.5423  24.0908
 15.5653  24.1039
 15.5883  24.1415
 15.6113  24.1463
 15.6343  24.2109
 15.6572  24.3507
 15.6803  24.3201
 15.7033  24.2002
 15.7263  24.1877
 15.7492  24.1914
 15.7723  24.2237
 15.7953  24.2065
 15.8183  24.277
 15.8413  24.2337
 15.8643  24.1593
 15.8873  24.2384
 15.9103  24.3093
 15.9332  24.2572
 15.9563  24.1626
 15.9793  24.2895
 16.0023  24.4082
 16.0253  24.4185
 16.0482  24.478
 16.0713  24.4872
 16.0943  24.4784
 16.1172  24.4697
 16.1403  24.4716
 16.1633  24.5214
 16.1863  24.5942
 16.2093  24.6744
 16.2323  24.8169
 16.2553  24.958
 16.2783  24.9553
 16.3012  24.7085
 16.3243  24.4286
 16.3472  24.252
 16.3703  24.1948
 16.3933  24.3099
 16.4163  24.3852
 16.4393  24.337
 16.4623  24.3285
 16.4853  24.3353
 16.5083  24.3319
 16.5312  24.2369
 16.5543  24.2528
 16.5773  24.2421
 16.6002  24.2307
 16.6233  24.2018
 16.6463  24.095
 16.6693  24.1416
 16.6923  24.1579
 16.7153  24.1563
 16.7383  24.1983
 16.7613  24.2577
 16.7843  24.1738
 16.8073  24.1569
 16.8303  24.1165
 16.8533  24.1077
 16.8763  24.1634
 16.8992  24.1465
 16.9223  24.0647
 16.9453  23.978
 16.9683  23.8931
 16.9913  23.8809
 17.0143  23.9199
 17.0373  23.9872
 17.0603  24.0184
 17.0832  24.0543
 17.1063  24.0273
 17.1293  23.9563
 17.1522  23.9477
 17.1753  23.9242
 17.1983  23.9622
 17.2213  23.9707
 17.2443  23.8413
 17.2673  23.7852
 17.2903  23.877
 17.3133  23.8592
 17.3362  23.9077
 17.3593  23.8953
 17.3823  23.8514
 17.4053  23.832
 17.4283  23.83
 17.4513  23.7027
 17.4743  23.5914
 17.4973  23.6435
 17.5203  23.605
 17.5433  23.6216
 17.5663  23.6523
 17.5893  23.6516
 17.6123  23.6125
 17.6352  23.5401
 17.6583  23.4083
 17.6813  23.4412
 17.7042  23.5078
 17.7273  23.4502
 17.7503  23.4238
 17.7733  23.5014
 17.7963  23.6151
 17.8193  23.6065
 17.8423  23.5331
 17.8653  23.5146
 17.8882  23.5205
 17.9113  23.5274
 17.9343  23.5817
 17.9573  23.5974
 17.9803  23.6668
 18.0033  23.8819
 18.0263  24.2053
 18.0493  24.796
 18.0723  25.3152
 18.0953  25.6853
 18.1183  25.5734
 18.1413  25.089
 18.1643  24.4808
 18.1872  24.0172
 18.2103  23.6632
 18.2333  23.5413
 18.2563  23.4773
 18.2793  23.454
 18.3023  23.4371
 18.3253  23.4239
 18.3483  23.4493
 18.3712  23.3943
 18.3943  23.3615
 18.4173  23.4061
 18.4402  23.3
 18.4633  23.1129
 18.4863  23.0834
 18.5093  23.1445
 18.5323  23.2327
 18.5553  23.3444
 18.5783  23.3395
 18.6013  23.2228
 18.6242  23.1036
 18.6473  23.0933
 18.6703  23.1541
 18.6933  23.2063
 18.7163  23.2013
 18.7392  23.127
 18.7623  23.1104
 18.7853  23.1815
 18.8083  23.1738
 18.8313  23.1878
 18.8543  23.1619
 18.8773  23.194
 18.9003  23.2166
 18.9232  23.2095
 18.9463  23.2556
 18.9693  23.154
 18.9922  23.0918
 19.0153  23.1621
 19.0383  23.2145
 19.0613  23.2747
 19.0843  23.3649
 19.1073  23.271
 19.1303  23.2344
 19.1533  23.217
 19.1762  23.1985
 19.1993  23.222
 19.2223  23.2192
 19.2453  23.1917
 19.2683  23.2285
 19.2913  23.1665
 19.3143  23.2043
 19.3373  23.2382
 19.3603  23.2565
 19.3833  23.2716
 19.4062  23.3053
 19.4293  23.3489
 19.4523  23.3128
 19.4752  23.3393
 19.4983  23.3918
 19.5213  23.4648
 19.5443  23.5354
 19.5673  23.452
 19.5903  23.5088
 19.6133  23.6882
 19.6363  23.9366
 19.6593  24.3589
 19.6823  25.1167
 19.7053  25.6644
 19.7283  25.7583
 19.7513  25.3627
 19.7742  25.052
 19.7973  24.9999
 19.8203  25.2047
 19.8433  25.6618
 19.8663  25.593
 19.8893  25.0473
 19.9123  24.3649
 19.9353  23.8857
 19.9582  23.7323
 19.9813  23.629
 20.0043  23.6197
 20.0272  23.5832
 20.0503  23.5251
 20.0733  23.5195
 20.0963  23.493
 20.1193  23.4376
 20.1423  23.3799
 20.1653  23.4074
 20.1883  23.4862
 20.2112  23.4762
 20.2343  23.4881
 20.2573  23.4548
 20.2803  23.4788
 20.3033  23.5071
 20.3263  23.4365
 20.3493  23.5833
 20.3723  23.5944
 20.3953  23.5011
 20.4183  23.5452
 20.4413  23.6263
 20.4643  23.5711
 20.4873  23.4911
 20.5102  23.493
 20.5333  23.4789
 20.5563  23.5726
 20.5792  23.6247
 20.6023  23.7499
 20.6253  23.7753
 20.6483  23.8291
 20.6713  23.9687
 20.6943  24.4179
 20.7173  25.3191
 20.7403  26.321
 20.7632  25.886
 20.7863  25.5416
 20.8093  24.7332
 20.8323  24.1653
 20.8553  23.8432
 20.8783  23.7718
 20.9013  23.7315
 20.9243  23.7157
 20.9473  23.7206
 20.9703  23.6209
 20.9933  23.5876
 21.0163  23.5707
 21.0393  23.6943
 21.0622  23.6309
 21.0853  23.6097
 21.1083  23.661
 21.1313  23.6536
 21.1543  23.5727
 21.1773  23.6034
 21.2003  23.6567
 21.2233  23.6215
 21.2462  23.6629
 21.2693  23.6335
 21.2923  23.6544
 21.3152  23.6496
 21.3383  23.6459
 21.3613  23.6575
 21.3843  23.7263
 21.4073  23.6415
 21.4303  23.6648
 21.4533  23.6409
 21.4763  23.6565
 21.4992  23.7384
 21.5223  23.7657
 21.5453  23.805
 21.5683  23.7473
 21.5913  23.794
 21.6142  23.831
 21.6373  23.7755
 21.6603  23.7416
 21.6833  23.7269
 21.7063  23.7917
 21.7293  23.8033
 21.7523  23.7322
 21.7753  23.7529
 21.7982  23.8373
 21.8213  23.8817
 21.8443  23.7818
 21.8672  23.8533
 21.8903  23.8911
 21.9133  23.9509
 21.9363  23.8976
 21.9593  23.8916
 21.9823  23.9059
 22.0053  23.9563
 22.0283  24.0491
 22.0512  24.1032
 22.0743  24.0304
 22.0973  23.9925
 22.1203  24.0318
 22.1433  24.0796
 22.1663  24.0688
 22.1893  24.1161
 22.2123  24.0672
 22.2353  24.1531
 22.2583  24.187
 22.2813  24.1495
 22.3043  24.2208
 22.3273  24.2027
 22.3502  24.16
 22.3733  24.1582
 22.3963  24.0925
 22.4193  24.1234
 22.4423  24.3526
 22.4653  24.4611
 22.4883  24.4248
 22.5113  24.4588
 22.5343  24.5074
 22.5573  24.5038
 22.5803  24.4506
 22.6033  24.5705
 22.6263  24.7351
 22.6493  24.7229
 22.6723  24.5976
 22.6953  24.7783
 22.7183  24.8031
 22.7413  24.8799
 22.7643  24.9868
 22.7873  25.0192
 22.8103  25.0448
 22.8333  25.1373
 22.8563  25.2946
 22.8793  25.4577
 22.9022  25.6013
 22.9253  25.5826
 22.9483  25.6489
 22.9713  25.8469
 22.9943  26.0203