File: test-data-xrd/xrd-map-34-ID-E/Data_0080.chi
F:\20151113_APS_34IDE\\Brian\Particle1\OCV\Data_0080.tif
2-Theta Angle (Degrees)
Intensity
       2000
 0.01725  0.0000000E+00
 0.04025  0.0000000E+00
 0.06325  0.0000000E+00
 0.08625  0.0000000E+00
 0.10925  0.0000000E+00
 0.13225  0.0000000E+00
 0.15525  0.0000000E+00
 0.17825  0.0000000E+00
 0.20125  0.0000000E+00
 0.22425  0.0000000E+00
 0.24725  0.0000000E+00
 0.27025  0.0000000E+00
 0.29325  0.0000000E+00
 0.31625  0.0000000E+00
 0.33925  0.0000000E+00
 0.36225  0.0000000E+00
 0.38525  0.0000000E+00
 0.40825  0.0000000E+00
 0.43125  0.0000000E+00
 0.45425  0.0000000E+00
 0.47725  0.0000000E+00
 0.50025  0.0000000E+00
 0.52325  0.0000000E+00
 0.54625  0.0000000E+00
 0.56925  0.0000000E+00
 0.59225  0.0000000E+00
 0.61525  0.0000000E+00
 0.63825  0.0000000E+00
 0.66125  0.0000000E+00
 0.68425  0.0000000E+00
 0.70725  0.0000000E+00
 0.73025  0.0000000E+00
 0.75325  0.0000000E+00
 0.77625  0.0000000E+00
 0.79925  0.0000000E+00
 0.82225  0.0000000E+00
 0.84525  0.0000000E+00
 0.86825  0.0000000E+00
 0.89125  0.0000000E+00
 0.91425  0.0000000E+00
 0.93725  0.0000000E+00
 0.96025  0.0000000E+00
 0.98325  0.0000000E+00
 1.00625  0.0000000E+00
 1.02925  0.0000000E+00
 1.05225  0.0000000E+00
 1.07525  0.0000000E+00
 1.09825  0.0000000E+00
 1.12125  0.0000000E+00
 1.14425  0.0000000E+00
 1.16725  0.0000000E+00
 1.19025  0.0000000E+00
 1.21325  0.0000000E+00
 1.23625  0.0000000E+00
 1.25925  0.0000000E+00
 1.28225  0.0000000E+00
 1.30525  0.0000000E+00
 1.32825  0.0000000E+00
 1.35125  0.0000000E+00
 1.37425  0.0000000E+00
 1.39725  0.0000000E+00
 1.42025  0.0000000E+00
 1.44325  0.0000000E+00
 1.46625  0.0000000E+00
 1.48925  0.0000000E+00
 1.51225  0.0000000E+00
 1.53525  0.0000000E+00
 1.55825  0.0000000E+00
 1.58125  0.0000000E+00
 1.60425  0.0000000E+00
 1.62725  0.0000000E+00
 1.65025  0.0000000E+00
 1.67325  0.0000000E+00
 1.69625  0.0000000E+00
 1.71925  0.0000000E+00
 1.74225  0.0000000E+00
 1.76525  0.0000000E+00
 1.78825  0.0000000E+00
 1.81125  0.0000000E+00
 1.83425  0.0000000E+00
 1.85725  0.0000000E+00
 1.88025  0.0000000E+00
 1.90325  0.0000000E+00
 1.92625  0.0000000E+00
 1.94925  0.0000000E+00
 1.97225  0.0000000E+00
 1.99525  0.0000000E+00
 2.01825  0.0000000E+00
 2.04125  0.0000000E+00
 2.06425  0.0000000E+00
 2.08725  0.0000000E+00
 2.11025  0.0000000E+00
 2.13325  0.0000000E+00
 2.15625  0.0000000E+00
 2.17925  0.0000000E+00
 2.20225  0.0000000E+00
 2.22525  0.0000000E+00
 2.24825  0.0000000E+00
 2.27125  0.0000000E+00
 2.29425  0.0000000E+00
 2.31725  0.0000000E+00
 2.34025  0.0000000E+00
 2.36325  0.0000000E+00
 2.38625  0.0000000E+00
 2.40925  0.0000000E+00
 2.43225  0.0000000E+00
 2.45525  0.0000000E+00
 2.47825  0.0000000E+00
 2.50125  0.0000000E+00
 2.52425  0.0000000E+00
 2.54725  0.0000000E+00
 2.57025  0.0000000E+00
 2.59325  0.0000000E+00
 2.61625  0.0000000E+00
 2.63925  0.0000000E+00
 2.66225  0.0000000E+00
 2.68525  0.0000000E+00
 2.70825  0.0000000E+00
 2.73125  0.0000000E+00
 2.75425  0.0000000E+00
 2.77725  0.0000000E+00
 2.80025  0.0000000E+00
 2.82325  35.5178
 2.84625  35.5747
 2.86925  34.7186
 2.89225  34.1959
 2.91525  34.1882
 2.93825  34.767
 2.96125  35.1624
 2.98425  35.4015
 3.00725  35.9554
 3.03025  35.8722
 3.05325  35.7312
 3.07625  35.7811
 3.09925  35.8071
 3.12225  35.8311
 3.14525  35.914
 3.16825  35.4326
 3.19125  35.2064
 3.21425  35.4307
 3.23725  35.4925
 3.26025  35.6013
 3.28325  35.7047
 3.30625  36.2431
 3.32925  35.8432
 3.35225  35.5884
 3.37525  35.2756
 3.39825  34.7899
 3.42125  34.3533
 3.44425  33.765
 3.46725  33.405
 3.49025  34.1903
 3.51325  34.2941
 3.53625  34.123
 3.55925  34.0808
 3.58225  33.6379
 3.60525  33.4175
 3.62825  33.551
 3.65125  33.7277
 3.67425  33.6936
 3.69725  33.5946
 3.72025  33.4225
 3.74325  33.4686
 3.76625  33.3354
 3.78925  33.0466
 3.81225  32.8824
 3.83525  33.0151
 3.85825  32.8966
 3.88125  33.0064
 3.90425  32.7775
 3.92725  32.7838
 3.95025  32.931
 3.97325  32.9434
 3.99625  33.053
 4.01925  32.8533
 4.04225  32.3437
 4.06525  32.3616
 4.08825  32.3654
 4.11125  32.3362
 4.13425  32.4042
 4.15725  32.4656
 4.18025  32.1361
 4.20325  32.2215
 4.22625  32.2027
 4.24925  32.0163
 4.27225  32.031
 4.29525  32.1663
 4.31825  32.2456
 4.34125  32.2067
 4.36425  32.1426
 4.38725  32.1926
 4.41025  32.4487
 4.43325  32.6476
 4.45625  32.751
 4.47925  32.6131
 4.50225  32.6089
 4.52525  32.4232
 4.54825  32.362
 4.57125  32.2163
 4.59425  32.2635
 4.61725  32.4508
 4.64025  32.6423
 4.66325  33.0452
 4.68625  33.1929
 4.70925  32.972
 4.73225  32.7232
 4.75525  32.6709
 4.77825  32.6525
 4.80125  32.5215
 4.82425  32.3017
 4.84725  32.4905
 4.87025  32.8364
 4.89325  32.8795
 4.91625  33.0682
 4.93925  33.2275
 4.96225  32.8961
 4.98525  32.8028
 5.00825  32.9938
 5.03125  33.2917
 5.05425  33.1608
 5.07725  33.2475
 5.10025  33.3346
 5.12325  33.3678
 5.14625  33.5028
 5.16925  33.6595
 5.19225  33.8297
 5.21525  33.9219
 5.23825  34.1007
 5.26125  34.2294
 5.28425  34.4783
 5.30725  34.4598
 5.33025  34.3894
 5.35325  34.3049
 5.37625  34.3384
 5.39925  34.3339
 5.42225  34.4448
 5.44525  34.8433
 5.46825  34.9608
 5.49125  34.5953
 5.51425  34.5031
 5.53725  34.7245
 5.56025  34.9181
 5.58325  35.1998
 5.60625  35.43
 5.62925  35.5045
 5.65225  35.5313
 5.67525  35.7647
 5.69825  35.7525
 5.72125  35.5782
 5.74425  35.6265
 5.76725  35.7747
 5.79025  35.9018
 5.81325  36.0093
 5.83625  36.0869
 5.85925  36.166
 5.88225  36.602
 5.90525  37.6214
 5.92825  40.2773
 5.95125  47.2632
 5.97425  54.178
 5.99725  56.5351
 6.02025  51.5551
 6.04325  44.3534
 6.06625  39.518
 6.08925  37.6949
 6.11225  37.203
 6.13525  37.0442
 6.15825  36.9945
 6.18125  37.1764
 6.20425  37.1319
 6.22725  37.2818
 6.25025  37.4802
 6.27325  37.6736
 6.29625  37.7126
 6.31925  37.6548
 6.34225  37.8888
 6.36525  38.107
 6.38825  38.1188
 6.41125  38.0631
 6.43425  38.2507
 6.45725  38.4114
 6.48025  38.6139
 6.50325  38.7536
 6.52625  38.9246
 6.54925  39.1432
 6.57225  39.4043
 6.59525  39.4722
 6.61825  39.5206
 6.64125  39.6779
 6.66425  40.0063
 6.68725  40.1641
 6.71025  40.3562
 6.73325  40.6118
 6.75625  40.7924
 6.77925  40.9793
 6.80225  41.1739
 6.82525  41.3846
 6.84825  41.4673
 6.87125  41.5721
 6.89425  41.7796
 6.91725  41.9898
 6.94025  42.196
 6.96325  42.3335
 6.98625  42.3353
 7.00925  42.2021
 7.03225  42.2858
 7.05525  42.5123
 7.07825  42.7108
 7.10125  42.809
 7.12425  42.9313
 7.14725  43.0061
 7.17025  43.024
 7.19325  43.1075
 7.21625  43.2402
 7.23925  43.3395
 7.26225  43.5185
 7.28525  43.5067
 7.30825  43.491
 7.33125  43.6784
 7.35425  43.8216
 7.37725  43.7435
 7.40025  43.6541
 7.42325  43.7483
 7.44625  43.8225
 7.46925  44.1023
 7.49225  44.3071
 7.51525  44.3338
 7.53825  44.365
 7.56125  44.5885
 7.58425  44.5933
 7.60725  44.5032
 7.63025  44.4267
 7.65325  44.5666
 7.67625  44.5178
 7.69925  44.3416
 7.72225  44.4577
 7.74525  44.4363
 7.76825  44.3649
 7.79125  44.1996
 7.81425  44.2662
 7.83725  44.2703
 7.86025  44.1262
 7.88325  43.8395
 7.90625  43.617
 7.92925  43.6406
 7.95225  43.6864
 7.97525  43.647
 7.99825  43.5773
 8.02125  43.54
 8.04425  43.3436
 8.06725  43.0945
 8.09025  42.7571
 8.11325  42.7078
 8.13625  42.4836
 8.15925  42.4122
 8.18225  42.2454
 8.20525  41.8315
 8.22825  41.5904
 8.25125  41.4317
 8.27425  41.2441
 8.29725  40.8538
 8.32025  40.5722
 8.34325  40.1219
 8.36625  39.6413
 8.38925  39.3074
 8.41225  39.1421
 8.43525  38.9434
 8.45825  38.6067
 8.48125  38.1997
 8.50425  37.7434
 8.52725  37.4663
 8.55025  37.296
 8.57325  37.0115
 8.59625  36.5287
 8.61925  36.2032
 8.64225  35.77
 8.66525  35.2125
 8.68825  34.9878
 8.71125  34.6138
 8.73425  34.2615
 8.75725  34.0567
 8.78025  33.8604
 8.80325  33.452
 8.82625  33.1507
 8.84925  32.7603
 8.87225  32.4209
 8.89525  32.1053
 8.91825  31.9588
 8.94125  31.645
 8.96425  31.3145
 8.98725  30.9526
 9.01025  30.5537
 9.03325  30.3069
 9.05625  30.0718
 9.07925  29.9108
 9.10225  29.6658
 9.12525  29.5235
 9.14825  29.3321
 9.17125  29.1293
 9.19425  28.8472
 9.21725  28.6418
 9.24025  28.4181
 9.26325  28.1039
 9.28625  27.8785
 9.30925  27.7337
 9.33225  27.4592
 9.35525  27.2672
 9.37825  27.1615
 9.40125  27.0163
 9.42425  26.7681
 9.44725  26.6408
 9.47025  26.672
 9.49325  26.6573
 9.51625  26.497
 9.53925  26.3247
 9.56225  26.2451
 9.58525  26.029
 9.60825  25.8386
 9.63125  25.5928
 9.65425  25.4474
 9.67725  25.2666
 9.70025  25.1526
 9.72325  25.154
 9.74625  25.1132
 9.76925  25.0312
 9.79225  25.0707
 9.81525  24.9295
 9.83825  24.8092
 9.86125  24.6663
 9.88425  24.4728
 9.90725  24.3559
 9.93025  24.4227
 9.95325  24.416
 9.97625  24.4247
 9.99925  24.3919
 10.0222  24.3131
 10.0453  24.2092
 10.0683  24.108
 10.0913  24.0364
 10.1143  23.9875
 10.1373  23.9315
 10.1603  23.9695
 10.1832  23.9574
 10.2063  23.9218
 10.2293  23.9045
 10.2523  23.7924
 10.2752  23.7128
 10.2982  23.5792
 10.3213  23.5428
 10.3443  23.6138
 10.3673  23.5588
 10.3902  23.4486
 10.4133  23.4071
 10.4363  23.2165
 10.4593  23.1676
 10.4823  23.2449
 10.5053  23.2672
 10.5283  23.1938
 10.5512  23.1895
 10.5742  23.1901
 10.5973  23.123
 10.6203  23.1783
 10.6433  23.228
 10.6662  23.2392
 10.6893  23.0922
 10.7123  22.9892
 10.7353  22.9144
 10.7583  22.8231
 10.7813  22.8695
 10.8043  22.937
 10.8272  22.8678
 10.8503  22.8173
 10.8733  22.8165
 10.8963  22.7449
 10.9192  22.7381
 10.9422  22.7438
 10.9653  22.7071
 10.9883  22.6859
 11.0113  22.6119
 11.0343  22.6916
 11.0573  22.6444
 11.0803  22.6249
 11.1033  22.634
 11.1263  22.6421
 11.1493  22.6492
 11.1723  22.6674
 11.1953  22.6201
 11.2182  22.6194
 11.2413  22.5836
 11.2643  22.6697
 11.2873  22.6893
 11.3102  22.6396
 11.3333  22.6678
 11.3563  22.8645
 11.3793  23.0394
 11.4023  23.1866
 11.4253  23.2269
 11.4483  23.2488
 11.4713  23.3874
 11.4942  23.5919
 11.5173  24.4755
 11.5403  28.7206
 11.5633  35.7456
 11.5862  47.1493
 11.6093  42.0775
 11.6323  33.8602
 11.6553  27.4023
 11.6783  24.2136
 11.7013  23.3297
 11.7243  23.0776
 11.7473  22.9584
 11.7703  22.9109
 11.7933  22.9748
 11.8163  22.8833
 11.8393  22.6426
 11.8622  22.4796
 11.8853  22.6074
 11.9083  22.8019
 11.9313  22.9354
 11.9543  23.3396
 11.9773  23.7166
 12.0003  23.854
 12.0233  23.7185
 12.0463  23.9483
 12.0693  25.1189
 12.0923  26.9609
 12.1153  27.1811
 12.1382  25.9323
 12.1613  24.3235
 12.1843  23.3491
 12.2073  22.8996
 12.2302  22.7284
 12.2533  22.7588
 12.2763  22.7947
 12.2993  22.747
 12.3223  22.6833
 12.3453  22.5867
 12.3683  22.6435
 12.3913  22.7411
 12.4142  22.7156
 12.4373  22.7916
 12.4603  22.8611
 12.4833  22.8103
 12.5062  22.6967
 12.5292  22.6229
 12.5523  22.6544
 12.5753  22.7432
 12.5983  22.8727
 12.6212  22.9403
 12.6443  22.9911
 12.6673  23.0549
 12.6903  22.9941
 12.7133  23.0706
 12.7363  23.1516
 12.7593  23.195
 12.7822  23.2907
 12.8052  23.2581
 12.8283  23.3563
 12.8513  23.3923
 12.8742  23.5401
 12.8972  23.556
 12.9203  23.6834
 12.9433  23.8652
 12.9663  23.9851
 12.9893  24.053
 13.0123  24.0993
 13.0353  24.2277
 13.0582  24.422
 13.0813  24.5255
 13.1043  24.7855
 13.1273  25.0667
 13.1502  25.2009
 13.1732  25.4206
 13.1963  25.7169
 13.2193  25.9917
 13.2423  26.2883
 13.2652  26.5702
 13.2883  26.7738
 13.3113  27.0255
 13.3343  27.2627
 13.3573  27.4968
 13.3803  27.6957
 13.4033  28.1367
 13.4262  28.4764
 13.4492  28.7288
 13.4723  28.9028
 13.4953  29.0686
 13.5183  29.2212
 13.5412  29.3306
 13.5643  29.446
 13.5873  29.6178
 13.6103  29.7102
 13.6333  29.7508
 13.6563  29.6948
 13.6793  29.6742
 13.7022  29.7221
 13.7253  29.6787
 13.7483  29.5747
 13.7713  29.5399
 13.7942  29.6269
 13.8172  29.6761
 13.8403  29.6585
 13.8633  29.7582
 13.8863  30.3416
 13.9093  31.9484
 13.9323  34.9253
 13.9553  38.009
 13.9783  38.5109
 14.0013  35.5822
 14.0243  31.5568
 14.0473  29.1347
 14.0703  28.1962
 14.0932  27.8718
 14.1163  27.7201
 14.1393  27.4955
 14.1623  27.3082
 14.1852  27.0652
 14.2083  26.9425
 14.2313  26.8423
 14.2543  26.6661
 14.2773  26.5093
 14.3003  26.4538
 14.3233  26.2728
 14.3463  26.2539
 14.3692  26.546
 14.3923  26.6786
 14.4153  26.4635
 14.4383  26.0959
 14.4612  25.9055
 14.4843  25.8899
 14.5073  25.8249
 14.5303  25.7819
 14.5533  25.7476
 14.5763  25.6723
 14.5993  25.551
 14.6223  25.4255
 14.6453  25.3178
 14.6683  25.2406
 14.6913  25.2043
 14.7143  25.242
 14.7372  25.2181
 14.7603  25.1619
 14.7833  25.2215
 14.8063  25.2774
 14.8293  25.1091
 14.8523  25.0914
 14.8753  25.1005
 14.8983  25.1694
 14.9213  25.1966
 14.9443  25.1851
 14.9673  25.0781
 14.9903  25.0661
 15.0132  25.1356
 15.0363  25.163
 15.0593  25.1125
 15.0823  25.085
 15.1052  25.0491
 15.1283  25.3149
 15.1513  26.1297
 15.1743  27.2596
 15.1973  27.8473
 15.2203  27.4558
 15.2433  26.2197
 15.2663  25.2397
 15.2892  24.9473
 15.3123  24.8492
 15.3353  24.73
 15.3583  24.6289
 15.3812  24.6325
 15.4043  24.6629
 15.4273  24.6254
 15.4503  24.6724
 15.4733  24.7208
 15.4963  24.7126
 15.5193  24.6448
 15.5423  24.5745
 15.5653  24.5573
 15.5883  24.6183
 15.6113  24.5841
 15.6343  24.5012
 15.6572  24.5782
 15.6803  24.6852
 15.7033  24.6522
 15.7263  24.6038
 15.7492  24.5739
 15.7723  24.6737
 15.7953  24.6538
 15.8183  24.6474
 15.8413  24.6333
 15.8643  24.5122
 15.8873  24.486
 15.9103  24.604
 15.9332  24.8323
 15.9563  24.8335
 15.9793  24.8459
 16.0023  24.8823
 16.0253  24.8879
 16.0482  24.9027
 16.0713  24.9115
 16.0943  24.9214
 16.1172  24.9291
 16.1403  24.9204
 16.1633  25.0756
 16.1863  25.3078
 16.2093  25.7992
 16.2323  26.5124
 16.2553  27.1201
 16.2783  26.777
 16.3012  25.7409
 16.3243  25.049
 16.3472  24.8929
 16.3703  24.838
 16.3933  24.828
 16.4163  24.9039
 16.4393  24.8846
 16.4623  24.7858
 16.4853  24.763
 16.5083  24.8165
 16.5312  24.726
 16.5543  24.7595
 16.5773  24.7293
 16.6002  24.7502
 16.6233  24.6868
 16.6463  24.6064
 16.6693  24.5891
 16.6923  24.6452
 16.7153  24.7077
 16.7383  24.7682
 16.7613  24.7109
 16.7843  24.5802
 16.8073  24.5357
 16.8303  24.527
 16.8533  24.5075
 16.8763  24.5322
 16.8992  24.5644
 16.9223  24.5506
 16.9453  24.5373
 16.9683  24.4903
 16.9913  24.4937
 17.0143  24.4395
 17.0373  24.408
 17.0603  24.3882
 17.0832  24.4306
 17.1063  24.427
 17.1293  24.4633
 17.1522  24.3476
 17.1753  24.2781
 17.1983  24.2612
 17.2213  24.3033
 17.2443  24.2438
 17.2673  24.2094
 17.2903  24.1785
 17.3133  24.1843
 17.3362  24.2295
 17.3593  24.1779
 17.3823  24.1071
 17.4053  24.0318
 17.4283  24.0645
 17.4513  24.0847
 17.4743  23.9887
 17.4973  23.9952
 17.5203  23.9641
 17.5433  23.9994
 17.5663  24.0428
 17.5893  23.9889
 17.6123  24.0535
 17.6352  24.0766
 17.6583  23.9659
 17.6813  23.8955
 17.7042  23.9791
 17.7273  23.9701
 17.7503  23.9703
 17.7733  24.019
 17.7963  24.0045
 17.8193  23.962
 17.8423  23.9491
 17.8653  24.003
 17.8882  24.0026
 17.9113  24.0786
 17.9343  24.0665
 17.9573  24.1565
 17.9803  24.3535
 18.0033  24.7297
 18.0263  25.1663
 18.0493  25.7561
 18.0723  26.7922
 18.0953  27.7429
 18.1183  27.7016
 18.1413  26.5065
 18.1643  25.282
 18.1872  24.6158
 18.2103  24.3593
 18.2333  24.1509
 18.2563  23.9778
 18.2793  23.8858
 18.3023  23.8892
 18.3253  23.8176
 18.3483  23.7439
 18.3712  23.7436
 18.3943  23.709
 18.4173  23.8562
 18.4402  23.7743
 18.4633  23.7391
 18.4863  23.7173
 18.5093  23.6601
 18.5323  23.6337
 18.5553  23.6328
 18.5783  23.6083
 18.6013  23.656
 18.6242  23.61
 18.6473  23.646
 18.6703  23.6821
 18.6933  23.7909
 18.7163  23.6707
 18.7392  23.6145
 18.7623  23.6476
 18.7853  23.6785
 18.8083  23.6957
 18.8313  23.6282
 18.8543  23.6561
 18.8773  23.6441
 18.9003  23.6511
 18.9232  23.7658
 18.9463  23.8175
 18.9693  23.6271
 18.9922  23.5291
 19.0153  23.6213
 19.0383  23.654
 19.0613  23.5797
 19.0843  23.5679
 19.1073  23.5751
 19.1303  23.6369
 19.1533  23.7777
 19.1762  23.7312
 19.1993  23.6762
 19.2223  23.709
 19.2453  23.6688
 19.2683  23.7551
 19.2913  23.8441
 19.3143  23.8871
 19.3373  23.8573
 19.3603  23.9053
 19.3833  23.9105
 19.4062  23.8593
 19.4293  23.8737
 19.4523  23.8858
 19.4752  23.9258
 19.4983  23.9919
 19.5213  24.0713
 19.5443  24.2153
 19.5673  24.3168
 19.5903  24.3435
 19.6133  24.5634
 19.6363  25.0554
 19.6593  25.9264
 19.6823  27.5404
 19.7053  29.3192
 19.7283  29.7978
 19.7513  28.9411
 19.7742  29.7461
 19.7973  36.3311
 19.8203  45.7347
 19.8433  50.5541
 19.8663  42.1451
 19.8893  34.0567
 19.9123  29.0741
 19.9353  26.6129
 19.9582  25.5131
 19.9813  25.0706
 20.0043  24.8519
 20.0272  24.6495
 20.0503  24.5186
 20.0733  24.3591
 20.0963  24.3545
 20.1193  24.3285
 20.1423  24.221
 20.1653  24.2008
 20.1883  24.1353
 20.2112  24.1168
 20.2343  24.1611
 20.2573  24.1359
 20.2803  24.0935
 20.3033  23.9749
 20.3263  23.8984
 20.3493  24.0304
 20.3723  24.0782
 20.3953  23.9844
 20.4183  23.9627
 20.4413  23.974
 20.4643  23.9157
 20.4873  23.8722
 20.5102  23.9049
 20.5333  23.8844
 20.5563  23.9958
 20.5792  24.1807
 20.6023  24.1922
 20.6253  24.243
 20.6483  24.2466
 20.6713  24.2927
 20.6943  24.5543
 20.7173  25.333
 20.7403  26.3486
 20.7632  26.8106
 20.7863  26.3107
 20.8093  25.5104
 20.8323  24.8199
 20.8553  24.332
 20.8783  24.163
 20.9013  24.1912
 20.9243  24.203
 20.9473  24.1966
 20.9703  24.0683
 20.9933  23.9528
 21.0163  23.9593
 21.0393  24.1345
 21.0622  24.1905
 21.0853  24.143
 21.1083  24.1151
 21.1313  24.1103
 21.1543  24.0286
 21.1773  23.9742
 21.2003  23.9706
 21.2233  23.9615
 21.2462  24.0576
 21.2693  24.1358
 21.2923  24.1364
 21.3152  24.0782
 21.3383  24.0724
 21.3613  24.149
 21.3843  24.1806
 21.4073  24.0951
 21.4303  24.0848
 21.4533  24.1666
 21.4763  24.2236
 21.4992  24.1814
 21.5223  24.1828
 21.5453  24.1385
 21.5683  24.0903
 21.5913  24.1504
 21.6142  24.1722
 21.6373  24.1798
 21.6603  24.1715
 21.6833  24.2387
 21.7063  24.2303
 21.7293  24.2488
 21.7523  24.3222
 21.7753  24.322
 21.7982  24.31
 21.8213  24.2937
 21.8443  24.2568
 21.8672  24.2021
 21.8903  24.2239
 21.9133  24.2982
 21.9363  24.3293
 21.9593  24.3759
 21.9823  24.3359
 22.0053  24.3076
 22.0283  24.4107
 22.0512  24.4094
 22.0743  24.3845
 22.0973  24.3677
 22.1203  24.4846
 22.1433  24.5429
 22.1663  24.5486
 22.1893  24.5063
 22.2123  24.4762
 22.2353  24.5288
 22.2583  24.5949
 22.2813  24.6096
 22.3043  24.6929
 22.3273  24.7083
 22.3502  24.7106
 22.3733  24.6918
 22.3963  24.6496
 22.4193  24.6088
 22.4423  24.7636
 22.4653  24.8914
 22.4883  24.7539
 22.5113  24.8283
 22.5343  24.9338
 22.5573  24.9597
 22.5803  24.9234
 22.6033  24.8999
 22.6263  25.0484
 22.6493  25.1457
 22.6723  25.2374
 22.6953  25.3411
 22.7183  25.3412
 22.7413  25.403
 22.7643  25.4744
 22.7873  25.4801
 22.8103  25.568
 22.8333  25.7195
 22.8563  25.7719
 22.8793  25.7778
 22.9022  25.8611
 22.9253  26.0473
 22.9483  26.2935
 22.9713  26.4866
 22.9943  26.7785