File: test-data-xrd/xrd-map-34-ID-E/Data_0012.chi
F:\20151113_APS_34IDE\\Brian\Particle1\OCV\Data_0012.tif
2-Theta Angle (Degrees)
Intensity
       2000
 0.01725  0.0000000E+00
 0.04025  0.0000000E+00
 0.06325  0.0000000E+00
 0.08625  0.0000000E+00
 0.10925  0.0000000E+00
 0.13225  0.0000000E+00
 0.15525  0.0000000E+00
 0.17825  0.0000000E+00
 0.20125  0.0000000E+00
 0.22425  0.0000000E+00
 0.24725  0.0000000E+00
 0.27025  0.0000000E+00
 0.29325  0.0000000E+00
 0.31625  0.0000000E+00
 0.33925  0.0000000E+00
 0.36225  0.0000000E+00
 0.38525  0.0000000E+00
 0.40825  0.0000000E+00
 0.43125  0.0000000E+00
 0.45425  0.0000000E+00
 0.47725  0.0000000E+00
 0.50025  0.0000000E+00
 0.52325  0.0000000E+00
 0.54625  0.0000000E+00
 0.56925  0.0000000E+00
 0.59225  0.0000000E+00
 0.61525  0.0000000E+00
 0.63825  0.0000000E+00
 0.66125  0.0000000E+00
 0.68425  0.0000000E+00
 0.70725  0.0000000E+00
 0.73025  0.0000000E+00
 0.75325  0.0000000E+00
 0.77625  0.0000000E+00
 0.79925  0.0000000E+00
 0.82225  0.0000000E+00
 0.84525  0.0000000E+00
 0.86825  0.0000000E+00
 0.89125  0.0000000E+00
 0.91425  0.0000000E+00
 0.93725  0.0000000E+00
 0.96025  0.0000000E+00
 0.98325  0.0000000E+00
 1.00625  0.0000000E+00
 1.02925  0.0000000E+00
 1.05225  0.0000000E+00
 1.07525  0.0000000E+00
 1.09825  0.0000000E+00
 1.12125  0.0000000E+00
 1.14425  0.0000000E+00
 1.16725  0.0000000E+00
 1.19025  0.0000000E+00
 1.21325  0.0000000E+00
 1.23625  0.0000000E+00
 1.25925  0.0000000E+00
 1.28225  0.0000000E+00
 1.30525  0.0000000E+00
 1.32825  0.0000000E+00
 1.35125  0.0000000E+00
 1.37425  0.0000000E+00
 1.39725  0.0000000E+00
 1.42025  0.0000000E+00
 1.44325  0.0000000E+00
 1.46625  0.0000000E+00
 1.48925  0.0000000E+00
 1.51225  0.0000000E+00
 1.53525  0.0000000E+00
 1.55825  0.0000000E+00
 1.58125  0.0000000E+00
 1.60425  0.0000000E+00
 1.62725  0.0000000E+00
 1.65025  0.0000000E+00
 1.67325  0.0000000E+00
 1.69625  0.0000000E+00
 1.71925  0.0000000E+00
 1.74225  0.0000000E+00
 1.76525  0.0000000E+00
 1.78825  0.0000000E+00
 1.81125  0.0000000E+00
 1.83425  0.0000000E+00
 1.85725  0.0000000E+00
 1.88025  0.0000000E+00
 1.90325  0.0000000E+00
 1.92625  0.0000000E+00
 1.94925  0.0000000E+00
 1.97225  0.0000000E+00
 1.99525  0.0000000E+00
 2.01825  0.0000000E+00
 2.04125  0.0000000E+00
 2.06425  0.0000000E+00
 2.08725  0.0000000E+00
 2.11025  0.0000000E+00
 2.13325  0.0000000E+00
 2.15625  0.0000000E+00
 2.17925  0.0000000E+00
 2.20225  0.0000000E+00
 2.22525  0.0000000E+00
 2.24825  0.0000000E+00
 2.27125  0.0000000E+00
 2.29425  0.0000000E+00
 2.31725  0.0000000E+00
 2.34025  0.0000000E+00
 2.36325  0.0000000E+00
 2.38625  0.0000000E+00
 2.40925  0.0000000E+00
 2.43225  0.0000000E+00
 2.45525  0.0000000E+00
 2.47825  0.0000000E+00
 2.50125  0.0000000E+00
 2.52425  0.0000000E+00
 2.54725  0.0000000E+00
 2.57025  0.0000000E+00
 2.59325  0.0000000E+00
 2.61625  0.0000000E+00
 2.63925  0.0000000E+00
 2.66225  0.0000000E+00
 2.68525  0.0000000E+00
 2.70825  0.0000000E+00
 2.73125  0.0000000E+00
 2.75425  0.0000000E+00
 2.77725  0.0000000E+00
 2.80025  0.0000000E+00
 2.82325  36.1428
 2.84625  35.1024
 2.86925  35.4851
 2.89225  35.4202
 2.91525  34.6679
 2.93825  34.4015
 2.96125  34.7966
 2.98425  34.8822
 3.00725  36.2121
 3.03025  36.8362
 3.05325  36.7252
 3.07625  36.3581
 3.09925  36.1334
 3.12225  36.3104
 3.14525  36.3916
 3.16825  35.9642
 3.19125  35.2607
 3.21425  35.5468
 3.23725  36.0019
 3.26025  35.6357
 3.28325  34.8165
 3.30625  34.2081
 3.32925  34.2116
 3.35225  35.2455
 3.37525  35.5238
 3.39825  34.9772
 3.42125  34.715
 3.44425  34.5147
 3.46725  34.8731
 3.49025  34.9879
 3.51325  34.1881
 3.53625  33.9101
 3.55925  34.2077
 3.58225  33.9619
 3.60525  33.6379
 3.62825  33.5572
 3.65125  33.5462
 3.67425  33.5619
 3.69725  33.38
 3.72025  32.8964
 3.74325  33.0984
 3.76625  33.2076
 3.78925  33.1871
 3.81225  33.0894
 3.83525  33.0272
 3.85825  33.0762
 3.88125  33.2774
 3.90425  33.3152
 3.92725  33.0882
 3.95025  32.8776
 3.97325  32.6911
 3.99625  32.802
 4.01925  32.9393
 4.04225  32.7121
 4.06525  32.6755
 4.08825  32.7146
 4.11125  32.6405
 4.13425  32.5923
 4.15725  32.5893
 4.18025  32.3442
 4.20325  32.3745
 4.22625  32.418
 4.24925  32.4762
 4.27225  32.6993
 4.29525  33.1031
 4.31825  33.115
 4.34125  33.2351
 4.36425  33.1299
 4.38725  32.9516
 4.41025  32.9137
 4.43325  32.8867
 4.45625  33.0176
 4.47925  32.8548
 4.50225  32.489
 4.52525  32.5108
 4.54825  32.7454
 4.57125  33.0644
 4.59425  33.0987
 4.61725  32.8793
 4.64025  32.6679
 4.66325  32.7903
 4.68625  32.9196
 4.70925  33.1084
 4.73225  32.9494
 4.75525  32.692
 4.77825  32.5235
 4.80125  32.6383
 4.82425  32.6421
 4.84725  32.7285
 4.87025  32.9499
 4.89325  32.9269
 4.91625  32.9342
 4.93925  33.0435
 4.96225  32.9062
 4.98525  32.9969
 5.00825  33.1909
 5.03125  33.4462
 5.05425  33.6839
 5.07725  33.7863
 5.10025  33.7721
 5.12325  33.653
 5.14625  33.7004
 5.16925  33.9302
 5.19225  34.0271
 5.21525  34.2899
 5.23825  34.3682
 5.26125  34.2241
 5.28425  34.041
 5.30725  34.1959
 5.33025  34.4177
 5.35325  34.604
 5.37625  34.7692
 5.39925  35.0264
 5.42225  35.0036
 5.44525  34.941
 5.46825  35.0805
 5.49125  35.0478
 5.51425  35.1599
 5.53725  35.0461
 5.56025  35.0131
 5.58325  35.1699
 5.60625  35.2412
 5.62925  35.2915
 5.65225  35.5433
 5.67525  35.7554
 5.69825  35.834
 5.72125  36.0741
 5.74425  36.2107
 5.76725  35.9785
 5.79025  35.8297
 5.81325  35.9011
 5.83625  35.9894
 5.85925  35.9252
 5.88225  36.1187
 5.90525  36.6145
 5.92825  37.6232
 5.95125  40.5714
 5.97425  43.4194
 5.99725  43.5286
 6.02025  40.7264
 6.04325  37.8438
 6.06625  37.0808
 6.08925  36.8668
 6.11225  36.9389
 6.13525  36.902
 6.15825  37.1028
 6.18125  37.327
 6.20425  37.2717
 6.22725  37.3118
 6.25025  37.4724
 6.27325  37.6381
 6.29625  37.8358
 6.31925  38.0089
 6.34225  38.1951
 6.36525  38.3242
 6.38825  38.5074
 6.41125  38.7581
 6.43425  38.8708
 6.45725  38.8398
 6.48025  38.8218
 6.50325  39.1197
 6.52625  39.4007
 6.54925  39.4311
 6.57225  39.6963
 6.59525  40.034
 6.61825  40.2284
 6.64125  40.2151
 6.66425  40.2918
 6.68725  40.306
 6.71025  40.4585
 6.73325  40.6763
 6.75625  40.8589
 6.77925  41.3324
 6.80225  41.6094
 6.82525  41.8064
 6.84825  42.1238
 6.87125  42.2367
 6.89425  42.2461
 6.91725  42.3556
 6.94025  42.5022
 6.96325  42.7597
 6.98625  42.9486
 7.00925  42.9696
 7.03225  42.9038
 7.05525  42.8387
 7.07825  42.847
 7.10125  43.0792
 7.12425  43.4258
 7.14725  43.6296
 7.17025  43.6653
 7.19325  43.7643
 7.21625  43.8286
 7.23925  43.7697
 7.26225  43.8469
 7.28525  43.8896
 7.30825  43.9026
 7.33125  44.1691
 7.35425  44.5728
 7.37725  44.8043
 7.40025  44.9073
 7.42325  44.9972
 7.44625  44.8959
 7.46925  44.8985
 7.49225  44.9679
 7.51525  44.9908
 7.53825  45.0182
 7.56125  45.0896
 7.58425  45.0061
 7.60725  44.8912
 7.63025  44.655
 7.65325  44.7356
 7.67625  44.8619
 7.69925  44.8194
 7.72225  44.817
 7.74525  44.9832
 7.76825  45.0884
 7.79125  45.0592
 7.81425  44.8902
 7.83725  44.7132
 7.86025  44.6572
 7.88325  44.4896
 7.90625  44.4836
 7.92925  44.4929
 7.95225  44.3812
 7.97525  44.1025
 7.99825  43.8363
 8.02125  43.6436
 8.04425  43.6401
 8.06725  43.6492
 8.09025  43.4823
 8.11325  43.2942
 8.13625  43.0088
 8.15925  42.8055
 8.18225  42.5971
 8.20525  42.4533
 8.22825  42.3014
 8.25125  42.0894
 8.27425  41.8959
 8.29725  41.5525
 8.32025  41.3339
 8.34325  40.9134
 8.36625  40.6497
 8.38925  40.2854
 8.41225  39.9823
 8.43525  39.6421
 8.45825  39.2702
 8.48125  39.064
 8.50425  38.6894
 8.52725  38.2691
 8.55025  37.9417
 8.57325  37.5108
 8.59625  37.1742
 8.61925  36.8111
 8.64225  36.3927
 8.66525  36.0303
 8.68825  35.7096
 8.71125  35.4569
 8.73425  35.1907
 8.75725  34.757
 8.78025  34.3576
 8.80325  34.0511
 8.82625  33.7861
 8.84925  33.3765
 8.87225  33.1272
 8.89525  32.7292
 8.91825  32.2714
 8.94125  31.941
 8.96425  31.6818
 8.98725  31.4399
 9.01025  31.0868
 9.03325  30.8886
 9.05625  30.7245
 9.07925  30.4154
 9.10225  29.9884
 9.12525  29.7302
 9.14825  29.6222
 9.17125  29.5267
 9.19425  29.2875
 9.21725  28.9953
 9.24025  28.8099
 9.26325  28.6855
 9.28625  28.5473
 9.30925  28.2892
 9.33225  27.842
 9.35525  27.5712
 9.37825  27.4867
 9.40125  27.5332
 9.42425  27.4615
 9.44725  27.1394
 9.47025  26.855
 9.49325  26.7042
 9.51625  26.6257
 9.53925  26.5598
 9.56225  26.3294
 9.58525  26.1577
 9.60825  26.0876
 9.63125  26.0147
 9.65425  25.8791
 9.67725  25.8423
 9.70025  25.8085
 9.72325  25.8262
 9.74625  25.6233
 9.76925  25.4411
 9.79225  25.3238
 9.81525  25.1752
 9.83825  24.9669
 9.86125  24.8591
 9.88425  24.85
 9.90725  24.9137
 9.93025  24.8526
 9.95325  24.7506
 9.97625  24.8267
 9.99925  24.8883
 10.0222  24.8349
 10.0453  24.593
 10.0683  24.3766
 10.0913  24.2732
 10.1143  24.2549
 10.1373  24.1822
 10.1603  24.161
 10.1832  24.1847
 10.2063  24.1233
 10.2293  24.0394
 10.2523  24.0023
 10.2752  23.9576
 10.2982  23.8343
 10.3213  23.5876
 10.3443  23.5881
 10.3673  23.5506
 10.3902  23.5797
 10.4133  23.5709
 10.4363  23.56
 10.4593  23.4781
 10.4823  23.4277
 10.5053  23.4331
 10.5283  23.3288
 10.5512  23.2227
 10.5742  23.3902
 10.5973  23.3602
 10.6203  23.306
 10.6433  23.2436
 10.6662  23.2001
 10.6893  23.1539
 10.7123  23.1759
 10.7353  23.183
 10.7583  23.1411
 10.7813  23.1054
 10.8043  23.0875
 10.8272  23.0433
 10.8503  23.008
 10.8733  23.0473
 10.8963  22.974
 10.9192  23.0057
 10.9422  22.8899
 10.9653  22.8411
 10.9883  22.853
 11.0113  22.8127
 11.0343  22.7322
 11.0573  22.6386
 11.0803  22.6996
 11.1033  22.8508
 11.1263  22.9056
 11.1493  22.8256
 11.1723  22.769
 11.1953  22.7483
 11.2182  22.7453
 11.2413  22.6658
 11.2643  22.5919
 11.2873  22.5529
 11.3102  22.4969
 11.3333  22.5383
 11.3563  22.5388
 11.3793  22.6492
 11.4023  22.7832
 11.4253  22.761
 11.4483  22.7152
 11.4713  22.7519
 11.4942  22.7593
 11.5173  22.8134
 11.5403  23.0251
 11.5633  23.3613
 11.5862  23.693
 11.6093  23.5254
 11.6323  23.0527
 11.6553  22.786
 11.6783  22.5976
 11.7013  22.5011
 11.7243  22.524
 11.7473  22.5815
 11.7703  22.5924
 11.7933  22.625
 11.8163  22.633
 11.8393  22.6143
 11.8622  22.6863
 11.8853  22.6745
 11.9083  22.5978
 11.9313  22.6688
 11.9543  22.7153
 11.9773  22.8097
 12.0003  22.7938
 12.0233  22.7139
 12.0463  22.7488
 12.0693  22.7353
 12.0923  22.8097
 12.1153  22.8906
 12.1382  22.7917
 12.1613  22.6723
 12.1843  22.6421
 12.2073  22.5994
 12.2302  22.5337
 12.2533  22.4428
 12.2763  22.3938
 12.2993  22.4814
 12.3223  22.6395
 12.3453  22.6918
 12.3683  22.7168
 12.3913  22.72
 12.4142  22.6461
 12.4373  22.6234
 12.4603  22.6781
 12.4833  22.7766
 12.5062  22.8286
 12.5292  22.7695
 12.5523  22.8308
 12.5753  22.8928
 12.5983  22.9844
 12.6212  23.0448
 12.6443  23.0678
 12.6673  23.077
 12.6903  23.1685
 12.7133  23.2076
 12.7363  23.1313
 12.7593  23.1358
 12.7822  23.2157
 12.8052  23.3318
 12.8283  23.3897
 12.8513  23.4454
 12.8742  23.5825
 12.8972  23.5729
 12.9203  23.6441
 12.9433  23.8203
 12.9663  23.8639
 12.9893  23.9456
 13.0123  24.0597
 13.0353  24.2583
 13.0582  24.4611
 13.0813  24.6643
 13.1043  24.9617
 13.1273  25.2236
 13.1502  25.3887
 13.1732  25.5811
 13.1963  25.7601
 13.2193  26.0682
 13.2423  26.4426
 13.2652  26.6802
 13.2883  27.0188
 13.3113  27.4327
 13.3343  27.8358
 13.3573  28.1224
 13.3803  28.2434
 13.4033  28.5449
 13.4262  28.7662
 13.4492  28.8296
 13.4723  29.0613
 13.4953  29.3376
 13.5183  29.6141
 13.5412  29.7901
 13.5643  29.8654
 13.5873  29.9087
 13.6103  29.9603
 13.6333  29.9551
 13.6563  29.8693
 13.6793  29.9408
 13.7022  29.8206
 13.7253  29.5535
 13.7483  29.4404
 13.7713  29.3778
 13.7942  29.4138
 13.8172  29.3265
 13.8403  29.1431
 13.8633  28.974
 13.8863  29.0181
 13.9093  29.4164
 13.9323  30.0737
 13.9553  30.5911
 13.9783  30.3008
 14.0013  29.2164
 14.0243  28.4053
 14.0473  27.9646
 14.0703  27.7748
 14.0932  27.5633
 14.1163  27.3067
 14.1393  27.1544
 14.1623  27.0938
 14.1852  27.1167
 14.2083  27.1315
 14.2313  26.9219
 14.2543  26.6686
 14.2773  26.4925
 14.3003  26.3454
 14.3233  26.2238
 14.3463  26.2328
 14.3692  26.2556
 14.3923  26.1842
 14.4153  26.0717
 14.4383  26.0305
 14.4612  25.9328
 14.4843  25.7184
 14.5073  25.7257
 14.5303  25.7555
 14.5533  25.6954
 14.5763  25.4631
 14.5993  25.351
 14.6223  25.3996
 14.6453  25.416
 14.6683  25.2884
 14.6913  25.3243
 14.7143  25.3092
 14.7372  25.2772
 14.7603  25.1604
 14.7833  25.133
 14.8063  25.1852
 14.8293  25.1127
 14.8523  25.0552
 14.8753  24.9506
 14.8983  25.02
 14.9213  25.0534
 14.9443  24.9968
 14.9673  24.9747
 14.9903  24.9877
 15.0132  24.9897
 15.0363  24.8755
 15.0593  24.8186
 15.0823  24.8464
 15.1052  24.8953
 15.1283  24.8827
 15.1513  25.023
 15.1743  25.3352
 15.1973  25.4042
 15.2203  25.3033
 15.2433  24.9779
 15.2663  24.7759
 15.2892  24.8093
 15.3123  24.8286
 15.3353  24.8676
 15.3583  24.8005
 15.3812  24.7573
 15.4043  24.7646
 15.4273  24.7336
 15.4503  24.641
 15.4733  24.5308
 15.4963  24.5327
 15.5193  24.5937
 15.5423  24.583
 15.5653  24.6803
 15.5883  24.7089
 15.6113  24.6992
 15.6343  24.6981
 15.6572  24.7889
 15.6803  24.7132
 15.7033  24.7351
 15.7263  24.7285
 15.7492  24.6783
 15.7723  24.6957
 15.7953  24.6607
 15.8183  24.6683
 15.8413  24.6591
 15.8643  24.6629
 15.8873  24.722
 15.9103  24.7649
 15.9332  24.7493
 15.9563  24.7502
 15.9793  24.7612
 16.0023  24.7958
 16.0253  24.7374
 16.0482  24.7801
 16.0713  24.8574
 16.0943  24.9714
 16.1172  25.0846
 16.1403  25.1087
 16.1633  25.2604
 16.1863  25.8022
 16.2093  27.244
 16.2323  29.2875
 16.2553  30.6236
 16.2783  28.9459
 16.3012  26.3492
 16.3243  25.4271
 16.3472  25.1805
 16.3703  25.007
 16.3933  25.0252
 16.4163  25.0371
 16.4393  24.8946
 16.4623  24.8526
 16.4853  24.9146
 16.5083  24.9141
 16.5312  24.8744
 16.5543  24.896
 16.5773  24.8002
 16.6002  24.8112
 16.6233  24.7877
 16.6463  24.7596
 16.6693  24.7618
 16.6923  24.7866
 16.7153  24.8062
 16.7383  24.7149
 16.7613  24.6596
 16.7843  24.589
 16.8073  24.6043
 16.8303  24.6443
 16.8533  24.6387
 16.8763  24.5937
 16.8992  24.6509
 16.9223  24.6441
 16.9453  24.522
 16.9683  24.4027
 16.9913  24.3716
 17.0143  24.4032
 17.0373  24.2512
 17.0603  24.155
 17.0832  24.2877
 17.1063  24.4294
 17.1293  24.4272
 17.1522  24.3336
 17.1753  24.2582
 17.1983  24.2636
 17.2213  24.2556
 17.2443  24.2807
 17.2673  24.2424
 17.2903  24.2109
 17.3133  24.1366
 17.3362  24.1662
 17.3593  24.1584
 17.3823  24.1161
 17.4053  24.0329
 17.4283  24.0338
 17.4513  24.1299
 17.4743  24.1141
 17.4973  24.0373
 17.5203  23.9532
 17.5433  23.9685
 17.5663  23.906
 17.5893  23.8749
 17.6123  23.9295
 17.6352  23.9371
 17.6583  23.8348
 17.6813  23.7823
 17.7042  23.7981
 17.7273  23.7932
 17.7503  23.7522
 17.7733  23.7109
 17.7963  23.7302
 17.8193  23.743
 17.8423  23.7399
 17.8653  23.8326
 17.8882  23.8673
 17.9113  23.8968
 17.9343  23.7972
 17.9573  23.7174
 17.9803  23.8047
 18.0033  23.8342
 18.0263  23.8609
 18.0493  24.0537
 18.0723  24.1953
 18.0953  24.2533
 18.1183  24.2137
 18.1413  24.0123
 18.1643  23.8594
 18.1872  23.7457
 18.2103  23.7413
 18.2333  23.7225
 18.2563  23.7498
 18.2793  23.8025
 18.3023  23.7459
 18.3253  23.6368
 18.3483  23.7152
 18.3712  23.7066
 18.3943  23.7134
 18.4173  23.6901
 18.4402  23.643
 18.4633  23.6346
 18.4863  23.6225
 18.5093  23.6252
 18.5323  23.6591
 18.5553  23.7073
 18.5783  23.6817
 18.6013  23.7202
 18.6242  23.6025
 18.6473  23.514
 18.6703  23.5268
 18.6933  23.5644
 18.7163  23.5591
 18.7392  23.5071
 18.7623  23.5179
 18.7853  23.6033
 18.8083  23.6225
 18.8313  23.5581
 18.8543  23.4875
 18.8773  23.5356
 18.9003  23.5257
 18.9232  23.6082
 18.9463  23.6822
 18.9693  23.58
 18.9922  23.4946
 19.0153  23.5378
 19.0383  23.624
 19.0613  23.6812
 19.0843  23.5922
 19.1073  23.5353
 19.1303  23.4844
 19.1533  23.5248
 19.1762  23.5221
 19.1993  23.5969
 19.2223  23.6539
 19.2453  23.7285
 19.2683  23.7429
 19.2913  23.6759
 19.3143  23.6418
 19.3373  23.6248
 19.3603  23.6529
 19.3833  23.6958
 19.4062  23.7028
 19.4293  23.6976
 19.4523  23.5857
 19.4752  23.47
 19.4983  23.4991
 19.5213  23.7072
 19.5443  23.7477
 19.5673  23.649
 19.5903  23.6744
 19.6133  23.732
 19.6363  23.8293
 19.6593  23.9722
 19.6823  24.0168
 19.7053  24.0603
 19.7283  24.0571
 19.7513  24.0427
 19.7742  23.9653
 19.7973  23.9057
 19.8203  23.9633
 19.8433  24.2008
 19.8663  24.3116
 19.8893  24.2029
 19.9123  23.9864
 19.9353  23.7697
 19.9582  23.7236
 19.9813  23.778
 20.0043  23.7792
 20.0272  23.7396
 20.0503  23.749
 20.0733  23.7502
 20.0963  23.7088
 20.1193  23.7325
 20.1423  23.8103
 20.1653  23.8368
 20.1883  23.8287
 20.2112  23.7713
 20.2343  23.7429
 20.2573  23.7451
 20.2803  23.7998
 20.3033  23.8366
 20.3263  23.8056
 20.3493  23.8012
 20.3723  23.8
 20.3953  23.8241
 20.4183  23.8173
 20.4413  23.7817
 20.4643  23.7296
 20.4873  23.7381
 20.5102  23.8009
 20.5333  23.7016
 20.5563  23.7705
 20.5792  23.8189
 20.6023  23.8336
 20.6253  23.863
 20.6483  23.8832
 20.6713  23.8732
 20.6943  23.926
 20.7173  24.0948
 20.7403  24.1572
 20.7632  24.1929
 20.7863  24.0836
 20.8093  23.986
 20.8323  23.8819
 20.8553  23.8446
 20.8783  23.796
 20.9013  23.8444
 20.9243  23.9254
 20.9473  23.9413
 20.9703  23.8476
 20.9933  23.8198
 21.0163  23.9484
 21.0393  24.0043
 21.0622  23.9891
 21.0853  24.0017
 21.1083  23.9294
 21.1313  24.007
 21.1543  23.9357
 21.1773  23.9771
 21.2003  24.0209
 21.2233  24.0084
 21.2462  23.9925
 21.2693  23.9787
 21.2923  23.9387
 21.3152  23.9413
 21.3383  24.0285
 21.3613  24.1105
 21.3843  24.1047
 21.4073  23.9935
 21.4303  23.9855
 21.4533  24.0379
 21.4763  24.0743
 21.4992  24.0275
 21.5223  24.0756
 21.5453  24.1247
 21.5683  24.0621
 21.5913  24.0877
 21.6142  24.1717
 21.6373  24.1693
 21.6603  24.1872
 21.6833  24.2245
 21.7063  24.3014
 21.7293  24.264
 21.7523  24.2296
 21.7753  24.1387
 21.7982  24.1261
 21.8213  24.2042
 21.8443  24.2066
 21.8672  24.2873
 21.8903  24.313
 21.9133  24.2826
 21.9363  24.223
 21.9593  24.2513
 21.9823  24.2859
 22.0053  24.3155
 22.0283  24.3621
 22.0512  24.3318
 22.0743  24.3259
 22.0973  24.3635
 22.1203  24.4773
 22.1433  24.7232
 22.1663  24.5959
 22.1893  24.3212
 22.2123  24.2703
 22.2353  24.3294
 22.2583  24.4081
 22.2813  24.5003
 22.3043  24.573
 22.3273  24.5843
 22.3502  24.5928
 22.3733  24.6115
 22.3963  24.5122
 22.4193  24.499
 22.4423  24.6992
 22.4653  24.6843
 22.4883  24.6897
 22.5113  24.7946
 22.5343  24.8531
 22.5573  24.8046
 22.5803  24.8294
 22.6033  24.9107
 22.6263  24.9906
 22.6493  25.0178
 22.6723  25.0793
 22.6953  25.2289
 22.7183  25.2128
 22.7413  25.2643
 22.7643  25.3228
 22.7873  25.4018
 22.8103  25.4311
 22.8333  25.5506
 22.8563  25.5868
 22.8793  25.6661
 22.9022  25.7806
 22.9253  25.897
 22.9483  25.9987
 22.9713  26.064
 22.9943  26.1924