File: test-data-xrd/xrd-map-34-ID-E/Data_0061.chi
F:\20151113_APS_34IDE\\Brian\Particle1\OCV\Data_0061.tif
2-Theta Angle (Degrees)
Intensity
       2000
 0.01725  0.0000000E+00
 0.04025  0.0000000E+00
 0.06325  0.0000000E+00
 0.08625  0.0000000E+00
 0.10925  0.0000000E+00
 0.13225  0.0000000E+00
 0.15525  0.0000000E+00
 0.17825  0.0000000E+00
 0.20125  0.0000000E+00
 0.22425  0.0000000E+00
 0.24725  0.0000000E+00
 0.27025  0.0000000E+00
 0.29325  0.0000000E+00
 0.31625  0.0000000E+00
 0.33925  0.0000000E+00
 0.36225  0.0000000E+00
 0.38525  0.0000000E+00
 0.40825  0.0000000E+00
 0.43125  0.0000000E+00
 0.45425  0.0000000E+00
 0.47725  0.0000000E+00
 0.50025  0.0000000E+00
 0.52325  0.0000000E+00
 0.54625  0.0000000E+00
 0.56925  0.0000000E+00
 0.59225  0.0000000E+00
 0.61525  0.0000000E+00
 0.63825  0.0000000E+00
 0.66125  0.0000000E+00
 0.68425  0.0000000E+00
 0.70725  0.0000000E+00
 0.73025  0.0000000E+00
 0.75325  0.0000000E+00
 0.77625  0.0000000E+00
 0.79925  0.0000000E+00
 0.82225  0.0000000E+00
 0.84525  0.0000000E+00
 0.86825  0.0000000E+00
 0.89125  0.0000000E+00
 0.91425  0.0000000E+00
 0.93725  0.0000000E+00
 0.96025  0.0000000E+00
 0.98325  0.0000000E+00
 1.00625  0.0000000E+00
 1.02925  0.0000000E+00
 1.05225  0.0000000E+00
 1.07525  0.0000000E+00
 1.09825  0.0000000E+00
 1.12125  0.0000000E+00
 1.14425  0.0000000E+00
 1.16725  0.0000000E+00
 1.19025  0.0000000E+00
 1.21325  0.0000000E+00
 1.23625  0.0000000E+00
 1.25925  0.0000000E+00
 1.28225  0.0000000E+00
 1.30525  0.0000000E+00
 1.32825  0.0000000E+00
 1.35125  0.0000000E+00
 1.37425  0.0000000E+00
 1.39725  0.0000000E+00
 1.42025  0.0000000E+00
 1.44325  0.0000000E+00
 1.46625  0.0000000E+00
 1.48925  0.0000000E+00
 1.51225  0.0000000E+00
 1.53525  0.0000000E+00
 1.55825  0.0000000E+00
 1.58125  0.0000000E+00
 1.60425  0.0000000E+00
 1.62725  0.0000000E+00
 1.65025  0.0000000E+00
 1.67325  0.0000000E+00
 1.69625  0.0000000E+00
 1.71925  0.0000000E+00
 1.74225  0.0000000E+00
 1.76525  0.0000000E+00
 1.78825  0.0000000E+00
 1.81125  0.0000000E+00
 1.83425  0.0000000E+00
 1.85725  0.0000000E+00
 1.88025  0.0000000E+00
 1.90325  0.0000000E+00
 1.92625  0.0000000E+00
 1.94925  0.0000000E+00
 1.97225  0.0000000E+00
 1.99525  0.0000000E+00
 2.01825  0.0000000E+00
 2.04125  0.0000000E+00
 2.06425  0.0000000E+00
 2.08725  0.0000000E+00
 2.11025  0.0000000E+00
 2.13325  0.0000000E+00
 2.15625  0.0000000E+00
 2.17925  0.0000000E+00
 2.20225  0.0000000E+00
 2.22525  0.0000000E+00
 2.24825  0.0000000E+00
 2.27125  0.0000000E+00
 2.29425  0.0000000E+00
 2.31725  0.0000000E+00
 2.34025  0.0000000E+00
 2.36325  0.0000000E+00
 2.38625  0.0000000E+00
 2.40925  0.0000000E+00
 2.43225  0.0000000E+00
 2.45525  0.0000000E+00
 2.47825  0.0000000E+00
 2.50125  0.0000000E+00
 2.52425  0.0000000E+00
 2.54725  0.0000000E+00
 2.57025  0.0000000E+00
 2.59325  0.0000000E+00
 2.61625  0.0000000E+00
 2.63925  0.0000000E+00
 2.66225  0.0000000E+00
 2.68525  0.0000000E+00
 2.70825  0.0000000E+00
 2.73125  0.0000000E+00
 2.75425  0.0000000E+00
 2.77725  0.0000000E+00
 2.80025  0.0000000E+00
 2.82325  33.3142
 2.84625  33.0977
 2.86925  33.5648
 2.89225  34.0617
 2.91525  34.6347
 2.93825  34.5024
 2.96125  34.9348
 2.98425  34.8186
 3.00725  35.3931
 3.03025  36.048
 3.05325  36.1306
 3.07625  35.8984
 3.09925  35.7846
 3.12225  35.6112
 3.14525  35.2852
 3.16825  35.3228
 3.19125  35.4845
 3.21425  35.516
 3.23725  35.1812
 3.26025  34.5707
 3.28325  34.2539
 3.30625  34.6432
 3.32925  34.7985
 3.35225  34.6811
 3.37525  34.2854
 3.39825  33.8068
 3.42125  33.7878
 3.44425  33.9852
 3.46725  33.9421
 3.49025  33.9499
 3.51325  34.4075
 3.53625  34.0129
 3.55925  33.7385
 3.58225  33.3171
 3.60525  33.1683
 3.62825  32.9495
 3.65125  33.0455
 3.67425  32.8718
 3.69725  32.2351
 3.72025  31.778
 3.74325  31.9404
 3.76625  32.5296
 3.78925  32.6226
 3.81225  32.5179
 3.83525  32.3534
 3.85825  32.3926
 3.88125  32.7533
 3.90425  32.7485
 3.92725  32.5444
 3.95025  32.3942
 3.97325  32.384
 3.99625  32.5104
 4.01925  32.5289
 4.04225  32.4471
 4.06525  32.2959
 4.08825  32.1623
 4.11125  32.1369
 4.13425  32.019
 4.15725  31.7713
 4.18025  31.8559
 4.20325  32.3043
 4.22625  32.5512
 4.24925  32.4947
 4.27225  32.2351
 4.29525  31.8394
 4.31825  31.8172
 4.34125  32.083
 4.36425  32.3211
 4.38725  32.4287
 4.41025  32.5244
 4.43325  32.7116
 4.45625  32.4929
 4.47925  32.3689
 4.50225  32.4251
 4.52525  32.3561
 4.54825  32.3157
 4.57125  32.3861
 4.59425  32.5271
 4.61725  32.3437
 4.64025  32.1107
 4.66325  32.396
 4.68625  32.7171
 4.70925  32.8846
 4.73225  32.4656
 4.75525  32.0977
 4.77825  32.1537
 4.80125  32.0416
 4.82425  32.2591
 4.84725  32.4173
 4.87025  32.5404
 4.89325  32.5536
 4.91625  32.7515
 4.93925  32.7036
 4.96225  32.492
 4.98525  32.6497
 5.00825  32.8792
 5.03125  32.8612
 5.05425  32.668
 5.07725  32.8318
 5.10025  32.9875
 5.12325  33.143
 5.14625  33.2662
 5.16925  33.27
 5.19225  33.3864
 5.21525  33.5259
 5.23825  33.6246
 5.26125  33.8452
 5.28425  34.0306
 5.30725  34.1789
 5.33025  34.1268
 5.35325  34.0121
 5.37625  33.9774
 5.39925  34.007
 5.42225  33.9498
 5.44525  34.0256
 5.46825  34.2358
 5.49125  34.3369
 5.51425  34.4281
 5.53725  34.6204
 5.56025  34.7257
 5.58325  34.8868
 5.60625  35.1998
 5.62925  35.1542
 5.65225  34.9213
 5.67525  35.0361
 5.69825  35.1197
 5.72125  35.3128
 5.74425  35.4507
 5.76725  35.3971
 5.79025  35.5139
 5.81325  35.576
 5.83625  35.6149
 5.85925  35.8218
 5.88225  36.3993
 5.90525  37.3525
 5.92825  39.7371
 5.95125  45.5794
 5.97425  53.0285
 5.99725  55.8833
 6.02025  48.7187
 6.04325  41.5959
 6.06625  38.1621
 6.08925  37.0567
 6.11225  36.9121
 6.13525  36.6006
 6.15825  36.4419
 6.18125  36.7441
 6.20425  36.914
 6.22725  37.0082
 6.25025  37.166
 6.27325  37.2238
 6.29625  37.3768
 6.31925  37.4919
 6.34225  37.6761
 6.36525  37.661
 6.38825  37.7557
 6.41125  37.9979
 6.43425  38.3117
 6.45725  38.4788
 6.48025  38.5709
 6.50325  38.5105
 6.52625  38.6545
 6.54925  38.8846
 6.57225  39.01
 6.59525  39.1575
 6.61825  39.3346
 6.64125  39.4978
 6.66425  39.7626
 6.68725  39.6907
 6.71025  39.7445
 6.73325  40.0006
 6.75625  40.3469
 6.77925  40.6944
 6.80225  40.8963
 6.82525  41.1088
 6.84825  41.307
 6.87125  41.2932
 6.89425  41.3275
 6.91725  41.3199
 6.94025  41.4519
 6.96325  41.5854
 6.98625  41.7221
 7.00925  41.8237
 7.03225  41.9442
 7.05525  42.0212
 7.07825  42.2067
 7.10125  42.5293
 7.12425  42.6824
 7.14725  42.7237
 7.17025  42.7423
 7.19325  42.7689
 7.21625  42.9374
 7.23925  43.0726
 7.26225  43.0322
 7.28525  43.1363
 7.30825  43.2074
 7.33125  43.381
 7.35425  43.4444
 7.37725  43.3669
 7.40025  43.4325
 7.42325  43.5313
 7.44625  43.5074
 7.46925  43.59
 7.49225  43.483
 7.51525  43.5176
 7.53825  43.5691
 7.56125  43.5525
 7.58425  43.7382
 7.60725  43.9643
 7.63025  44.072
 7.65325  44.0232
 7.67625  43.8865
 7.69925  43.8171
 7.72225  43.7071
 7.74525  43.5775
 7.76825  43.7708
 7.79125  43.7142
 7.81425  43.6508
 7.83725  43.6143
 7.86025  43.5697
 7.88325  43.4121
 7.90625  43.2537
 7.92925  43.1902
 7.95225  43.0808
 7.97525  42.8621
 7.99825  42.743
 8.02125  42.5789
 8.04425  42.6023
 8.06725  42.5591
 8.09025  42.4665
 8.11325  42.3072
 8.13625  42.1269
 8.15925  41.9332
 8.18225  41.6241
 8.20525  41.2726
 8.22825  41.0315
 8.25125  40.9132
 8.27425  40.5209
 8.29725  40.1632
 8.32025  39.8429
 8.34325  39.5219
 8.36625  39.3958
 8.38925  39.266
 8.41225  38.9783
 8.43525  38.6378
 8.45825  38.2943
 8.48125  38.1522
 8.50425  37.9007
 8.52725  37.4984
 8.55025  37.0269
 8.57325  36.5819
 8.59625  36.167
 8.61925  35.8106
 8.64225  35.5435
 8.66525  35.1457
 8.68825  34.9281
 8.71125  34.6087
 8.73425  34.169
 8.75725  33.8412
 8.78025  33.4935
 8.80325  33.162
 8.82625  32.8974
 8.84925  32.698
 8.87225  32.3699
 8.89525  31.9525
 8.91825  31.6464
 8.94125  31.3542
 8.96425  31.0269
 8.98725  30.5765
 9.01025  30.2129
 9.03325  29.9215
 9.05625  29.7223
 9.07925  29.6207
 9.10225  29.427
 9.12525  29.2785
 9.14825  29.03
 9.17125  28.6485
 9.19425  28.4395
 9.21725  28.2589
 9.24025  28.0325
 9.26325  27.8113
 9.28625  27.6666
 9.30925  27.5344
 9.33225  27.3818
 9.35525  27.2264
 9.37825  27.0683
 9.40125  26.8257
 9.42425  26.5751
 9.44725  26.4397
 9.47025  26.3885
 9.49325  26.2434
 9.51625  26.1124
 9.53925  26.0276
 9.56225  25.8476
 9.58525  25.7032
 9.60825  25.6709
 9.63125  25.5997
 9.65425  25.4065
 9.67725  25.1612
 9.70025  25.1199
 9.72325  25.1532
 9.74625  25.1677
 9.76925  25.0548
 9.79225  24.9834
 9.81525  24.8534
 9.83825  24.6225
 9.86125  24.5491
 9.88425  24.4419
 9.90725  24.4556
 9.93025  24.3784
 9.95325  24.297
 9.97625  24.339
 9.99925  24.2783
 10.0222  24.1903
 10.0453  24.1834
 10.0683  24.1125
 10.0913  24.0214
 10.1143  23.9672
 10.1373  23.8461
 10.1603  23.6878
 10.1832  23.6997
 10.2063  23.7325
 10.2293  23.6492
 10.2523  23.5926
 10.2752  23.5743
 10.2982  23.4742
 10.3213  23.2904
 10.3443  23.186
 10.3673  23.197
 10.3902  23.2739
 10.4133  23.3254
 10.4363  23.2693
 10.4593  23.1383
 10.4823  23.1092
 10.5053  23.2532
 10.5283  23.2176
 10.5512  23.0508
 10.5742  22.9437
 10.5973  22.9011
 10.6203  22.9351
 10.6433  22.8893
 10.6662  22.9075
 10.6893  22.9679
 10.7123  23.0472
 10.7353  22.977
 10.7583  22.7544
 10.7813  22.6879
 10.8043  22.6407
 10.8272  22.6167
 10.8503  22.6413
 10.8733  22.6773
 10.8963  22.6393
 10.9192  22.6588
 10.9422  22.6273
 10.9653  22.5725
 10.9883  22.5151
 11.0113  22.482
 11.0343  22.5652
 11.0573  22.4904
 11.0803  22.4645
 11.1033  22.5466
 11.1263  22.604
 11.1493  22.5705
 11.1723  22.6044
 11.1953  22.5451
 11.2182  22.4826
 11.2413  22.4291
 11.2643  22.4173
 11.2873  22.3663
 11.3102  22.4429
 11.3333  22.5007
 11.3563  22.5474
 11.3793  22.6618
 11.4023  22.8712
 11.4253  22.8596
 11.4483  22.7865
 11.4713  22.8624
 11.4942  22.9216
 11.5173  23.1035
 11.5403  23.9753
 11.5633  25.9269
 11.5862  28.1359
 11.6093  28.5058
 11.6323  26.2602
 11.6553  24.2503
 11.6783  23.2169
 11.7013  22.6767
 11.7243  22.5173
 11.7473  22.5724
 11.7703  22.6012
 11.7933  22.6369
 11.8163  22.7104
 11.8393  22.8428
 11.8622  22.9126
 11.8853  22.9914
 11.9083  23.3529
 11.9313  25.0003
 11.9543  28.2017
 11.9773  30.3293
 12.0003  29.6419
 12.0233  27.2497
 12.0463  26.3949
 12.0693  27.1738
 12.0923  28.702
 12.1153  28.6052
 12.1382  26.6446
 12.1613  24.6347
 12.1843  23.3268
 12.2073  22.8675
 12.2302  22.6663
 12.2533  22.6153
 12.2763  22.5169
 12.2993  22.4859
 12.3223  22.4773
 12.3453  22.481
 12.3683  22.5116
 12.3913  22.4948
 12.4142  22.4011
 12.4373  22.4502
 12.4603  22.6537
 12.4833  22.7368
 12.5062  22.6392
 12.5292  22.5627
 12.5523  22.6136
 12.5753  22.5811
 12.5983  22.6112
 12.6212  22.734
 12.6443  22.7002
 12.6673  22.7287
 12.6903  22.8074
 12.7133  22.9039
 12.7363  22.9026
 12.7593  22.9663
 12.7822  23.0347
 12.8052  23.054
 12.8283  23.2615
 12.8513  23.3342
 12.8742  23.3492
 12.8972  23.2981
 12.9203  23.3974
 12.9433  23.5822
 12.9663  23.6604
 12.9893  23.7193
 13.0123  23.853
 13.0353  24.0919
 13.0582  24.2181
 13.0813  24.3411
 13.1043  24.6264
 13.1273  24.8496
 13.1502  24.9514
 13.1732  25.2269
 13.1963  25.618
 13.2193  25.934
 13.2423  26.2468
 13.2652  26.3788
 13.2883  26.5433
 13.3113  26.8394
 13.3343  27.227
 13.3573  27.6179
 13.3803  27.9182
 13.4033  28.1629
 13.4262  28.279
 13.4492  28.5439
 13.4723  28.7588
 13.4953  29.0055
 13.5183  29.2355
 13.5412  29.4405
 13.5643  29.4441
 13.5873  29.5296
 13.6103  29.5581
 13.6333  29.503
 13.6563  29.6483
 13.6793  29.7042
 13.7022  29.6342
 13.7253  29.6258
 13.7483  29.6725
 13.7713  29.6103
 13.7942  29.589
 13.8172  29.6618
 13.8403  29.9773
 13.8633  30.7166
 13.8863  32.4565
 13.9093  37.4549
 13.9323  46.1522
 13.9553  54.3805
 13.9783  54.2285
 14.0013  43.7694
 14.0243  34.9636
 14.0473  30.7029
 14.0703  28.9675
 14.0932  28.1945
 14.1163  27.8133
 14.1393  27.5405
 14.1623  27.359
 14.1852  27.0973
 14.2083  26.9368
 14.2313  26.7345
 14.2543  26.5489
 14.2773  26.4142
 14.3003  26.2015
 14.3233  26.0015
 14.3463  25.9348
 14.3692  26.0153
 14.3923  26.0054
 14.4153  25.9551
 14.4383  25.8428
 14.4612  25.7999
 14.4843  25.7143
 14.5073  25.6833
 14.5303  25.6566
 14.5533  25.6058
 14.5763  25.4691
 14.5993  25.2819
 14.6223  25.2269
 14.6453  25.2269
 14.6683  25.1612
 14.6913  25.152
 14.7143  25.1708
 14.7372  25.0157
 14.7603  25.0786
 14.7833  25.1095
 14.8063  25.0285
 14.8293  24.9245
 14.8523  24.8866
 14.8753  24.7943
 14.8983  24.9008
 14.9213  24.9252
 14.9443  24.9654
 14.9673  24.8434
 14.9903  24.7573
 15.0132  24.8092
 15.0363  24.8066
 15.0593  24.7129
 15.0823  24.7533
 15.1052  24.8898
 15.1283  25.1216
 15.1513  25.6077
 15.1743  26.5046
 15.1973  27.372
 15.2203  27.2574
 15.2433  26.2591
 15.2663  25.1431
 15.2892  24.799
 15.3123  24.7095
 15.3353  24.6646
 15.3583  24.5591
 15.3812  24.5693
 15.4043  24.6582
 15.4273  24.5445
 15.4503  24.4877
 15.4733  24.4814
 15.4963  24.4876
 15.5193  24.5314
 15.5423  24.4986
 15.5653  24.5242
 15.5883  24.5943
 15.6113  24.5328
 15.6343  24.4778
 15.6572  24.4947
 15.6803  24.6098
 15.7033  24.672
 15.7263  24.6495
 15.7492  24.5975
 15.7723  24.6104
 15.7953  24.5497
 15.8183  24.6525
 15.8413  24.5813
 15.8643  24.565
 15.8873  24.5891
 15.9103  24.6575
 15.9332  24.7341
 15.9563  24.6363
 15.9793  24.614
 16.0023  24.6518
 16.0253  24.6257
 16.0482  24.6203
 16.0713  24.5605
 16.0943  24.6323
 16.1172  24.7341
 16.1403  24.737
 16.1633  24.7967
 16.1863  24.9521
 16.2093  25.1773
 16.2323  25.3919
 16.2553  25.6731
 16.2783  25.6789
 16.3012  25.208
 16.3243  24.8678
 16.3472  24.7693
 16.3703  24.7405
 16.3933  24.7978
 16.4163  24.8866
 16.4393  24.7821
 16.4623  24.6552
 16.4853  24.6694
 16.5083  24.6634
 16.5312  24.6107
 16.5543  24.67
 16.5773  24.693
 16.6002  24.6502
 16.6233  24.5458
 16.6463  24.5214
 16.6693  24.5167
 16.6923  24.5257
 16.7153  24.5462
 16.7383  24.5021
 16.7613  24.5286
 16.7843  24.4834
 16.8073  24.4953
 16.8303  24.522
 16.8533  24.4053
 16.8763  24.336
 16.8992  24.3014
 16.9223  24.2704
 16.9453  24.2011
 16.9683  24.2795
 16.9913  24.3096
 17.0143  24.305
 17.0373  24.2584
 17.0603  24.192
 17.0832  24.219
 17.1063  24.1983
 17.1293  24.1167
 17.1522  24.0736
 17.1753  24.069
 17.1983  24.1135
 17.2213  24.0947
 17.2443  24.1213
 17.2673  23.987
 17.2903  23.9535
 17.3133  24.0017
 17.3362  24.0385
 17.3593  24.0428
 17.3823  24.0563
 17.4053  23.9196
 17.4283  23.8832
 17.4513  23.9949
 17.4743  24.0015
 17.4973  23.9343
 17.5203  23.879
 17.5433  23.9129
 17.5663  23.8519
 17.5893  23.7873
 17.6123  23.8362
 17.6352  23.9415
 17.6583  23.9438
 17.6813  23.9336
 17.7042  23.8827
 17.7273  23.84
 17.7503  23.8528
 17.7733  23.793
 17.7963  23.7294
 17.8193  23.6734
 17.8423  23.6493
 17.8653  23.672
 17.8882  23.6716
 17.9113  23.7413
 17.9343  23.7814
 17.9573  23.7989
 17.9803  24.0792
 18.0033  24.3738
 18.0263  24.7839
 18.0493  25.3726
 18.0723  25.7105
 18.0953  25.9293
 18.1183  26.0457
 18.1413  25.6019
 18.1643  24.7388
 18.1872  24.0416
 18.2103  23.8036
 18.2333  23.7269
 18.2563  23.6496
 18.2793  23.6446
 18.3023  23.7157
 18.3253  23.6602
 18.3483  23.6132
 18.3712  23.5854
 18.3943  23.5479
 18.4173  23.5983
 18.4402  23.5542
 18.4633  23.5511
 18.4863  23.5699
 18.5093  23.6243
 18.5323  23.6258
 18.5553  23.6138
 18.5783  23.7016
 18.6013  23.6976
 18.6242  23.5788
 18.6473  23.6214
 18.6703  23.5789
 18.6933  23.6348
 18.7163  23.5251
 18.7392  23.5077
 18.7623  23.4562
 18.7853  23.4914
 18.8083  23.4659
 18.8313  23.4568
 18.8543  23.4728
 18.8773  23.5143
 18.9003  23.5139
 18.9232  23.4813
 18.9463  23.4805
 18.9693  23.4681
 18.9922  23.3942
 19.0153  23.345
 19.0383  23.4834
 19.0613  23.5316
 19.0843  23.5436
 19.1073  23.5397
 19.1303  23.4988
 19.1533  23.4747
 19.1762  23.4815
 19.1993  23.5651
 19.2223  23.5884
 19.2453  23.6002
 19.2683  23.6154
 19.2913  23.6145
 19.3143  23.678
 19.3373  23.6646
 19.3603  23.6125
 19.3833  23.6911
 19.4062  23.7402
 19.4293  23.7179
 19.4523  23.7184
 19.4752  23.6737
 19.4983  23.6199
 19.5213  23.6724
 19.5443  23.8507
 19.5673  23.8348
 19.5903  23.9718
 19.6133  24.1345
 19.6363  24.4402
 19.6593  25.219
 19.6823  25.9885
 19.7053  27.055
 19.7283  27.295
 19.7513  26.8346
 19.7742  26.641
 19.7973  27.7381
 19.8203  29.1253
 19.8433  28.9966
 19.8663  28.6832
 19.8893  27.8246
 19.9123  26.6436
 19.9353  25.4291
 19.9582  24.6042
 19.9813  24.164
 20.0043  23.917
 20.0272  23.8541
 20.0503  23.8269
 20.0733  23.7514
 20.0963  23.7073
 20.1193  23.6721
 20.1423  23.7024
 20.1653  23.6946
 20.1883  23.7369
 20.2112  23.8297
 20.2343  23.891
 20.2573  23.8315
 20.2803  23.6876
 20.3033  23.6206
 20.3263  23.5874
 20.3493  23.646
 20.3723  23.7208
 20.3953  23.7535
 20.4183  23.8453
 20.4413  23.8597
 20.4643  23.8196
 20.4873  23.851
 20.5102  23.7831
 20.5333  23.8373
 20.5563  23.8858
 20.5792  23.8998
 20.6023  23.9702
 20.6253  23.9904
 20.6483  24.0372
 20.6713  24.2379
 20.6943  24.6791
 20.7173  25.4029
 20.7403  26.5691
 20.7632  27.5523
 20.7863  26.9615
 20.8093  25.766
 20.8323  24.8649
 20.8553  24.4216
 20.8783  24.1294
 20.9013  24.0783
 20.9243  24.0819
 20.9473  24.0689
 20.9703  24.0033
 20.9933  23.9501
 21.0163  23.8997
 21.0393  23.9833
 21.0622  24.0049
 21.0853  24.0123
 21.1083  24.0148
 21.1313  24.0576
 21.1543  24.0081
 21.1773  23.9131
 21.2003  23.9242
 21.2233  24.0374
 21.2462  24.0793
 21.2693  24.0714
 21.2923  23.9399
 21.3152  23.9646
 21.3383  24.0197
 21.3613  24.0349
 21.3843  24.1064
 21.4073  24.0442
 21.4303  23.9809
 21.4533  23.9789
 21.4763  23.9794
 21.4992  24.0351
 21.5223  24.02
 21.5453  23.9976
 21.5683  24.0063
 21.5913  24.0843
 21.6142  24.2133
 21.6373  24.2396
 21.6603  24.2019
 21.6833  24.2487
 21.7063  24.293
 21.7293  24.2402
 21.7523  24.2211
 21.7753  24.1855
 21.7982  24.1768
 21.8213  24.203
 21.8443  24.1666
 21.8672  24.2311
 21.8903  24.1899
 21.9133  24.2637
 21.9363  24.2555
 21.9593  24.2813
 21.9823  24.2787
 22.0053  24.2904
 22.0283  24.3001
 22.0512  24.2992
 22.0743  24.2983
 22.0973  24.2769
 22.1203  24.3578
 22.1433  24.4402
 22.1663  24.4135
 22.1893  24.3271
 22.2123  24.3632
 22.2353  24.4509
 22.2583  24.4055
 22.2813  24.474
 22.3043  24.5433
 22.3273  24.5107
 22.3502  24.5602
 22.3733  24.6122
 22.3963  24.5099
 22.4193  24.4274
 22.4423  24.5932
 22.4653  24.6301
 22.4883  24.5667
 22.5113  24.5933
 22.5343  24.6848
 22.5573  24.7432
 22.5803  24.823
 22.6033  24.9459
 22.6263  24.9827
 22.6493  24.9039
 22.6723  24.9914
 22.6953  25.1264
 22.7183  25.1856
 22.7413  25.2435
 22.7643  25.3215
 22.7873  25.3645
 22.8103  25.4733
 22.8333  25.5864
 22.8563  25.5556
 22.8793  25.6499
 22.9022  25.8312
 22.9253  26.1132
 22.9483  26.1937
 22.9713  26.3195
 22.9943  26.4852