File: test-data-xrd/xrd-map-34-ID-E/Data_0015.chi
F:\20151113_APS_34IDE\\Brian\Particle1\OCV\Data_0015.tif
2-Theta Angle (Degrees)
Intensity
       2000
 0.01725  0.0000000E+00
 0.04025  0.0000000E+00
 0.06325  0.0000000E+00
 0.08625  0.0000000E+00
 0.10925  0.0000000E+00
 0.13225  0.0000000E+00
 0.15525  0.0000000E+00
 0.17825  0.0000000E+00
 0.20125  0.0000000E+00
 0.22425  0.0000000E+00
 0.24725  0.0000000E+00
 0.27025  0.0000000E+00
 0.29325  0.0000000E+00
 0.31625  0.0000000E+00
 0.33925  0.0000000E+00
 0.36225  0.0000000E+00
 0.38525  0.0000000E+00
 0.40825  0.0000000E+00
 0.43125  0.0000000E+00
 0.45425  0.0000000E+00
 0.47725  0.0000000E+00
 0.50025  0.0000000E+00
 0.52325  0.0000000E+00
 0.54625  0.0000000E+00
 0.56925  0.0000000E+00
 0.59225  0.0000000E+00
 0.61525  0.0000000E+00
 0.63825  0.0000000E+00
 0.66125  0.0000000E+00
 0.68425  0.0000000E+00
 0.70725  0.0000000E+00
 0.73025  0.0000000E+00
 0.75325  0.0000000E+00
 0.77625  0.0000000E+00
 0.79925  0.0000000E+00
 0.82225  0.0000000E+00
 0.84525  0.0000000E+00
 0.86825  0.0000000E+00
 0.89125  0.0000000E+00
 0.91425  0.0000000E+00
 0.93725  0.0000000E+00
 0.96025  0.0000000E+00
 0.98325  0.0000000E+00
 1.00625  0.0000000E+00
 1.02925  0.0000000E+00
 1.05225  0.0000000E+00
 1.07525  0.0000000E+00
 1.09825  0.0000000E+00
 1.12125  0.0000000E+00
 1.14425  0.0000000E+00
 1.16725  0.0000000E+00
 1.19025  0.0000000E+00
 1.21325  0.0000000E+00
 1.23625  0.0000000E+00
 1.25925  0.0000000E+00
 1.28225  0.0000000E+00
 1.30525  0.0000000E+00
 1.32825  0.0000000E+00
 1.35125  0.0000000E+00
 1.37425  0.0000000E+00
 1.39725  0.0000000E+00
 1.42025  0.0000000E+00
 1.44325  0.0000000E+00
 1.46625  0.0000000E+00
 1.48925  0.0000000E+00
 1.51225  0.0000000E+00
 1.53525  0.0000000E+00
 1.55825  0.0000000E+00
 1.58125  0.0000000E+00
 1.60425  0.0000000E+00
 1.62725  0.0000000E+00
 1.65025  0.0000000E+00
 1.67325  0.0000000E+00
 1.69625  0.0000000E+00
 1.71925  0.0000000E+00
 1.74225  0.0000000E+00
 1.76525  0.0000000E+00
 1.78825  0.0000000E+00
 1.81125  0.0000000E+00
 1.83425  0.0000000E+00
 1.85725  0.0000000E+00
 1.88025  0.0000000E+00
 1.90325  0.0000000E+00
 1.92625  0.0000000E+00
 1.94925  0.0000000E+00
 1.97225  0.0000000E+00
 1.99525  0.0000000E+00
 2.01825  0.0000000E+00
 2.04125  0.0000000E+00
 2.06425  0.0000000E+00
 2.08725  0.0000000E+00
 2.11025  0.0000000E+00
 2.13325  0.0000000E+00
 2.15625  0.0000000E+00
 2.17925  0.0000000E+00
 2.20225  0.0000000E+00
 2.22525  0.0000000E+00
 2.24825  0.0000000E+00
 2.27125  0.0000000E+00
 2.29425  0.0000000E+00
 2.31725  0.0000000E+00
 2.34025  0.0000000E+00
 2.36325  0.0000000E+00
 2.38625  0.0000000E+00
 2.40925  0.0000000E+00
 2.43225  0.0000000E+00
 2.45525  0.0000000E+00
 2.47825  0.0000000E+00
 2.50125  0.0000000E+00
 2.52425  0.0000000E+00
 2.54725  0.0000000E+00
 2.57025  0.0000000E+00
 2.59325  0.0000000E+00
 2.61625  0.0000000E+00
 2.63925  0.0000000E+00
 2.66225  0.0000000E+00
 2.68525  0.0000000E+00
 2.70825  0.0000000E+00
 2.73125  0.0000000E+00
 2.75425  0.0000000E+00
 2.77725  0.0000000E+00
 2.80025  0.0000000E+00
 2.82325  35.7656
 2.84625  33.4254
 2.86925  34.3189
 2.89225  35.4998
 2.91525  36.6834
 2.93825  37.6924
 2.96125  37.4921
 2.98425  36.6947
 3.00725  36.3889
 3.03025  36.5274
 3.05325  36.251
 3.07625  36.0346
 3.09925  36.6659
 3.12225  36.6123
 3.14525  36.3288
 3.16825  35.9713
 3.19125  35.3646
 3.21425  35.0805
 3.23725  35.4569
 3.26025  35.345
 3.28325  35.1077
 3.30625  34.152
 3.32925  33.8559
 3.35225  34.3502
 3.37525  34.9229
 3.39825  35.2131
 3.42125  34.7539
 3.44425  34.0617
 3.46725  34.095
 3.49025  35.1806
 3.51325  34.9305
 3.53625  34.0581
 3.55925  33.7847
 3.58225  33.6819
 3.60525  33.3611
 3.62825  33.1082
 3.65125  33.4112
 3.67425  33.5375
 3.69725  33.2865
 3.72025  32.9029
 3.74325  33.0434
 3.76625  33.0389
 3.78925  32.9215
 3.81225  32.7421
 3.83525  32.9192
 3.85825  32.9957
 3.88125  33.1429
 3.90425  32.8028
 3.92725  32.4131
 3.95025  32.4894
 3.97325  32.6207
 3.99625  32.8356
 4.01925  32.8797
 4.04225  32.5796
 4.06525  32.4846
 4.08825  32.5641
 4.11125  32.7897
 4.13425  32.7521
 4.15725  32.5885
 4.18025  32.4707
 4.20325  32.4599
 4.22625  32.3762
 4.24925  32.4957
 4.27225  32.8027
 4.29525  33.0227
 4.31825  32.9518
 4.34125  32.8617
 4.36425  32.4328
 4.38725  32.5428
 4.41025  32.9407
 4.43325  33.0985
 4.45625  33.079
 4.47925  33.1856
 4.50225  33.0494
 4.52525  32.7497
 4.54825  32.4999
 4.57125  32.5394
 4.59425  32.5076
 4.61725  32.5061
 4.64025  32.5333
 4.66325  32.8377
 4.68625  33.0931
 4.70925  33.0989
 4.73225  33.13
 4.75525  33.0858
 4.77825  33.0694
 4.80125  32.8471
 4.82425  32.6854
 4.84725  32.6935
 4.87025  32.9886
 4.89325  33.1768
 4.91625  33.2704
 4.93925  33.1943
 4.96225  33.1661
 4.98525  33.2351
 5.00825  33.2961
 5.03125  33.2752
 5.05425  33.2892
 5.07725  33.572
 5.10025  33.7878
 5.12325  33.8785
 5.14625  34.0005
 5.16925  33.9321
 5.19225  33.839
 5.21525  33.7998
 5.23825  33.8775
 5.26125  34.0198
 5.28425  34.0099
 5.30725  34.158
 5.33025  34.3324
 5.35325  34.3441
 5.37625  34.4603
 5.39925  34.7274
 5.42225  34.7723
 5.44525  34.8604
 5.46825  34.8885
 5.49125  34.8442
 5.51425  34.9358
 5.53725  34.9891
 5.56025  35.0927
 5.58325  35.4243
 5.60625  35.5863
 5.62925  35.4347
 5.65225  35.4389
 5.67525  35.6211
 5.69825  35.7287
 5.72125  35.6846
 5.74425  35.79
 5.76725  36.0256
 5.79025  36.0598
 5.81325  35.9207
 5.83625  36.0584
 5.85925  36.241
 5.88225  36.6664
 5.90525  37.3596
 5.92825  39.0779
 5.95125  43.2711
 5.97425  48.2649
 5.99725  49.4185
 6.02025  45.2462
 6.04325  40.7989
 6.06625  38.3206
 6.08925  37.6672
 6.11225  37.373
 6.13525  37.0718
 6.15825  36.9918
 6.18125  37.2538
 6.20425  37.3379
 6.22725  37.501
 6.25025  37.471
 6.27325  37.5335
 6.29625  37.6858
 6.31925  37.7985
 6.34225  38.128
 6.36525  38.3152
 6.38825  38.5588
 6.41125  38.7604
 6.43425  38.8929
 6.45725  38.9554
 6.48025  39.1925
 6.50325  39.5623
 6.52625  39.6393
 6.54925  39.6482
 6.57225  39.7182
 6.59525  39.7711
 6.61825  39.9178
 6.64125  40.2778
 6.66425  40.6278
 6.68725  40.5681
 6.71025  40.6675
 6.73325  40.8166
 6.75625  41.0203
 6.77925  41.2148
 6.80225  41.3193
 6.82525  41.5478
 6.84825  41.7193
 6.87125  41.9657
 6.89425  42.0229
 6.91725  42.1138
 6.94025  42.2467
 6.96325  42.4282
 6.98625  42.5403
 7.00925  42.476
 7.03225  42.7445
 7.05525  42.8881
 7.07825  43.0529
 7.10125  43.2182
 7.12425  43.3347
 7.14725  43.3676
 7.17025  43.3734
 7.19325  43.4011
 7.21625  43.573
 7.23925  43.7651
 7.26225  44.1113
 7.28525  44.2136
 7.30825  44.2393
 7.33125  44.1833
 7.35425  44.2262
 7.37725  44.2905
 7.40025  44.3573
 7.42325  44.516
 7.44625  44.6501
 7.46925  44.6552
 7.49225  44.6327
 7.51525  44.6931
 7.53825  44.7788
 7.56125  44.8188
 7.58425  44.8768
 7.60725  44.9938
 7.63025  45.0031
 7.65325  44.9358
 7.67625  44.7977
 7.69925  44.8368
 7.72225  44.9501
 7.74525  44.9753
 7.76825  44.8771
 7.79125  44.8141
 7.81425  44.6042
 7.83725  44.5922
 7.86025  44.6905
 7.88325  44.6772
 7.90625  44.4363
 7.92925  44.3324
 7.95225  44.3038
 7.97525  44.0211
 7.99825  43.8956
 8.02125  43.6677
 8.04425  43.6647
 8.06725  43.538
 8.09025  43.4778
 8.11325  43.5151
 8.13625  43.2711
 8.15925  42.9722
 8.18225  42.6817
 8.20525  42.3969
 8.22825  42.1331
 8.25125  42.064
 8.27425  41.8651
 8.29725  41.584
 8.32025  41.2949
 8.34325  41.0625
 8.36625  40.7108
 8.38925  40.2876
 8.41225  39.947
 8.43525  39.4682
 8.45825  39.0613
 8.48125  38.8144
 8.50425  38.5052
 8.52725  38.2484
 8.55025  37.926
 8.57325  37.569
 8.59625  37.3402
 8.61925  37.1932
 8.64225  36.7464
 8.66525  36.2617
 8.68825  35.8427
 8.71125  35.4068
 8.73425  35.0885
 8.75725  34.9109
 8.78025  34.6741
 8.80325  34.2637
 8.82625  33.8449
 8.84925  33.4799
 8.87225  33.2259
 8.89525  32.8306
 8.91825  32.5662
 8.94125  32.2324
 8.96425  32.1123
 8.98725  31.9159
 9.01025  31.5873
 9.03325  31.3185
 9.05625  31.0132
 9.07925  30.7748
 9.10225  30.339
 9.12525  30.1224
 9.14825  29.9432
 9.17125  29.732
 9.19425  29.5756
 9.21725  29.3607
 9.24025  29.0967
 9.26325  28.8783
 9.28625  28.664
 9.30925  28.5445
 9.33225  28.3904
 9.35525  28.2132
 9.37825  27.9971
 9.40125  27.6894
 9.42425  27.4445
 9.44725  27.2414
 9.47025  27.1242
 9.49325  27.0863
 9.51625  26.9154
 9.53925  26.7971
 9.56225  26.648
 9.58525  26.5021
 9.60825  26.5784
 9.63125  26.4524
 9.65425  26.2506
 9.67725  25.9453
 9.70025  25.6716
 9.72325  25.7052
 9.74625  25.6884
 9.76925  25.7283
 9.79225  25.7666
 9.81525  25.7156
 9.83825  25.6338
 9.86125  25.4427
 9.88425  25.2008
 9.90725  25.1017
 9.93025  25.16
 9.95325  25.0995
 9.97625  24.9704
 9.99925  24.7944
 10.0222  24.7249
 10.0453  24.7639
 10.0683  24.7297
 10.0913  24.6828
 10.1143  24.6903
 10.1373  24.663
 10.1603  24.554
 10.1832  24.4757
 10.2063  24.38
 10.2293  24.3986
 10.2523  24.3125
 10.2752  24.2852
 10.2982  24.335
 10.3213  24.3586
 10.3443  24.3163
 10.3673  24.2172
 10.3902  24.173
 10.4133  24.0907
 10.4363  24.0247
 10.4593  23.9324
 10.4823  23.9606
 10.5053  24.0478
 10.5283  23.9521
 10.5512  23.8533
 10.5742  23.7297
 10.5973  23.5569
 10.6203  23.5681
 10.6433  23.6128
 10.6662  23.6439
 10.6893  23.5631
 10.7123  23.5304
 10.7353  23.44
 10.7583  23.3417
 10.7813  23.3391
 10.8043  23.3527
 10.8272  23.331
 10.8503  23.317
 10.8733  23.3842
 10.8963  23.2908
 10.9192  23.2416
 10.9422  23.184
 10.9653  23.2103
 10.9883  23.2875
 11.0113  23.1702
 11.0343  23.0751
 11.0573  23.0712
 11.0803  23.1038
 11.1033  23.1164
 11.1263  23.1598
 11.1493  23.115
 11.1723  23.0516
 11.1953  23.0125
 11.2182  22.9817
 11.2413  22.9812
 11.2643  22.9068
 11.2873  22.891
 11.3102  22.96
 11.3333  22.9651
 11.3563  23.0347
 11.3793  23.0895
 11.4023  23.1976
 11.4253  23.2275
 11.4483  23.2064
 11.4713  23.2182
 11.4942  23.3319
 11.5173  23.6549
 11.5403  24.3422
 11.5633  26.4857
 11.5862  28.8682
 11.6093  29.2632
 11.6323  26.4305
 11.6553  24.3867
 11.6783  23.4342
 11.7013  23.0505
 11.7243  22.9306
 11.7473  22.9305
 11.7703  22.8768
 11.7933  22.9619
 11.8163  22.9368
 11.8393  22.9042
 11.8622  22.8652
 11.8853  22.8343
 11.9083  22.9228
 11.9313  23.1112
 11.9543  23.3214
 11.9773  23.5973
 12.0003  23.8006
 12.0233  23.7578
 12.0463  24.018
 12.0693  24.6964
 12.0923  25.5475
 12.1153  25.2985
 12.1382  24.5066
 12.1613  23.7057
 12.1843  23.2547
 12.2073  23.0797
 12.2302  22.9346
 12.2533  22.885
 12.2763  22.8709
 12.2993  23.0187
 12.3223  23.1585
 12.3453  23.1687
 12.3683  22.9882
 12.3913  22.981
 12.4142  22.9727
 12.4373  22.9962
 12.4603  23.1054
 12.4833  23.117
 12.5062  23.0713
 12.5292  23.0565
 12.5523  23.125
 12.5753  23.1028
 12.5983  23.1611
 12.6212  23.2951
 12.6443  23.3273
 12.6673  23.3024
 12.6903  23.3364
 12.7133  23.4669
 12.7363  23.5511
 12.7593  23.5655
 12.7822  23.5872
 12.8052  23.5843
 12.8283  23.6619
 12.8513  23.6995
 12.8742  23.8233
 12.8972  23.9669
 12.9203  24.013
 12.9433  24.0759
 12.9663  24.1988
 12.9893  24.3391
 13.0123  24.3934
 13.0353  24.5655
 13.0582  24.7213
 13.0813  24.855
 13.1043  25.127
 13.1273  25.3935
 13.1502  25.5871
 13.1732  25.7293
 13.1963  25.9642
 13.2193  26.32
 13.2423  26.765
 13.2652  27.0528
 13.2883  27.2172
 13.3113  27.3793
 13.3343  27.7159
 13.3573  28.0583
 13.3803  28.372
 13.4033  28.7417
 13.4262  28.9369
 13.4492  29.0504
 13.4723  29.1963
 13.4953  29.4961
 13.5183  29.7482
 13.5412  29.8385
 13.5643  29.9446
 13.5873  30.0737
 13.6103  30.1922
 13.6333  30.2558
 13.6563  30.1624
 13.6793  30.1379
 13.7022  29.9504
 13.7253  29.844
 13.7483  29.8378
 13.7713  29.8772
 13.7942  29.9485
 13.8172  29.9173
 13.8403  30.0362
 13.8633  30.4628
 13.8863  31.3132
 13.9093  33.2571
 13.9323  36.5588
 13.9553  37.9411
 13.9783  36.1944
 14.0013  32.6567
 14.0243  30.0638
 14.0473  28.921
 14.0703  28.4383
 14.0932  28.1041
 14.1163  27.8516
 14.1393  27.7191
 14.1623  27.5887
 14.1852  27.369
 14.2083  27.2019
 14.2313  27.0393
 14.2543  26.9019
 14.2773  26.7666
 14.3003  26.8108
 14.3233  26.7298
 14.3463  26.5598
 14.3692  26.525
 14.3923  26.453
 14.4153  26.3737
 14.4383  26.2889
 14.4612  26.1043
 14.4843  26.0477
 14.5073  26.1201
 14.5303  26.1105
 14.5533  26.037
 14.5763  26.0618
 14.5993  25.9767
 14.6223  25.8467
 14.6453  25.7727
 14.6683  25.7373
 14.6913  25.6907
 14.7143  25.6243
 14.7372  25.5758
 14.7603  25.5252
 14.7833  25.402
 14.8063  25.3982
 14.8293  25.4412
 14.8523  25.5118
 14.8753  25.4268
 14.8983  25.497
 14.9213  25.4628
 14.9443  25.4163
 14.9673  25.4304
 14.9903  25.4068
 15.0132  25.3922
 15.0363  25.395
 15.0593  25.2939
 15.0823  25.2432
 15.1052  25.3556
 15.1283  25.4151
 15.1513  25.6742
 15.1743  26.1815
 15.1973  26.4432
 15.2203  26.3149
 15.2433  25.8343
 15.2663  25.2972
 15.2892  25.2143
 15.3123  25.2142
 15.3353  25.1026
 15.3583  24.9534
 15.3812  24.9354
 15.4043  24.9115
 15.4273  24.8132
 15.4503  24.8215
 15.4733  24.8138
 15.4963  24.9784
 15.5193  24.9288
 15.5423  24.8879
 15.5653  24.8984
 15.5883  24.9249
 15.6113  24.8586
 15.6343  24.895
 15.6572  25.0292
 15.6803  25.0551
 15.7033  25.0069
 15.7263  25.0148
 15.7492  25.0194
 15.7723  25.0429
 15.7953  25.0811
 15.8183  24.9735
 15.8413  24.8832
 15.8643  24.921
 15.8873  24.8751
 15.9103  24.9168
 15.9332  24.9521
 15.9563  24.9074
 15.9793  25.049
 16.0023  25.1717
 16.0253  25.1993
 16.0482  25.1995
 16.0713  25.1094
 16.0943  25.075
 16.1172  25.2252
 16.1403  25.2873
 16.1633  25.3719
 16.1863  25.6997
 16.2093  26.2239
 16.2323  26.6322
 16.2553  26.8654
 16.2783  26.6383
 16.3012  25.8932
 16.3243  25.3974
 16.3472  25.0578
 16.3703  24.9288
 16.3933  25.0078
 16.4163  25.2579
 16.4393  25.2261
 16.4623  25.1043
 16.4853  25.142
 16.5083  25.1473
 16.5312  25.0966
 16.5543  25.2147
 16.5773  25.2239
 16.6002  25.1082
 16.6233  25.0604
 16.6463  24.9743
 16.6693  24.9511
 16.6923  24.8261
 16.7153  24.7776
 16.7383  24.7848
 16.7613  24.7556
 16.7843  24.7613
 16.8073  24.7495
 16.8303  24.7594
 16.8533  24.7578
 16.8763  24.858
 16.8992  24.8715
 16.9223  24.8233
 16.9453  24.744
 16.9683  24.7324
 16.9913  24.7651
 17.0143  24.7432
 17.0373  24.6922
 17.0603  24.5853
 17.0832  24.6553
 17.1063  24.6423
 17.1293  24.6092
 17.1522  24.6182
 17.1753  24.6344
 17.1983  24.6013
 17.2213  24.4847
 17.2443  24.3892
 17.2673  24.4042
 17.2903  24.4842
 17.3133  24.5956
 17.3362  24.5628
 17.3593  24.456
 17.3823  24.3477
 17.4053  24.2927
 17.4283  24.2297
 17.4513  24.2231
 17.4743  24.1968
 17.4973  24.2603
 17.5203  24.3065
 17.5433  24.3499
 17.5663  24.3745
 17.5893  24.3084
 17.6123  24.2875
 17.6352  24.3009
 17.6583  24.276
 17.6813  24.2854
 17.7042  24.2821
 17.7273  24.2179
 17.7503  24.1753
 17.7733  24.2192
 17.7963  24.3195
 17.8193  24.2665
 17.8423  24.1967
 17.8653  24.186
 17.8882  24.1533
 17.9113  24.2255
 17.9343  24.3284
 17.9573  24.4022
 17.9803  24.482
 18.0033  24.6254
 18.0263  24.9341
 18.0493  25.4148
 18.0723  26.2009
 18.0953  27.0606
 18.1183  27.1717
 18.1413  26.2764
 18.1643  25.1736
 18.1872  24.5482
 18.2103  24.3284
 18.2333  24.2428
 18.2563  24.1575
 18.2793  24.0691
 18.3023  24.0501
 18.3253  24.0721
 18.3483  24.0347
 18.3712  24.0032
 18.3943  24.1061
 18.4173  24.1848
 18.4402  24.0738
 18.4633  23.9571
 18.4863  23.9392
 18.5093  23.9028
 18.5323  23.8709
 18.5553  23.9161
 18.5783  24.0491
 18.6013  24.0593
 18.6242  23.9936
 18.6473  23.9262
 18.6703  23.8104
 18.6933  23.7987
 18.7163  23.9793
 18.7392  23.9659
 18.7623  23.9145
 18.7853  23.8807
 18.8083  23.857
 18.8313  23.7582
 18.8543  23.762
 18.8773  23.7992
 18.9003  23.8238
 18.9232  23.8799
 18.9463  23.9114
 18.9693  23.8517
 18.9922  23.8639
 19.0153  23.8814
 19.0383  23.8866
 19.0613  23.9431
 19.0843  24.0023
 19.1073  23.9254
 19.1303  23.8086
 19.1533  23.8266
 19.1762  23.8131
 19.1993  23.8442
 19.2223  23.8908
 19.2453  23.8884
 19.2683  23.9911
 19.2913  23.9371
 19.3143  24.0368
 19.3373  24.1063
 19.3603  24.0879
 19.3833  23.9863
 19.4062  24.0269
 19.4293  24.0196
 19.4523  23.9624
 19.4752  23.9861
 19.4983  24.0285
 19.5213  24.083
 19.5443  24.2228
 19.5673  24.1731
 19.5903  24.1972
 19.6133  24.3032
 19.6363  24.5836
 19.6593  25.1763
 19.6823  26.2971
 19.7053  27.1701
 19.7283  26.7659
 19.7513  25.9759
 19.7742  25.4014
 19.7973  25.3408
 19.8203  25.9245
 19.8433  26.7519
 19.8663  27.0278
 19.8893  26.147
 19.9123  25.2346
 19.9353  24.6147
 19.9582  24.3849
 19.9813  24.2875
 20.0043  24.2465
 20.0272  24.199
 20.0503  24.275
 20.0733  24.2185
 20.0963  24.2201
 20.1193  24.2039
 20.1423  24.2252
 20.1653  24.1927
 20.1883  24.139
 20.2112  24.1427
 20.2343  24.1385
 20.2573  24.1065
 20.2803  24.1074
 20.3033  24.0695
 20.3263  24.0262
 20.3493  24.0367
 20.3723  24.028
 20.3953  24.0538
 20.4183  24.1292
 20.4413  24.1758
 20.4643  24.1536
 20.4873  24.1901
 20.5102  24.1924
 20.5333  24.1145
 20.5563  24.1725
 20.5792  24.245
 20.6023  24.3579
 20.6253  24.4405
 20.6483  24.4103
 20.6713  24.5031
 20.6943  25.027
 20.7173  25.699
 20.7403  26.0449
 20.7632  26.146
 20.7863  25.8655
 20.8093  25.2253
 20.8323  24.7685
 20.8553  24.5431
 20.8783  24.4285
 20.9013  24.435
 20.9243  24.4167
 20.9473  24.3949
 20.9703  24.3071
 20.9933  24.2863
 21.0163  24.304
 21.0393  24.3217
 21.0622  24.4095
 21.0853  24.4007
 21.1083  24.3553
 21.1313  24.3061
 21.1543  24.1392
 21.1773  24.1913
 21.2003  24.2882
 21.2233  24.2673
 21.2462  24.2453
 21.2693  24.2514
 21.2923  24.1965
 21.3152  24.1289
 21.3383  24.2133
 21.3613  24.2806
 21.3843  24.3098
 21.4073  24.2929
 21.4303  24.2911
 21.4533  24.3158
 21.4763  24.3929
 21.4992  24.4049
 21.5223  24.4646
 21.5453  24.46
 21.5683  24.3989
 21.5913  24.4199
 21.6142  24.4918
 21.6373  24.557
 21.6603  24.5377
 21.6833  24.4443
 21.7063  24.5079
 21.7293  24.5555
 21.7523  24.5851
 21.7753  24.6015
 21.7982  24.6353
 21.8213  24.5703
 21.8443  24.4741
 21.8672  24.5271
 21.8903  24.4746
 21.9133  24.5159
 21.9363  24.6056
 21.9593  24.5496
 21.9823  24.534
 22.0053  24.52
 22.0283  24.5824
 22.0512  24.5667
 22.0743  24.64
 22.0973  24.6002
 22.1203  24.6407
 22.1433  24.7819
 22.1663  24.8006
 22.1893  24.7438
 22.2123  24.7453
 22.2353  24.7694
 22.2583  24.8228
 22.2813  24.806
 22.3043  24.8844
 22.3273  24.8911
 22.3502  25.0099
 22.3733  25.1194
 22.3963  24.9509
 22.4193  24.8421
 22.4423  24.9681
 22.4653  25.0112
 22.4883  25.0834
 22.5113  25.1895
 22.5343  25.2209
 22.5573  25.2707
 22.5803  25.3624
 22.6033  25.3712
 22.6263  25.4028
 22.6493  25.36
 22.6723  25.3363
 22.6953  25.4461
 22.7183  25.5949
 22.7413  25.6208
 22.7643  25.633
 22.7873  25.536
 22.8103  25.6503
 22.8333  25.8154
 22.8563  25.8462
 22.8793  25.8646
 22.9022  26.015
 22.9253  26.261
 22.9483  26.3313
 22.9713  26.4011
 22.9943  26.5958