File: test-data-xrd/xrd-map-34-ID-E/Data_0059.chi
F:\20151113_APS_34IDE\\Brian\Particle1\OCV\Data_0059.tif
2-Theta Angle (Degrees)
Intensity
       2000
 0.01725  0.0000000E+00
 0.04025  0.0000000E+00
 0.06325  0.0000000E+00
 0.08625  0.0000000E+00
 0.10925  0.0000000E+00
 0.13225  0.0000000E+00
 0.15525  0.0000000E+00
 0.17825  0.0000000E+00
 0.20125  0.0000000E+00
 0.22425  0.0000000E+00
 0.24725  0.0000000E+00
 0.27025  0.0000000E+00
 0.29325  0.0000000E+00
 0.31625  0.0000000E+00
 0.33925  0.0000000E+00
 0.36225  0.0000000E+00
 0.38525  0.0000000E+00
 0.40825  0.0000000E+00
 0.43125  0.0000000E+00
 0.45425  0.0000000E+00
 0.47725  0.0000000E+00
 0.50025  0.0000000E+00
 0.52325  0.0000000E+00
 0.54625  0.0000000E+00
 0.56925  0.0000000E+00
 0.59225  0.0000000E+00
 0.61525  0.0000000E+00
 0.63825  0.0000000E+00
 0.66125  0.0000000E+00
 0.68425  0.0000000E+00
 0.70725  0.0000000E+00
 0.73025  0.0000000E+00
 0.75325  0.0000000E+00
 0.77625  0.0000000E+00
 0.79925  0.0000000E+00
 0.82225  0.0000000E+00
 0.84525  0.0000000E+00
 0.86825  0.0000000E+00
 0.89125  0.0000000E+00
 0.91425  0.0000000E+00
 0.93725  0.0000000E+00
 0.96025  0.0000000E+00
 0.98325  0.0000000E+00
 1.00625  0.0000000E+00
 1.02925  0.0000000E+00
 1.05225  0.0000000E+00
 1.07525  0.0000000E+00
 1.09825  0.0000000E+00
 1.12125  0.0000000E+00
 1.14425  0.0000000E+00
 1.16725  0.0000000E+00
 1.19025  0.0000000E+00
 1.21325  0.0000000E+00
 1.23625  0.0000000E+00
 1.25925  0.0000000E+00
 1.28225  0.0000000E+00
 1.30525  0.0000000E+00
 1.32825  0.0000000E+00
 1.35125  0.0000000E+00
 1.37425  0.0000000E+00
 1.39725  0.0000000E+00
 1.42025  0.0000000E+00
 1.44325  0.0000000E+00
 1.46625  0.0000000E+00
 1.48925  0.0000000E+00
 1.51225  0.0000000E+00
 1.53525  0.0000000E+00
 1.55825  0.0000000E+00
 1.58125  0.0000000E+00
 1.60425  0.0000000E+00
 1.62725  0.0000000E+00
 1.65025  0.0000000E+00
 1.67325  0.0000000E+00
 1.69625  0.0000000E+00
 1.71925  0.0000000E+00
 1.74225  0.0000000E+00
 1.76525  0.0000000E+00
 1.78825  0.0000000E+00
 1.81125  0.0000000E+00
 1.83425  0.0000000E+00
 1.85725  0.0000000E+00
 1.88025  0.0000000E+00
 1.90325  0.0000000E+00
 1.92625  0.0000000E+00
 1.94925  0.0000000E+00
 1.97225  0.0000000E+00
 1.99525  0.0000000E+00
 2.01825  0.0000000E+00
 2.04125  0.0000000E+00
 2.06425  0.0000000E+00
 2.08725  0.0000000E+00
 2.11025  0.0000000E+00
 2.13325  0.0000000E+00
 2.15625  0.0000000E+00
 2.17925  0.0000000E+00
 2.20225  0.0000000E+00
 2.22525  0.0000000E+00
 2.24825  0.0000000E+00
 2.27125  0.0000000E+00
 2.29425  0.0000000E+00
 2.31725  0.0000000E+00
 2.34025  0.0000000E+00
 2.36325  0.0000000E+00
 2.38625  0.0000000E+00
 2.40925  0.0000000E+00
 2.43225  0.0000000E+00
 2.45525  0.0000000E+00
 2.47825  0.0000000E+00
 2.50125  0.0000000E+00
 2.52425  0.0000000E+00
 2.54725  0.0000000E+00
 2.57025  0.0000000E+00
 2.59325  0.0000000E+00
 2.61625  0.0000000E+00
 2.63925  0.0000000E+00
 2.66225  0.0000000E+00
 2.68525  0.0000000E+00
 2.70825  0.0000000E+00
 2.73125  0.0000000E+00
 2.75425  0.0000000E+00
 2.77725  0.0000000E+00
 2.80025  0.0000000E+00
 2.82325  34.5912
 2.84625  33.4853
 2.86925  34.8494
 2.89225  35.8095
 2.91525  36.4182
 2.93825  36.502
 2.96125  37.4788
 2.98425  37.1182
 3.00725  36.6775
 3.03025  35.9356
 3.05325  35.0812
 3.07625  35.2238
 3.09925  35.0844
 3.12225  35.2432
 3.14525  35.5381
 3.16825  35.6366
 3.19125  35.6548
 3.21425  35.5832
 3.23725  35.4866
 3.26025  35.2918
 3.28325  35.0525
 3.30625  33.9525
 3.32925  33.4246
 3.35225  34.0834
 3.37525  34.3503
 3.39825  34.4486
 3.42125  34.2926
 3.44425  34.5298
 3.46725  34.6964
 3.49025  34.1837
 3.51325  33.2212
 3.53625  33.0054
 3.55925  33.0591
 3.58225  33.1687
 3.60525  33.3211
 3.62825  33.7272
 3.65125  33.8068
 3.67425  33.423
 3.69725  33.1328
 3.72025  33.1664
 3.74325  33.6194
 3.76625  33.5493
 3.78925  33.0262
 3.81225  32.8101
 3.83525  32.9468
 3.85825  32.5822
 3.88125  32.3304
 3.90425  32.0863
 3.92725  32.4268
 3.95025  32.9938
 3.97325  32.9646
 3.99625  32.829
 4.01925  32.4469
 4.04225  32.1919
 4.06525  32.1006
 4.08825  32.1709
 4.11125  32.1562
 4.13425  32.1228
 4.15725  32.1766
 4.18025  32.2318
 4.20325  32.105
 4.22625  32.0803
 4.24925  31.6472
 4.27225  31.2256
 4.29525  31.2576
 4.31825  31.8831
 4.34125  32.0805
 4.36425  32.2872
 4.38725  32.5042
 4.41025  32.5107
 4.43325  32.5821
 4.45625  32.417
 4.47925  32.4466
 4.50225  32.4135
 4.52525  32.502
 4.54825  32.5156
 4.57125  32.4971
 4.59425  32.5215
 4.61725  32.5489
 4.64025  32.5304
 4.66325  32.7894
 4.68625  33.091
 4.70925  33.0846
 4.73225  32.9431
 4.75525  32.6846
 4.77825  32.4952
 4.80125  32.4974
 4.82425  32.408
 4.84725  32.3683
 4.87025  32.8059
 4.89325  33.2413
 4.91625  33.127
 4.93925  32.8075
 4.96225  32.6404
 4.98525  32.7949
 5.00825  33.0955
 5.03125  33.3001
 5.05425  33.4008
 5.07725  33.293
 5.10025  33.2616
 5.12325  33.3119
 5.14625  33.5842
 5.16925  33.8255
 5.19225  34.1194
 5.21525  34.2415
 5.23825  34.2828
 5.26125  34.1375
 5.28425  34.0805
 5.30725  33.9973
 5.33025  34.0213
 5.35325  33.9728
 5.37625  34.0117
 5.39925  34.2172
 5.42225  34.2721
 5.44525  34.573
 5.46825  34.9514
 5.49125  34.9694
 5.51425  34.7728
 5.53725  34.7955
 5.56025  34.9163
 5.58325  35.0714
 5.60625  35.3274
 5.62925  35.3185
 5.65225  35.0902
 5.67525  35.3187
 5.69825  35.4524
 5.72125  35.6639
 5.74425  35.7873
 5.76725  35.8139
 5.79025  35.9593
 5.81325  36.3654
 5.83625  36.6607
 5.85925  37.1429
 5.88225  38.0229
 5.90525  40.0434
 5.92825  45.6099
 5.95125  58.8041
 5.97425  74.8332
 5.99725  82.1235
 6.02025  70.5911
 6.04325  51.332
 6.06625  41.9434
 6.08925  39.0111
 6.11225  38.1556
 6.13525  37.7866
 6.15825  37.5751
 6.18125  37.5001
 6.20425  37.3488
 6.22725  37.51
 6.25025  37.7061
 6.27325  37.745
 6.29625  37.6249
 6.31925  37.5075
 6.34225  37.6784
 6.36525  37.8591
 6.38825  38.0764
 6.41125  38.1878
 6.43425  38.3664
 6.45725  38.4871
 6.48025  38.5253
 6.50325  38.7149
 6.52625  38.9963
 6.54925  39.1716
 6.57225  39.2514
 6.59525  39.1899
 6.61825  39.3431
 6.64125  39.7068
 6.66425  39.9484
 6.68725  39.9829
 6.71025  40.0803
 6.73325  40.3569
 6.75625  40.5524
 6.77925  40.8282
 6.80225  41.0865
 6.82525  41.3105
 6.84825  41.2013
 6.87125  41.0796
 6.89425  41.1088
 6.91725  41.3767
 6.94025  41.7478
 6.96325  42.0146
 6.98625  42.1346
 7.00925  42.005
 7.03225  42.1869
 7.05525  42.4069
 7.07825  42.5559
 7.10125  42.5222
 7.12425  42.8364
 7.14725  42.9487
 7.17025  43.1387
 7.19325  43.2339
 7.21625  43.2398
 7.23925  43.1623
 7.26225  43.3594
 7.28525  43.4997
 7.30825  43.3958
 7.33125  43.4706
 7.35425  43.5881
 7.37725  43.6335
 7.40025  43.6573
 7.42325  43.8594
 7.44625  43.8917
 7.46925  43.8688
 7.49225  43.7489
 7.51525  43.9127
 7.53825  44.1483
 7.56125  44.3264
 7.58425  44.2537
 7.60725  44.1981
 7.63025  44.3165
 7.65325  44.3989
 7.67625  44.1719
 7.69925  43.9882
 7.72225  43.9107
 7.74525  43.9225
 7.76825  44.0576
 7.79125  44.0321
 7.81425  43.8336
 7.83725  43.7019
 7.86025  43.8264
 7.88325  43.7689
 7.90625  43.5901
 7.92925  43.4467
 7.95225  43.1846
 7.97525  42.8562
 7.99825  42.6715
 8.02125  42.7757
 8.04425  43.041
 8.06725  42.9212
 8.09025  42.6723
 8.11325  42.4573
 8.13625  42.414
 8.15925  42.3785
 8.18225  42.0016
 8.20525  41.6922
 8.22825  41.3815
 8.25125  41.1821
 8.27425  40.758
 8.29725  40.4316
 8.32025  40.307
 8.34325  39.9883
 8.36625  39.7813
 8.38925  39.5348
 8.41225  39.3128
 8.43525  38.9387
 8.45825  38.5172
 8.48125  38.1029
 8.50425  37.7567
 8.52725  37.3855
 8.55025  36.9296
 8.57325  36.4599
 8.59625  36.0936
 8.61925  35.911
 8.64225  35.5949
 8.66525  35.1083
 8.68825  34.953
 8.71125  34.8306
 8.73425  34.4329
 8.75725  33.8814
 8.78025  33.6124
 8.80325  33.2553
 8.82625  32.9022
 8.84925  32.3991
 8.87225  32.123
 8.89525  31.8963
 8.91825  31.6021
 8.94125  31.3495
 8.96425  31.1434
 8.98725  30.903
 9.01025  30.4743
 9.03325  30.1839
 9.05625  29.938
 9.07925  29.5925
 9.10225  29.3395
 9.12525  29.1744
 9.14825  28.9238
 9.17125  28.6734
 9.19425  28.4771
 9.21725  28.2704
 9.24025  28.0909
 9.26325  27.9445
 9.28625  27.7346
 9.30925  27.5713
 9.33225  27.3199
 9.35525  27.1111
 9.37825  27.0124
 9.40125  26.9151
 9.42425  26.7888
 9.44725  26.6672
 9.47025  26.5356
 9.49325  26.3737
 9.51625  26.1789
 9.53925  26.1077
 9.56225  26.1488
 9.58525  26.109
 9.60825  25.9967
 9.63125  25.7027
 9.65425  25.4357
 9.67725  25.2948
 9.70025  25.2755
 9.72325  25.2645
 9.74625  25.252
 9.76925  25.0876
 9.79225  24.9521
 9.81525  24.828
 9.83825  24.6907
 9.86125  24.6197
 9.88425  24.5619
 9.90725  24.4795
 9.93025  24.3773
 9.95325  24.2556
 9.97625  24.2963
 9.99925  24.2671
 10.0222  24.2483
 10.0453  24.2079
 10.0683  24.0911
 10.0913  23.9326
 10.1143  23.8571
 10.1373  23.9235
 10.1603  23.9805
 10.1832  23.9257
 10.2063  23.8323
 10.2293  23.7071
 10.2523  23.623
 10.2752  23.6273
 10.2982  23.676
 10.3213  23.6184
 10.3443  23.5449
 10.3673  23.4412
 10.3902  23.4729
 10.4133  23.4261
 10.4363  23.4175
 10.4593  23.4131
 10.4823  23.4107
 10.5053  23.417
 10.5283  23.2772
 10.5512  23.0533
 10.5742  22.9405
 10.5973  22.8369
 10.6203  22.9955
 10.6433  23.0589
 10.6662  23.0303
 10.6893  22.9704
 10.7123  22.9548
 10.7353  22.944
 10.7583  22.8949
 10.7813  22.8732
 10.8043  22.8399
 10.8272  22.9422
 10.8503  22.9078
 10.8733  22.8601
 10.8963  22.7396
 10.9192  22.7165
 10.9422  22.6378
 10.9653  22.616
 10.9883  22.6498
 11.0113  22.5695
 11.0343  22.5472
 11.0573  22.4897
 11.0803  22.5167
 11.1033  22.5507
 11.1263  22.5714
 11.1493  22.5719
 11.1723  22.5302
 11.1953  22.4447
 11.2182  22.3954
 11.2413  22.397
 11.2643  22.3952
 11.2873  22.4304
 11.3102  22.4625
 11.3333  22.5165
 11.3563  22.5327
 11.3793  22.5595
 11.4023  22.7599
 11.4253  22.7742
 11.4483  22.7606
 11.4713  22.8094
 11.4942  22.9254
 11.5173  23.1017
 11.5403  23.9259
 11.5633  25.6259
 11.5862  27.5348
 11.6093  27.5524
 11.6323  25.7755
 11.6553  24.0366
 11.6783  23.1889
 11.7013  22.9472
 11.7243  22.836
 11.7473  22.6711
 11.7703  22.6497
 11.7933  22.7747
 11.8163  22.8788
 11.8393  22.8884
 11.8622  22.8958
 11.8853  22.9225
 11.9083  23.0146
 11.9313  23.3289
 11.9543  24.2496
 11.9773  26.1563
 12.0003  28.0944
 12.0233  27.4492
 12.0463  26.0672
 12.0693  26.7686
 12.0923  33.8536
 12.1153  40.2479
 12.1382  38.3962
 12.1613  31.5263
 12.1843  26.3662
 12.2073  23.9502
 12.2302  23.32
 12.2533  23.0395
 12.2763  22.8712
 12.2993  22.7951
 12.3223  22.782
 12.3453  22.7407
 12.3683  22.8261
 12.3913  22.7679
 12.4142  22.6078
 12.4373  22.617
 12.4603  22.6983
 12.4833  22.8491
 12.5062  22.6935
 12.5292  22.6919
 12.5523  22.8634
 12.5753  22.9751
 12.5983  22.9058
 12.6212  22.8714
 12.6443  22.8163
 12.6673  22.8359
 12.6903  22.8942
 12.7133  23.0127
 12.7363  23.1077
 12.7593  23.1378
 12.7822  23.1263
 12.8052  23.1495
 12.8283  23.2404
 12.8513  23.3214
 12.8742  23.4383
 12.8972  23.4755
 12.9203  23.6041
 12.9433  23.666
 12.9663  23.6655
 12.9893  23.8011
 13.0123  23.9534
 13.0353  24.1472
 13.0582  24.3368
 13.0813  24.5954
 13.1043  24.7531
 13.1273  25.0157
 13.1502  25.2772
 13.1732  25.4558
 13.1963  25.6807
 13.2193  26.0432
 13.2423  26.3394
 13.2652  26.5562
 13.2883  26.8013
 13.3113  27.0726
 13.3343  27.3615
 13.3573  27.7525
 13.3803  27.9518
 13.4033  28.1507
 13.4262  28.349
 13.4492  28.6098
 13.4723  28.8806
 13.4953  29.214
 13.5183  29.4454
 13.5412  29.6081
 13.5643  29.8148
 13.5873  29.9178
 13.6103  29.8204
 13.6333  29.5643
 13.6563  29.4844
 13.6793  29.5972
 13.7022  29.733
 13.7253  29.7306
 13.7483  29.6942
 13.7713  29.7093
 13.7942  29.7987
 13.8172  29.818
 13.8403  29.9604
 13.8633  30.4347
 13.8863  32.1025
 13.9093  36.7086
 13.9323  45.9259
 13.9553  52.6098
 13.9783  47.9388
 14.0013  37.6774
 14.0243  31.8076
 14.0473  29.4527
 14.0703  28.6262
 14.0932  28.1898
 14.1163  28.0521
 14.1393  27.8446
 14.1623  27.5339
 14.1852  27.2222
 14.2083  26.939
 14.2313  26.7378
 14.2543  26.5472
 14.2773  26.4693
 14.3003  26.3506
 14.3233  26.1858
 14.3463  26.1222
 14.3692  26.1611
 14.3923  26.1565
 14.4153  26.1026
 14.4383  25.9288
 14.4612  25.7911
 14.4843  25.7688
 14.5073  25.7144
 14.5303  25.6475
 14.5533  25.6456
 14.5763  25.6176
 14.5993  25.4987
 14.6223  25.4605
 14.6453  25.3847
 14.6683  25.3111
 14.6913  25.3113
 14.7143  25.233
 14.7372  25.2831
 14.7603  25.3051
 14.7833  25.2392
 14.8063  25.0962
 14.8293  24.977
 14.8523  24.984
 14.8753  24.9124
 14.8983  24.9589
 14.9213  25.0031
 14.9443  24.9978
 14.9673  25.0229
 14.9903  24.994
 15.0132  24.948
 15.0363  25.0318
 15.0593  25.0313
 15.0823  25.0339
 15.1052  25.0768
 15.1283  25.2163
 15.1513  25.8224
 15.1743  26.8592
 15.1973  27.5803
 15.2203  27.2348
 15.2433  26.171
 15.2663  25.2546
 15.2892  24.8346
 15.3123  24.6657
 15.3353  24.6671
 15.3583  24.7586
 15.3812  24.6451
 15.4043  24.5324
 15.4273  24.4554
 15.4503  24.4381
 15.4733  24.3477
 15.4963  24.3731
 15.5193  24.5301
 15.5423  24.5959
 15.5653  24.6155
 15.5883  24.5916
 15.6113  24.5051
 15.6343  24.5315
 15.6572  24.7016
 15.6803  24.7065
 15.7033  24.6649
 15.7263  24.7448
 15.7492  24.6952
 15.7723  24.7479
 15.7953  24.8421
 15.8183  24.8569
 15.8413  24.8155
 15.8643  24.7387
 15.8873  24.7581
 15.9103  24.854
 15.9332  24.7598
 15.9563  24.69
 15.9793  24.6722
 16.0023  24.7761
 16.0253  24.7899
 16.0482  24.8426
 16.0713  24.8048
 16.0943  24.8213
 16.1172  24.896
 16.1403  24.8883
 16.1633  24.9285
 16.1863  25.1
 16.2093  25.5533
 16.2323  26.1154
 16.2553  26.5686
 16.2783  26.431
 16.3012  25.5528
 16.3243  25.0114
 16.3472  24.8312
 16.3703  24.8223
 16.3933  24.7677
 16.4163  24.8171
 16.4393  24.8246
 16.4623  24.7595
 16.4853  24.7121
 16.5083  24.745
 16.5312  24.6818
 16.5543  24.6335
 16.5773  24.708
 16.6002  24.7192
 16.6233  24.7137
 16.6463  24.7551
 16.6693  24.7514
 16.6923  24.7424
 16.7153  24.7536
 16.7383  24.662
 16.7613  24.6064
 16.7843  24.6259
 16.8073  24.6127
 16.8303  24.461
 16.8533  24.3524
 16.8763  24.3935
 16.8992  24.407
 16.9223  24.4629
 16.9453  24.3981
 16.9683  24.3266
 16.9913  24.2225
 17.0143  24.1749
 17.0373  24.1842
 17.0603  24.1522
 17.0832  24.282
 17.1063  24.3154
 17.1293  24.3012
 17.1522  24.2788
 17.1753  24.2189
 17.1983  24.1762
 17.2213  24.1952
 17.2443  24.1831
 17.2673  24.0942
 17.2903  24.1413
 17.3133  24.2219
 17.3362  24.2609
 17.3593  24.1484
 17.3823  24.1407
 17.4053  24.1344
 17.4283  24.1088
 17.4513  24.0756
 17.4743  23.9814
 17.4973  23.9863
 17.5203  23.9837
 17.5433  24.0008
 17.5663  24.004
 17.5893  23.9699
 17.6123  23.9541
 17.6352  23.9965
 17.6583  23.857
 17.6813  23.9031
 17.7042  23.9691
 17.7273  23.9556
 17.7503  23.9342
 17.7733  23.9612
 17.7963  24.0062
 17.8193  23.9816
 17.8423  23.9342
 17.8653  23.991
 17.8882  23.8983
 17.9113  23.91
 17.9343  24.0692
 17.9573  24.1321
 17.9803  24.269
 18.0033  24.7998
 18.0263  25.4148
 18.0493  26.3518
 18.0723  27.7894
 18.0953  29.005
 18.1183  29.337
 18.1413  28.2531
 18.1643  26.5998
 18.1872  25.1026
 18.2103  24.4537
 18.2333  24.0771
 18.2563  23.9868
 18.2793  23.9151
 18.3023  23.8069
 18.3253  23.7548
 18.3483  23.7382
 18.3712  23.7094
 18.3943  23.7992
 18.4173  23.7872
 18.4402  23.7588
 18.4633  23.7201
 18.4863  23.7453
 18.5093  23.7262
 18.5323  23.7022
 18.5553  23.7018
 18.5783  23.7417
 18.6013  23.7595
 18.6242  23.7608
 18.6473  23.6334
 18.6703  23.5495
 18.6933  23.6395
 18.7163  23.6289
 18.7392  23.5239
 18.7623  23.5291
 18.7853  23.5414
 18.8083  23.5452
 18.8313  23.5927
 18.8543  23.5801
 18.8773  23.6102
 18.9003  23.5824
 18.9232  23.6036
 18.9463  23.7109
 18.9693  23.6824
 18.9922  23.6279
 19.0153  23.6633
 19.0383  23.7289
 19.0613  23.6685
 19.0843  23.7
 19.1073  23.6771
 19.1303  23.6732
 19.1533  23.7217
 19.1762  23.6438
 19.1993  23.6018
 19.2223  23.6382
 19.2453  23.593
 19.2683  23.656
 19.2913  23.6702
 19.3143  23.8089
 19.3373  23.9263
 19.3603  23.8952
 19.3833  23.8774
 19.4062  23.9525
 19.4293  24.1173
 19.4523  24.1508
 19.4752  24.1451
 19.4983  24.1451
 19.5213  24.2298
 19.5443  24.3363
 19.5673  24.33
 19.5903  24.5424
 19.6133  24.9182
 19.6363  25.7906
 19.6593  27.9093
 19.6823  32.8419
 19.7053  38.3014
 19.7283  36.3516
 19.7513  32.6214
 19.7742  28.8276
 19.7973  27.4383
 19.8203  28.2944
 19.8433  30.5796
 19.8663  34.0202
 19.8893  30.6518
 19.9123  28.2548
 19.9353  26.0406
 19.9582  25.0154
 19.9813  24.5564
 20.0043  24.3479
 20.0272  24.2308
 20.0503  24.1825
 20.0733  24.0116
 20.0963  24.0768
 20.1193  24.0771
 20.1423  23.9974
 20.1653  23.9269
 20.1883  23.8536
 20.2112  23.8222
 20.2343  23.8131
 20.2573  23.7968
 20.2803  23.8854
 20.3033  23.9365
 20.3263  23.8693
 20.3493  23.8637
 20.3723  23.8372
 20.3953  23.8567
 20.4183  23.8527
 20.4413  23.8483
 20.4643  23.8548
 20.4873  23.7784
 20.5102  23.7307
 20.5333  23.7303
 20.5563  23.8685
 20.5792  23.8737
 20.6023  23.9957
 20.6253  24.0271
 20.6483  24.0893
 20.6713  24.1742
 20.6943  24.3804
 20.7173  25.0221
 20.7403  25.6681
 20.7632  26.1353
 20.7863  26.0744
 20.8093  25.348
 20.8323  24.6293
 20.8553  24.2889
 20.8783  24.1937
 20.9013  24.2153
 20.9243  24.2177
 20.9473  24.1988
 20.9703  24.0002
 20.9933  23.9434
 21.0163  23.8632
 21.0393  23.8031
 21.0622  23.8494
 21.0853  23.983
 21.1083  24.0075
 21.1313  24.108
 21.1543  24.1006
 21.1773  24.0867
 21.2003  24.1517
 21.2233  24.1491
 21.2462  24.0606
 21.2693  24.1252
 21.2923  24.1032
 21.3152  23.9728
 21.3383  24.0457
 21.3613  24.117
 21.3843  24.1254
 21.4073  24.1989
 21.4303  24.1873
 21.4533  24.1076
 21.4763  24.1027
 21.4992  24.1604
 21.5223  24.1054
 21.5453  24.2531
 21.5683  24.5997
 21.5913  24.4443
 21.6142  24.1939
 21.6373  24.1944
 21.6603  24.2311
 21.6833  24.1918
 21.7063  24.1183
 21.7293  24.1981
 21.7523  24.1887
 21.7753  24.2213
 21.7982  24.2604
 21.8213  24.3021
 21.8443  24.2649
 21.8672  24.2741
 21.8903  24.2804
 21.9133  24.3227
 21.9363  24.3305
 21.9593  24.3593
 21.9823  24.3925
 22.0053  24.3449
 22.0283  24.4075
 22.0512  24.4214
 22.0743  24.4044
 22.0973  24.4297
 22.1203  24.4925
 22.1433  24.5834
 22.1663  24.5389
 22.1893  24.4258
 22.2123  24.4403
 22.2353  24.4658
 22.2583  24.5354
 22.2813  24.5788
 22.3043  24.663
 22.3273  24.7049
 22.3502  24.721
 22.3733  24.7139
 22.3963  24.7078
 22.4193  24.6447
 22.4423  24.6762
 22.4653  24.6983
 22.4883  24.7258
 22.5113  24.8575
 22.5343  24.9597
 22.5573  25.0148
 22.5803  25.0887
 22.6033  25.0723
 22.6263  25.0128
 22.6493  24.9895
 22.6723  25.069
 22.6953  25.3061
 22.7183  25.3535
 22.7413  25.3367
 22.7643  25.3459
 22.7873  25.3326
 22.8103  25.5451
 22.8333  25.6975
 22.8563  25.7241
 22.8793  25.7945
 22.9022  25.9309
 22.9253  26.1158
 22.9483  26.1809
 22.9713  26.2637
 22.9943  26.5699