File: test-data-xrd/xrd-map-34-ID-E/Data_0083.chi
F:\20151113_APS_34IDE\\Brian\Particle1\OCV\Data_0083.tif
2-Theta Angle (Degrees)
Intensity
       2000
 0.01725  0.0000000E+00
 0.04025  0.0000000E+00
 0.06325  0.0000000E+00
 0.08625  0.0000000E+00
 0.10925  0.0000000E+00
 0.13225  0.0000000E+00
 0.15525  0.0000000E+00
 0.17825  0.0000000E+00
 0.20125  0.0000000E+00
 0.22425  0.0000000E+00
 0.24725  0.0000000E+00
 0.27025  0.0000000E+00
 0.29325  0.0000000E+00
 0.31625  0.0000000E+00
 0.33925  0.0000000E+00
 0.36225  0.0000000E+00
 0.38525  0.0000000E+00
 0.40825  0.0000000E+00
 0.43125  0.0000000E+00
 0.45425  0.0000000E+00
 0.47725  0.0000000E+00
 0.50025  0.0000000E+00
 0.52325  0.0000000E+00
 0.54625  0.0000000E+00
 0.56925  0.0000000E+00
 0.59225  0.0000000E+00
 0.61525  0.0000000E+00
 0.63825  0.0000000E+00
 0.66125  0.0000000E+00
 0.68425  0.0000000E+00
 0.70725  0.0000000E+00
 0.73025  0.0000000E+00
 0.75325  0.0000000E+00
 0.77625  0.0000000E+00
 0.79925  0.0000000E+00
 0.82225  0.0000000E+00
 0.84525  0.0000000E+00
 0.86825  0.0000000E+00
 0.89125  0.0000000E+00
 0.91425  0.0000000E+00
 0.93725  0.0000000E+00
 0.96025  0.0000000E+00
 0.98325  0.0000000E+00
 1.00625  0.0000000E+00
 1.02925  0.0000000E+00
 1.05225  0.0000000E+00
 1.07525  0.0000000E+00
 1.09825  0.0000000E+00
 1.12125  0.0000000E+00
 1.14425  0.0000000E+00
 1.16725  0.0000000E+00
 1.19025  0.0000000E+00
 1.21325  0.0000000E+00
 1.23625  0.0000000E+00
 1.25925  0.0000000E+00
 1.28225  0.0000000E+00
 1.30525  0.0000000E+00
 1.32825  0.0000000E+00
 1.35125  0.0000000E+00
 1.37425  0.0000000E+00
 1.39725  0.0000000E+00
 1.42025  0.0000000E+00
 1.44325  0.0000000E+00
 1.46625  0.0000000E+00
 1.48925  0.0000000E+00
 1.51225  0.0000000E+00
 1.53525  0.0000000E+00
 1.55825  0.0000000E+00
 1.58125  0.0000000E+00
 1.60425  0.0000000E+00
 1.62725  0.0000000E+00
 1.65025  0.0000000E+00
 1.67325  0.0000000E+00
 1.69625  0.0000000E+00
 1.71925  0.0000000E+00
 1.74225  0.0000000E+00
 1.76525  0.0000000E+00
 1.78825  0.0000000E+00
 1.81125  0.0000000E+00
 1.83425  0.0000000E+00
 1.85725  0.0000000E+00
 1.88025  0.0000000E+00
 1.90325  0.0000000E+00
 1.92625  0.0000000E+00
 1.94925  0.0000000E+00
 1.97225  0.0000000E+00
 1.99525  0.0000000E+00
 2.01825  0.0000000E+00
 2.04125  0.0000000E+00
 2.06425  0.0000000E+00
 2.08725  0.0000000E+00
 2.11025  0.0000000E+00
 2.13325  0.0000000E+00
 2.15625  0.0000000E+00
 2.17925  0.0000000E+00
 2.20225  0.0000000E+00
 2.22525  0.0000000E+00
 2.24825  0.0000000E+00
 2.27125  0.0000000E+00
 2.29425  0.0000000E+00
 2.31725  0.0000000E+00
 2.34025  0.0000000E+00
 2.36325  0.0000000E+00
 2.38625  0.0000000E+00
 2.40925  0.0000000E+00
 2.43225  0.0000000E+00
 2.45525  0.0000000E+00
 2.47825  0.0000000E+00
 2.50125  0.0000000E+00
 2.52425  0.0000000E+00
 2.54725  0.0000000E+00
 2.57025  0.0000000E+00
 2.59325  0.0000000E+00
 2.61625  0.0000000E+00
 2.63925  0.0000000E+00
 2.66225  0.0000000E+00
 2.68525  0.0000000E+00
 2.70825  0.0000000E+00
 2.73125  0.0000000E+00
 2.75425  0.0000000E+00
 2.77725  0.0000000E+00
 2.80025  0.0000000E+00
 2.82325  34.3613
 2.84625  33.91
 2.86925  32.6243
 2.89225  32.7742
 2.91525  33.8385
 2.93825  34.8414
 2.96125  36.0799
 2.98425  36.7149
 3.00725  36.5032
 3.03025  35.9857
 3.05325  35.5759
 3.07625  35.0655
 3.09925  35.1798
 3.12225  35.9219
 3.14525  35.9085
 3.16825  35.733
 3.19125  35.1585
 3.21425  34.4728
 3.23725  34.8643
 3.26025  34.7137
 3.28325  34.5389
 3.30625  34.678
 3.32925  35.0634
 3.35225  35.3698
 3.37525  35.1087
 3.39825  34.2577
 3.42125  33.9562
 3.44425  33.8255
 3.46725  33.996
 3.49025  34.1936
 3.51325  34.2715
 3.53625  34.2977
 3.55925  33.8932
 3.58225  33.5263
 3.60525  33.2548
 3.62825  33.1714
 3.65125  32.9337
 3.67425  33.2392
 3.69725  33.1615
 3.72025  33.2866
 3.74325  33.0684
 3.76625  32.5827
 3.78925  32.4235
 3.81225  32.3703
 3.83525  32.7022
 3.85825  32.6357
 3.88125  32.5654
 3.90425  32.3431
 3.92725  32.3123
 3.95025  32.2922
 3.97325  32.6099
 3.99625  32.7666
 4.01925  32.5485
 4.04225  32.2349
 4.06525  32.0803
 4.08825  31.9298
 4.11125  32.0302
 4.13425  32.0272
 4.15725  31.9132
 4.18025  31.9886
 4.20325  31.95
 4.22625  31.933
 4.24925  32.0004
 4.27225  32.153
 4.29525  32.0802
 4.31825  32.1566
 4.34125  32.3704
 4.36425  32.599
 4.38725  32.6969
 4.41025  32.6358
 4.43325  32.8526
 4.45625  32.9017
 4.47925  32.7803
 4.50225  32.6737
 4.52525  32.4299
 4.54825  32.4168
 4.57125  32.3131
 4.59425  32.4887
 4.61725  32.6692
 4.64025  32.9231
 4.66325  33.3384
 4.68625  33.1434
 4.70925  33.0076
 4.73225  32.8017
 4.75525  32.6495
 4.77825  32.8624
 4.80125  32.7435
 4.82425  32.7999
 4.84725  32.8918
 4.87025  32.9666
 4.89325  32.8006
 4.91625  32.6369
 4.93925  32.6609
 4.96225  32.839
 4.98525  32.9829
 5.00825  33.2935
 5.03125  33.3823
 5.05425  33.4898
 5.07725  33.5937
 5.10025  33.5652
 5.12325  33.4701
 5.14625  33.6889
 5.16925  33.9681
 5.19225  33.9621
 5.21525  33.9192
 5.23825  34.0352
 5.26125  34.0711
 5.28425  34.0125
 5.30725  34.0884
 5.33025  34.13
 5.35325  34.2
 5.37625  34.4051
 5.39925  34.673
 5.42225  34.6257
 5.44525  34.5507
 5.46825  34.624
 5.49125  34.6345
 5.51425  34.6365
 5.53725  34.8361
 5.56025  35.0299
 5.58325  35.1913
 5.60625  35.2274
 5.62925  35.2215
 5.65225  35.199
 5.67525  35.3596
 5.69825  35.482
 5.72125  35.512
 5.74425  35.6437
 5.76725  35.5212
 5.79025  35.7811
 5.81325  35.9821
 5.83625  36.134
 5.85925  36.2568
 5.88225  36.6614
 5.90525  37.5348
 5.92825  40.6982
 5.95125  51.1736
 5.97425  63.5086
 5.99725  65.0421
 6.02025  53.549
 6.04325  42.8962
 6.06625  39.4301
 6.08925  37.8827
 6.11225  37.3621
 6.13525  37.0881
 6.15825  36.9589
 6.18125  37.1386
 6.20425  37.132
 6.22725  37.1191
 6.25025  37.0862
 6.27325  37.1799
 6.29625  37.3015
 6.31925  37.4435
 6.34225  37.8113
 6.36525  38.1308
 6.38825  38.2693
 6.41125  38.3754
 6.43425  38.3742
 6.45725  38.5534
 6.48025  38.7047
 6.50325  38.9943
 6.52625  39.3296
 6.54925  39.4553
 6.57225  39.4136
 6.59525  39.3317
 6.61825  39.3533
 6.64125  39.4145
 6.66425  39.707
 6.68725  39.9554
 6.71025  40.1808
 6.73325  40.4509
 6.75625  40.5737
 6.77925  40.719
 6.80225  40.9863
 6.82525  41.3799
 6.84825  41.64
 6.87125  41.9609
 6.89425  42.0539
 6.91725  42.0664
 6.94025  41.9935
 6.96325  42.1587
 6.98625  42.2525
 7.00925  42.3319
 7.03225  42.3885
 7.05525  42.5664
 7.07825  42.485
 7.10125  42.5637
 7.12425  42.6872
 7.14725  42.8721
 7.17025  43.1174
 7.19325  43.1901
 7.21625  43.3609
 7.23925  43.4295
 7.26225  43.4166
 7.28525  43.4866
 7.30825  43.4814
 7.33125  43.6951
 7.35425  43.7487
 7.37725  43.739
 7.40025  43.8224
 7.42325  43.9551
 7.44625  44.0997
 7.46925  44.2892
 7.49225  44.2745
 7.51525  44.2658
 7.53825  44.3852
 7.56125  44.3714
 7.58425  44.366
 7.60725  44.4259
 7.63025  44.4595
 7.65325  44.4039
 7.67625  44.278
 7.69925  44.2706
 7.72225  44.2304
 7.74525  44.1317
 7.76825  43.9806
 7.79125  43.9696
 7.81425  43.9739
 7.83725  43.9753
 7.86025  44.0754
 7.88325  44.029
 7.90625  43.9677
 7.92925  43.8587
 7.95225  43.6412
 7.97525  43.3908
 7.99825  43.2865
 8.02125  43.3325
 8.04425  43.2524
 8.06725  42.7991
 8.09025  42.568
 8.11325  42.5324
 8.13625  42.3839
 8.15925  42.1418
 8.18225  41.9251
 8.20525  41.7184
 8.22825  41.6333
 8.25125  41.4565
 8.27425  41.1071
 8.29725  40.8117
 8.32025  40.616
 8.34325  40.2488
 8.36625  39.8333
 8.38925  39.5335
 8.41225  39.1435
 8.43525  38.7855
 8.45825  38.6009
 8.48125  38.4368
 8.50425  38.0717
 8.52725  37.7224
 8.55025  37.5008
 8.57325  37.0476
 8.59625  36.5324
 8.61925  36.1882
 8.64225  35.9609
 8.66525  35.5659
 8.68825  35.0952
 8.71125  34.7025
 8.73425  34.4397
 8.75725  34.1516
 8.78025  33.7712
 8.80325  33.3017
 8.82625  33.1345
 8.84925  32.8979
 8.87225  32.5252
 8.89525  32.0276
 8.91825  31.7411
 8.94125  31.4501
 8.96425  31.1208
 8.98725  30.8986
 9.01025  30.5536
 9.03325  30.2307
 9.05625  30.0292
 9.07925  29.8399
 9.10225  29.5836
 9.12525  29.3656
 9.14825  29.2633
 9.17125  29.0445
 9.19425  28.773
 9.21725  28.6271
 9.24025  28.4963
 9.26325  28.3312
 9.28625  27.9928
 9.30925  27.7988
 9.33225  27.5906
 9.35525  27.3597
 9.37825  27.1957
 9.40125  27.0618
 9.42425  26.9717
 9.44725  26.8112
 9.47025  26.7713
 9.49325  26.6485
 9.51625  26.4688
 9.53925  26.2545
 9.56225  26.0853
 9.58525  25.9496
 9.60825  25.7881
 9.63125  25.7387
 9.65425  25.5888
 9.67725  25.4274
 9.70025  25.3758
 9.72325  25.4024
 9.74625  25.3568
 9.76925  25.2167
 9.79225  25.1932
 9.81525  25.0405
 9.83825  24.9464
 9.86125  24.8666
 9.88425  24.7489
 9.90725  24.66
 9.93025  24.5289
 9.95325  24.5012
 9.97625  24.4967
 9.99925  24.5095
 10.0222  24.4956
 10.0453  24.4418
 10.0683  24.3707
 10.0913  24.2862
 10.1143  24.1223
 10.1373  23.9915
 10.1603  23.9525
 10.1832  23.9313
 10.2063  23.7932
 10.2293  23.7904
 10.2523  23.6262
 10.2752  23.5571
 10.2982  23.6554
 10.3213  23.7191
 10.3443  23.6657
 10.3673  23.5812
 10.3902  23.568
 10.4133  23.5272
 10.4363  23.4086
 10.4593  23.3282
 10.4823  23.2487
 10.5053  23.275
 10.5283  23.294
 10.5512  23.3118
 10.5742  23.3272
 10.5973  23.4209
 10.6203  23.6591
 10.6433  23.791
 10.6662  23.6922
 10.6893  23.4148
 10.7123  23.3774
 10.7353  23.4066
 10.7583  23.2797
 10.7813  23.2415
 10.8043  22.9395
 10.8272  22.9357
 10.8503  22.9404
 10.8733  22.9909
 10.8963  23.007
 10.9192  22.9231
 10.9422  22.8669
 10.9653  22.7904
 10.9883  22.8078
 11.0113  22.8591
 11.0343  22.8981
 11.0573  22.7745
 11.0803  22.7005
 11.1033  22.7486
 11.1263  22.7126
 11.1493  22.6838
 11.1723  22.6639
 11.1953  22.5371
 11.2182  22.481
 11.2413  22.5139
 11.2643  22.5463
 11.2873  22.5894
 11.3102  22.6065
 11.3333  22.7169
 11.3563  22.7082
 11.3793  22.8572
 11.4023  22.993
 11.4253  23.0131
 11.4483  23.0601
 11.4713  23.1729
 11.4942  23.3618
 11.5173  24.0244
 11.5403  26.0561
 11.5633  29.7606
 11.5862  32.9806
 11.6093  32.3325
 11.6323  28.2152
 11.6553  25.0574
 11.6783  23.6533
 11.7013  23.1328
 11.7243  22.9313
 11.7473  22.9239
 11.7703  22.9348
 11.7933  22.8442
 11.8163  22.8381
 11.8393  22.8663
 11.8622  22.9214
 11.8853  22.8941
 11.9083  23.1204
 11.9313  23.7068
 11.9543  25.0116
 11.9773  26.5518
 12.0003  26.9308
 12.0233  25.7225
 12.0463  25.5908
 12.0693  27.7587
 12.0923  29.1191
 12.1153  27.1228
 12.1382  24.9386
 12.1613  23.7661
 12.1843  23.1899
 12.2073  23.005
 12.2302  22.8641
 12.2533  22.8006
 12.2763  22.7561
 12.2993  22.7287
 12.3223  22.8077
 12.3453  22.8265
 12.3683  22.7925
 12.3913  22.7125
 12.4142  22.6761
 12.4373  22.7384
 12.4603  22.7413
 12.4833  22.7538
 12.5062  22.852
 12.5292  22.8086
 12.5523  23.0056
 12.5753  22.9916
 12.5983  23.0373
 12.6212  23.1534
 12.6443  23.1155
 12.6673  22.9871
 12.6903  23.0642
 12.7133  23.137
 12.7363  23.1386
 12.7593  23.2099
 12.7822  23.3376
 12.8052  23.3805
 12.8283  23.3894
 12.8513  23.5151
 12.8742  23.6335
 12.8972  23.6741
 12.9203  23.7862
 12.9433  23.8797
 12.9663  23.9681
 12.9893  24.0359
 13.0123  24.0637
 13.0353  24.1533
 13.0582  24.2193
 13.0813  24.4493
 13.1043  24.8071
 13.1273  25.078
 13.1502  25.2643
 13.1732  25.5598
 13.1963  25.8907
 13.2193  26.1173
 13.2423  26.4344
 13.2652  26.661
 13.2883  26.9354
 13.3113  27.1044
 13.3343  27.3194
 13.3573  27.6928
 13.3803  28.0855
 13.4033  28.3254
 13.4262  28.5211
 13.4492  28.7966
 13.4723  28.9987
 13.4953  29.2889
 13.5183  29.4871
 13.5412  29.6652
 13.5643  29.8111
 13.5873  29.8719
 13.6103  29.9196
 13.6333  29.9155
 13.6563  29.9204
 13.6793  29.9807
 13.7022  29.9044
 13.7253  29.8775
 13.7483  29.8564
 13.7713  29.8493
 13.7942  29.8327
 13.8172  29.8805
 13.8403  30.1994
 13.8633  30.9748
 13.8863  33.2938
 13.9093  38.8378
 13.9323  45.9472
 13.9553  50.746
 13.9783  49.8255
 14.0013  42.2563
 14.0243  34.5623
 14.0473  30.4534
 14.0703  28.8931
 14.0932  28.2274
 14.1163  27.9776
 14.1393  27.8153
 14.1623  27.6565
 14.1852  27.4187
 14.2083  27.2037
 14.2313  26.925
 14.2543  26.6408
 14.2773  26.503
 14.3003  26.4647
 14.3233  26.4456
 14.3463  26.3388
 14.3692  26.2838
 14.3923  26.0937
 14.4153  26.0525
 14.4383  26.0197
 14.4612  25.9473
 14.4843  25.8799
 14.5073  25.8168
 14.5303  25.8116
 14.5533  25.8187
 14.5763  25.7392
 14.5993  25.558
 14.6223  25.5146
 14.6453  25.532
 14.6683  25.3995
 14.6913  25.3528
 14.7143  25.411
 14.7372  25.3723
 14.7603  25.3284
 14.7833  25.3122
 14.8063  25.2398
 14.8293  25.1262
 14.8523  25.1519
 14.8753  25.11
 14.8983  25.0963
 14.9213  25.1304
 14.9443  25.0617
 14.9673  25.1281
 14.9903  25.1727
 15.0132  25.0911
 15.0363  25.0497
 15.0593  25.028
 15.0823  25.0266
 15.1052  25.1603
 15.1283  25.6977
 15.1513  27.4206
 15.1743  28.9399
 15.1973  29.4106
 15.2203  28.7674
 15.2433  27.2536
 15.2663  25.8147
 15.2892  25.1503
 15.3123  24.9524
 15.3353  24.8579
 15.3583  24.7399
 15.3812  24.71
 15.4043  24.7799
 15.4273  24.7178
 15.4503  24.6312
 15.4733  24.5773
 15.4963  24.6509
 15.5193  24.7415
 15.5423  24.7217
 15.5653  24.6972
 15.5883  24.7024
 15.6113  24.6576
 15.6343  24.5909
 15.6572  24.6948
 15.6803  24.6504
 15.7033  24.6904
 15.7263  24.7341
 15.7492  24.7354
 15.7723  24.806
 15.7953  24.8226
 15.8183  24.7868
 15.8413  24.6962
 15.8643  24.7047
 15.8873  24.7548
 15.9103  24.7639
 15.9332  24.7255
 15.9563  24.6185
 15.9793  24.6402
 16.0023  24.7056
 16.0253  24.774
 16.0482  24.8428
 16.0713  24.8734
 16.0943  24.9539
 16.1172  25.1173
 16.1403  25.1255
 16.1633  25.0853
 16.1863  25.1975
 16.2093  25.4768
 16.2323  25.7891
 16.2553  25.9511
 16.2783  25.8563
 16.3012  25.3832
 16.3243  24.9887
 16.3472  24.8548
 16.3703  24.7649
 16.3933  24.8042
 16.4163  24.9566
 16.4393  24.8591
 16.4623  24.842
 16.4853  24.8286
 16.5083  24.7444
 16.5312  24.7274
 16.5543  24.76
 16.5773  24.7611
 16.6002  24.7317
 16.6233  24.678
 16.6463  24.6509
 16.6693  24.6211
 16.6923  24.6391
 16.7153  24.6483
 16.7383  24.6311
 16.7613  24.6235
 16.7843  24.483
 16.8073  24.4809
 16.8303  24.479
 16.8533  24.5582
 16.8763  24.6062
 16.8992  24.6143
 16.9223  24.6231
 16.9453  24.6056
 16.9683  24.53
 16.9913  24.4388
 17.0143  24.3886
 17.0373  24.3629
 17.0603  24.2567
 17.0832  24.2981
 17.1063  24.3124
 17.1293  24.3179
 17.1522  24.323
 17.1753  24.2974
 17.1983  24.3197
 17.2213  24.3405
 17.2443  24.2957
 17.2673  24.278
 17.2903  24.349
 17.3133  24.3478
 17.3362  24.2973
 17.3593  24.1637
 17.3823  24.1509
 17.4053  24.128
 17.4283  24.1896
 17.4513  24.1006
 17.4743  24.0869
 17.4973  24.1379
 17.5203  24.0534
 17.5433  24.0979
 17.5663  24.1036
 17.5893  24.1328
 17.6123  24.0718
 17.6352  24.0735
 17.6583  23.9667
 17.6813  23.9443
 17.7042  23.9629
 17.7273  23.9951
 17.7503  23.9779
 17.7733  23.9719
 17.7963  23.982
 17.8193  23.9029
 17.8423  23.8846
 17.8653  23.9805
 17.8882  24.0152
 17.9113  24.1377
 17.9343  24.2781
 17.9573  24.3915
 17.9803  24.7613
 18.0033  25.1748
 18.0263  25.555
 18.0493  26.1676
 18.0723  27.7484
 18.0953  31.176
 18.1183  35.9436
 18.1413  36.5416
 18.1643  31.583
 18.1872  27.1921
 18.2103  25.3824
 18.2333  24.6794
 18.2563  24.3102
 18.2793  24.1185
 18.3023  24.0657
 18.3253  24.033
 18.3483  23.9429
 18.3712  23.922
 18.3943  23.8779
 18.4173  23.9191
 18.4402  23.9291
 18.4633  23.8705
 18.4863  23.7723
 18.5093  23.7257
 18.5323  23.7976
 18.5553  23.7442
 18.5783  23.7673
 18.6013  23.8401
 18.6242  23.7903
 18.6473  23.6639
 18.6703  23.6559
 18.6933  23.7164
 18.7163  23.7247
 18.7392  23.7166
 18.7623  23.673
 18.7853  23.6575
 18.8083  23.6167
 18.8313  23.5962
 18.8543  23.6177
 18.8773  23.5992
 18.9003  23.7637
 18.9232  23.9665
 18.9463  23.8502
 18.9693  23.6969
 18.9922  23.6128
 19.0153  23.7151
 19.0383  23.7919
 19.0613  23.8177
 19.0843  23.7965
 19.1073  23.7619
 19.1303  23.7787
 19.1533  23.7869
 19.1762  23.7334
 19.1993  23.7054
 19.2223  23.6276
 19.2453  23.6808
 19.2683  23.7589
 19.2913  23.7824
 19.3143  23.9126
 19.3373  23.9361
 19.3603  23.8185
 19.3833  23.9036
 19.4062  23.916
 19.4293  23.8699
 19.4523  23.866
 19.4752  23.8996
 19.4983  23.9545
 19.5213  23.9973
 19.5443  24.0426
 19.5673  24.1201
 19.5903  24.3374
 19.6133  24.4858
 19.6363  24.8616
 19.6593  25.7459
 19.6823  27.2183
 19.7053  29.5635
 19.7283  29.9208
 19.7513  28.8738
 19.7742  27.8194
 19.7973  29.2855
 19.8203  33.7864
 19.8433  37.6623
 19.8663  36.7186
 19.8893  31.5692
 19.9123  27.8286
 19.9353  25.7432
 19.9582  24.877
 19.9813  24.511
 20.0043  24.2713
 20.0272  24.2286
 20.0503  24.2642
 20.0733  24.2025
 20.0963  24.089
 20.1193  24.0898
 20.1423  24.1217
 20.1653  24.1104
 20.1883  24.0899
 20.2112  24.018
 20.2343  24.0769
 20.2573  23.9828
 20.2803  23.8603
 20.3033  23.831
 20.3263  23.8269
 20.3493  23.9523
 20.3723  23.9348
 20.3953  23.8993
 20.4183  23.951
 20.4413  23.8982
 20.4643  23.8525
 20.4873  23.8009
 20.5102  23.8236
 20.5333  23.8317
 20.5563  23.9469
 20.5792  24.1039
 20.6023  24.2344
 20.6253  24.3306
 20.6483  24.3529
 20.6713  24.4613
 20.6943  24.7783
 20.7173  25.8117
 20.7403  27.1938
 20.7632  28.3
 20.7863  28.8048
 20.8093  27.4876
 20.8323  25.7222
 20.8553  24.7981
 20.8783  24.4129
 20.9013  24.3666
 20.9243  24.4275
 20.9473  24.327
 20.9703  24.1303
 20.9933  24.1229
 21.0163  24.1705
 21.0393  24.112
 21.0622  24.0073
 21.0853  24.0166
 21.1083  24.0875
 21.1313  24.1866
 21.1543  24.103
 21.1773  24.1524
 21.2003  24.161
 21.2233  24.123
 21.2462  24.0839
 21.2693  24.1576
 21.2923  24.1358
 21.3152  24.1039
 21.3383  24.1415
 21.3613  24.1648
 21.3843  24.1936
 21.4073  24.1386
 21.4303  24.2386
 21.4533  24.1817
 21.4763  24.0913
 21.4992  24.0867
 21.5223  24.0889
 21.5453  24.1574
 21.5683  24.1209
 21.5913  24.1505
 21.6142  24.2529
 21.6373  24.2919
 21.6603  24.1866
 21.6833  24.1641
 21.7063  24.2497
 21.7293  24.1846
 21.7523  24.2574
 21.7753  24.338
 21.7982  24.3092
 21.8213  24.2939
 21.8443  24.2868
 21.8672  24.3509
 21.8903  24.3337
 21.9133  24.3634
 21.9363  24.4506
 21.9593  24.4647
 21.9823  24.4217
 22.0053  24.3954
 22.0283  24.4479
 22.0512  24.387
 22.0743  24.5511
 22.0973  24.7172
 22.1203  24.7336
 22.1433  24.6997
 22.1663  24.7213
 22.1893  24.6054
 22.2123  24.5962
 22.2353  24.5763
 22.2583  24.4857
 22.2813  24.4
 22.3043  24.5726
 22.3273  24.6506
 22.3502  24.6631
 22.3733  24.6029
 22.3963  24.5748
 22.4193  24.5346
 22.4423  24.7229
 22.4653  24.7966
 22.4883  24.7901
 22.5113  24.9178
 22.5343  24.9114
 22.5573  24.9017
 22.5803  24.9882
 22.6033  25.0153
 22.6263  25.0815
 22.6493  25.1191
 22.6723  25.1536
 22.6953  25.3034
 22.7183  25.3504
 22.7413  25.4259
 22.7643  25.4069
 22.7873  25.32
 22.8103  25.458
 22.8333  25.6188
 22.8563  25.746
 22.8793  25.9072
 22.9022  26.0387
 22.9253  26.158
 22.9483  26.2168
 22.9713  26.338
 22.9943  26.5831