File: test-data-xrd/xrd-map-34-ID-E/Data_0023.chi
F:\20151113_APS_34IDE\\Brian\Particle1\OCV\Data_0023.tif
2-Theta Angle (Degrees)
Intensity
       2000
 0.01725  0.0000000E+00
 0.04025  0.0000000E+00
 0.06325  0.0000000E+00
 0.08625  0.0000000E+00
 0.10925  0.0000000E+00
 0.13225  0.0000000E+00
 0.15525  0.0000000E+00
 0.17825  0.0000000E+00
 0.20125  0.0000000E+00
 0.22425  0.0000000E+00
 0.24725  0.0000000E+00
 0.27025  0.0000000E+00
 0.29325  0.0000000E+00
 0.31625  0.0000000E+00
 0.33925  0.0000000E+00
 0.36225  0.0000000E+00
 0.38525  0.0000000E+00
 0.40825  0.0000000E+00
 0.43125  0.0000000E+00
 0.45425  0.0000000E+00
 0.47725  0.0000000E+00
 0.50025  0.0000000E+00
 0.52325  0.0000000E+00
 0.54625  0.0000000E+00
 0.56925  0.0000000E+00
 0.59225  0.0000000E+00
 0.61525  0.0000000E+00
 0.63825  0.0000000E+00
 0.66125  0.0000000E+00
 0.68425  0.0000000E+00
 0.70725  0.0000000E+00
 0.73025  0.0000000E+00
 0.75325  0.0000000E+00
 0.77625  0.0000000E+00
 0.79925  0.0000000E+00
 0.82225  0.0000000E+00
 0.84525  0.0000000E+00
 0.86825  0.0000000E+00
 0.89125  0.0000000E+00
 0.91425  0.0000000E+00
 0.93725  0.0000000E+00
 0.96025  0.0000000E+00
 0.98325  0.0000000E+00
 1.00625  0.0000000E+00
 1.02925  0.0000000E+00
 1.05225  0.0000000E+00
 1.07525  0.0000000E+00
 1.09825  0.0000000E+00
 1.12125  0.0000000E+00
 1.14425  0.0000000E+00
 1.16725  0.0000000E+00
 1.19025  0.0000000E+00
 1.21325  0.0000000E+00
 1.23625  0.0000000E+00
 1.25925  0.0000000E+00
 1.28225  0.0000000E+00
 1.30525  0.0000000E+00
 1.32825  0.0000000E+00
 1.35125  0.0000000E+00
 1.37425  0.0000000E+00
 1.39725  0.0000000E+00
 1.42025  0.0000000E+00
 1.44325  0.0000000E+00
 1.46625  0.0000000E+00
 1.48925  0.0000000E+00
 1.51225  0.0000000E+00
 1.53525  0.0000000E+00
 1.55825  0.0000000E+00
 1.58125  0.0000000E+00
 1.60425  0.0000000E+00
 1.62725  0.0000000E+00
 1.65025  0.0000000E+00
 1.67325  0.0000000E+00
 1.69625  0.0000000E+00
 1.71925  0.0000000E+00
 1.74225  0.0000000E+00
 1.76525  0.0000000E+00
 1.78825  0.0000000E+00
 1.81125  0.0000000E+00
 1.83425  0.0000000E+00
 1.85725  0.0000000E+00
 1.88025  0.0000000E+00
 1.90325  0.0000000E+00
 1.92625  0.0000000E+00
 1.94925  0.0000000E+00
 1.97225  0.0000000E+00
 1.99525  0.0000000E+00
 2.01825  0.0000000E+00
 2.04125  0.0000000E+00
 2.06425  0.0000000E+00
 2.08725  0.0000000E+00
 2.11025  0.0000000E+00
 2.13325  0.0000000E+00
 2.15625  0.0000000E+00
 2.17925  0.0000000E+00
 2.20225  0.0000000E+00
 2.22525  0.0000000E+00
 2.24825  0.0000000E+00
 2.27125  0.0000000E+00
 2.29425  0.0000000E+00
 2.31725  0.0000000E+00
 2.34025  0.0000000E+00
 2.36325  0.0000000E+00
 2.38625  0.0000000E+00
 2.40925  0.0000000E+00
 2.43225  0.0000000E+00
 2.45525  0.0000000E+00
 2.47825  0.0000000E+00
 2.50125  0.0000000E+00
 2.52425  0.0000000E+00
 2.54725  0.0000000E+00
 2.57025  0.0000000E+00
 2.59325  0.0000000E+00
 2.61625  0.0000000E+00
 2.63925  0.0000000E+00
 2.66225  0.0000000E+00
 2.68525  0.0000000E+00
 2.70825  0.0000000E+00
 2.73125  0.0000000E+00
 2.75425  0.0000000E+00
 2.77725  0.0000000E+00
 2.80025  0.0000000E+00
 2.82325  32.3213
 2.84625  32.3995
 2.86925  33.8349
 2.89225  35.6083
 2.91525  35.8218
 2.93825  35.7469
 2.96125  35.8528
 2.98425  35.3059
 3.00725  35.172
 3.03025  35.9331
 3.05325  36.1962
 3.07625  36.3269
 3.09925  36.7856
 3.12225  36.174
 3.14525  36.2625
 3.16825  36.3037
 3.19125  35.5455
 3.21425  34.9699
 3.23725  35.1647
 3.26025  35.4209
 3.28325  35.051
 3.30625  35.1671
 3.32925  35.4813
 3.35225  35.7072
 3.37525  35.597
 3.39825  34.6996
 3.42125  34.3731
 3.44425  33.902
 3.46725  33.8998
 3.49025  34.1911
 3.51325  34.4642
 3.53625  34.133
 3.55925  34.1132
 3.58225  34.157
 3.60525  33.8694
 3.62825  33.6859
 3.65125  33.4803
 3.67425  33.3251
 3.69725  33.3431
 3.72025  33.4287
 3.74325  33.4535
 3.76625  33.4431
 3.78925  33.4479
 3.81225  33.2181
 3.83525  32.8378
 3.85825  32.7517
 3.88125  32.7869
 3.90425  32.4987
 3.92725  32.4647
 3.95025  32.7417
 3.97325  32.9981
 3.99625  33.2099
 4.01925  33.1473
 4.04225  32.9576
 4.06525  32.8672
 4.08825  32.5376
 4.11125  32.4127
 4.13425  32.0829
 4.15725  31.8783
 4.18025  31.9622
 4.20325  32.2376
 4.22625  32.1396
 4.24925  32.1157
 4.27225  32.3228
 4.29525  32.4258
 4.31825  32.5221
 4.34125  32.4638
 4.36425  32.1465
 4.38725  32.2015
 4.41025  32.6267
 4.43325  32.8891
 4.45625  32.6086
 4.47925  32.4344
 4.50225  32.0199
 4.52525  31.9538
 4.54825  32.3926
 4.57125  32.9531
 4.59425  33.1182
 4.61725  33.1213
 4.64025  33.1188
 4.66325  33.3317
 4.68625  33.2687
 4.70925  33.1944
 4.73225  33.0048
 4.75525  32.7101
 4.77825  32.5631
 4.80125  32.549
 4.82425  32.7972
 4.84725  32.7399
 4.87025  32.6235
 4.89325  32.6883
 4.91625  32.7817
 4.93925  32.909
 4.96225  32.87
 4.98525  33.0804
 5.00825  33.127
 5.03125  33.1461
 5.05425  33.3245
 5.07725  33.3152
 5.10025  33.3664
 5.12325  33.4227
 5.14625  33.3662
 5.16925  33.4565
 5.19225  33.8029
 5.21525  34.0597
 5.23825  34.0429
 5.26125  33.9225
 5.28425  33.9204
 5.30725  34.1517
 5.33025  34.3966
 5.35325  34.3854
 5.37625  34.4632
 5.39925  34.8386
 5.42225  35.2959
 5.44525  35.6668
 5.46825  35.6893
 5.49125  35.4021
 5.51425  35.2035
 5.53725  34.887
 5.56025  34.721
 5.58325  34.8297
 5.60625  35.0932
 5.62925  35.223
 5.65225  35.4017
 5.67525  35.5506
 5.69825  35.5055
 5.72125  35.6994
 5.74425  35.9045
 5.76725  36.0348
 5.79025  36.0621
 5.81325  36.1688
 5.83625  36.2435
 5.85925  36.3201
 5.88225  36.6815
 5.90525  37.6373
 5.92825  39.8707
 5.95125  47.4093
 5.97425  55.8965
 5.99725  57.8332
 6.02025  49.769
 6.04325  40.0952
 6.06625  38.4063
 6.08925  37.6874
 6.11225  37.3709
 6.13525  37.138
 6.15825  37.1411
 6.18125  37.4188
 6.20425  37.5103
 6.22725  37.5156
 6.25025  37.5955
 6.27325  37.777
 6.29625  37.8273
 6.31925  37.98
 6.34225  38.4049
 6.36525  38.6766
 6.38825  38.7207
 6.41125  38.728
 6.43425  38.9072
 6.45725  38.8606
 6.48025  38.9332
 6.50325  39.0902
 6.52625  39.3098
 6.54925  39.4309
 6.57225  39.7292
 6.59525  39.9753
 6.61825  40.2288
 6.64125  40.3484
 6.66425  40.5311
 6.68725  40.5187
 6.71025  40.5928
 6.73325  40.6585
 6.75625  40.9087
 6.77925  41.0751
 6.80225  41.2849
 6.82525  41.7212
 6.84825  41.9
 6.87125  41.9584
 6.89425  42.1078
 6.91725  42.2638
 6.94025  42.3426
 6.96325  42.5902
 6.98625  42.7365
 7.00925  42.8106
 7.03225  42.7649
 7.05525  42.8439
 7.07825  42.9452
 7.10125  43.1799
 7.12425  43.4183
 7.14725  43.5253
 7.17025  43.6186
 7.19325  43.7895
 7.21625  44.0924
 7.23925  44.2547
 7.26225  44.2563
 7.28525  44.2653
 7.30825  44.4549
 7.33125  44.4116
 7.35425  44.3678
 7.37725  44.3657
 7.40025  44.3704
 7.42325  44.5224
 7.44625  44.7101
 7.46925  44.7305
 7.49225  44.8798
 7.51525  44.7979
 7.53825  44.7689
 7.56125  44.7333
 7.58425  44.8838
 7.60725  44.9457
 7.63025  44.9876
 7.65325  45.0356
 7.67625  44.9419
 7.69925  44.8386
 7.72225  44.9675
 7.74525  44.9576
 7.76825  44.8525
 7.79125  44.866
 7.81425  44.816
 7.83725  44.5988
 7.86025  44.5558
 7.88325  44.4948
 7.90625  44.4852
 7.92925  44.4562
 7.95225  44.1969
 7.97525  44.032
 7.99825  43.9398
 8.02125  43.8129
 8.04425  43.7745
 8.06725  43.7033
 8.09025  43.5993
 8.11325  43.4132
 8.13625  43.2253
 8.15925  43.0275
 8.18225  42.7249
 8.20525  42.6345
 8.22825  42.4537
 8.25125  42.3471
 8.27425  41.9885
 8.29725  41.618
 8.32025  41.2923
 8.34325  40.9222
 8.36625  40.6393
 8.38925  40.293
 8.41225  39.9107
 8.43525  39.5466
 8.45825  39.2291
 8.48125  38.9776
 8.50425  38.5888
 8.52725  37.9926
 8.55025  37.5675
 8.57325  37.3369
 8.59625  37.1125
 8.61925  36.7398
 8.64225  36.3159
 8.66525  35.9695
 8.68825  35.7345
 8.71125  35.3689
 8.73425  34.8203
 8.75725  34.3743
 8.78025  34.1721
 8.80325  33.8928
 8.82625  33.5211
 8.84925  33.2318
 8.87225  32.9699
 8.89525  32.6236
 8.91825  32.3446
 8.94125  32.162
 8.96425  31.9522
 8.98725  31.6083
 9.01025  31.2116
 9.03325  30.9589
 9.05625  30.8573
 9.07925  30.511
 9.10225  30.1277
 9.12525  29.8423
 9.14825  29.6591
 9.17125  29.4005
 9.19425  29.1639
 9.21725  29.0454
 9.24025  28.8596
 9.26325  28.6072
 9.28625  28.457
 9.30925  28.2317
 9.33225  27.9956
 9.35525  27.7617
 9.37825  27.7906
 9.40125  27.6402
 9.42425  27.415
 9.44725  27.2408
 9.47025  27.1464
 9.49325  27.0531
 9.51625  26.8171
 9.53925  26.5236
 9.56225  26.3655
 9.58525  26.2537
 9.60825  26.2209
 9.63125  26.2079
 9.65425  26.1008
 9.67725  25.8718
 9.70025  25.775
 9.72325  25.7422
 9.74625  25.732
 9.76925  25.6887
 9.79225  25.5938
 9.81525  25.492
 9.83825  25.3126
 9.86125  25.0378
 9.88425  24.965
 9.90725  24.9945
 9.93025  24.9078
 9.95325  24.7714
 9.97625  24.5923
 9.99925  24.4601
 10.0222  24.4175
 10.0453  24.4781
 10.0683  24.4044
 10.0913  24.2855
 10.1143  24.2808
 10.1373  24.3003
 10.1603  24.2586
 10.1832  24.0885
 10.2063  24.081
 10.2293  24.1364
 10.2523  24.1077
 10.2752  24.1376
 10.2982  24.0972
 10.3213  24.0441
 10.3443  23.9458
 10.3673  23.9124
 10.3902  23.9118
 10.4133  23.9277
 10.4363  23.7775
 10.4593  23.7085
 10.4823  23.6649
 10.5053  23.537
 10.5283  23.3677
 10.5512  23.3502
 10.5742  23.3144
 10.5973  23.1847
 10.6203  23.1576
 10.6433  23.2079
 10.6662  23.215
 10.6893  23.1749
 10.7123  23.1297
 10.7353  23.1349
 10.7583  23.0966
 10.7813  23.0547
 10.8043  22.9758
 10.8272  22.9879
 10.8503  23.1211
 10.8733  23.1823
 10.8963  23.0457
 10.9192  22.9979
 10.9422  23.043
 10.9653  23.0351
 10.9883  22.9034
 11.0113  22.7809
 11.0343  22.7771
 11.0573  22.7507
 11.0803  22.8003
 11.1033  22.8157
 11.1263  22.7736
 11.1493  22.7389
 11.1723  22.6892
 11.1953  22.6301
 11.2182  22.559
 11.2413  22.5403
 11.2643  22.6043
 11.2873  22.6464
 11.3102  22.6683
 11.3333  22.6742
 11.3563  22.6467
 11.3793  22.735
 11.4023  22.8866
 11.4253  22.961
 11.4483  22.8633
 11.4713  22.8278
 11.4942  22.85
 11.5173  22.9274
 11.5403  23.3094
 11.5633  24.0812
 11.5862  24.7382
 11.6093  24.4533
 11.6323  23.5446
 11.6553  23.0095
 11.6783  22.6138
 11.7013  22.4269
 11.7243  22.5392
 11.7473  22.6818
 11.7703  22.6126
 11.7933  22.5672
 11.8163  22.5772
 11.8393  22.5489
 11.8622  22.5953
 11.8853  22.6157
 11.9083  22.5972
 11.9313  22.6325
 11.9543  22.6987
 11.9773  22.8013
 12.0003  22.8268
 12.0233  22.7702
 12.0463  22.8377
 12.0693  23.0475
 12.0923  23.3416
 12.1153  23.4445
 12.1382  23.2073
 12.1613  22.9708
 12.1843  22.8444
 12.2073  22.772
 12.2302  22.7329
 12.2533  22.7178
 12.2763  22.7439
 12.2993  22.8197
 12.3223  22.8721
 12.3453  22.8356
 12.3683  22.865
 12.3913  22.7999
 12.4142  22.7577
 12.4373  22.7668
 12.4603  22.7269
 12.4833  22.7838
 12.5062  22.7209
 12.5292  22.8127
 12.5523  22.9907
 12.5753  23.0304
 12.5983  22.9631
 12.6212  22.9164
 12.6443  22.9496
 12.6673  23.055
 12.6903  23.1268
 12.7133  23.1656
 12.7363  23.1322
 12.7593  23.1649
 12.7822  23.2175
 12.8052  23.2894
 12.8283  23.5173
 12.8513  23.623
 12.8742  23.6381
 12.8972  23.7031
 12.9203  23.7112
 12.9433  23.8172
 12.9663  23.9499
 12.9893  24.0762
 13.0123  24.172
 13.0353  24.3488
 13.0582  24.496
 13.0813  24.5752
 13.1043  24.8771
 13.1273  25.1756
 13.1502  25.4465
 13.1732  25.7439
 13.1963  25.9492
 13.2193  26.2485
 13.2423  26.6078
 13.2652  26.7895
 13.2883  27.04
 13.3113  27.2727
 13.3343  27.5613
 13.3573  27.8987
 13.3803  28.183
 13.4033  28.2772
 13.4262  28.4616
 13.4492  28.8326
 13.4723  29.1191
 13.4953  29.3441
 13.5183  29.5458
 13.5412  29.7088
 13.5643  29.8814
 13.5873  30.0265
 13.6103  29.9775
 13.6333  29.9138
 13.6563  29.8766
 13.6793  29.8664
 13.7022  29.8014
 13.7253  29.735
 13.7483  29.627
 13.7713  29.5027
 13.7942  29.4809
 13.8172  29.4189
 13.8403  29.3941
 13.8633  29.4371
 13.8863  29.6611
 13.9093  30.4702
 13.9323  32.2599
 13.9553  33.0643
 13.9783  32.1565
 14.0013  30.3162
 14.0243  29.0377
 14.0473  28.2494
 14.0703  27.8344
 14.0932  27.6108
 14.1163  27.4438
 14.1393  27.3341
 14.1623  27.2769
 14.1852  27.1314
 14.2083  26.888
 14.2313  26.6433
 14.2543  26.63
 14.2773  26.6646
 14.3003  26.7548
 14.3233  26.6642
 14.3463  26.476
 14.3692  26.3482
 14.3923  26.2303
 14.4153  26.0529
 14.4383  25.9851
 14.4612  25.9253
 14.4843  25.9009
 14.5073  25.8699
 14.5303  25.7675
 14.5533  25.711
 14.5763  25.6976
 14.5993  25.6099
 14.6223  25.5173
 14.6453  25.4417
 14.6683  25.3862
 14.6913  25.4051
 14.7143  25.3836
 14.7372  25.3312
 14.7603  25.3543
 14.7833  25.2187
 14.8063  25.0484
 14.8293  24.9795
 14.8523  25.0311
 14.8753  24.9498
 14.8983  24.9857
 14.9213  25.0369
 14.9443  25.0143
 14.9673  24.9378
 14.9903  24.8984
 15.0132  24.9783
 15.0363  25.058
 15.0593  25.0742
 15.0823  25.1401
 15.1052  25.1296
 15.1283  25.1257
 15.1513  25.3619
 15.1743  25.5989
 15.1973  25.5848
 15.2203  25.3419
 15.2433  25.114
 15.2663  24.9478
 15.2892  24.8557
 15.3123  24.7804
 15.3353  24.6705
 15.3583  24.5696
 15.3812  24.643
 15.4043  24.6235
 15.4273  24.6394
 15.4503  24.724
 15.4733  24.6765
 15.4963  24.7331
 15.5193  24.7604
 15.5423  24.6628
 15.5653  24.644
 15.5883  24.7272
 15.6113  24.7388
 15.6343  24.6331
 15.6572  24.6009
 15.6803  24.6356
 15.7033  24.6643
 15.7263  24.711
 15.7492  24.7215
 15.7723  24.755
 15.7953  24.7875
 15.8183  24.7222
 15.8413  24.6923
 15.8643  24.6228
 15.8873  24.5851
 15.9103  24.6565
 15.9332  24.6748
 15.9563  24.6337
 15.9793  24.7012
 16.0023  24.8223
 16.0253  24.9228
 16.0482  24.9149
 16.0713  24.8813
 16.0943  24.9031
 16.1172  24.9892
 16.1403  24.9942
 16.1633  25.2048
 16.1863  25.7454
 16.2093  26.8948
 16.2323  28.4274
 16.2553  29.2392
 16.2783  28.0101
 16.3012  26.1763
 16.3243  25.4122
 16.3472  25.2695
 16.3703  25.1495
 16.3933  25.0524
 16.4163  25.1237
 16.4393  25.1094
 16.4623  25.0545
 16.4853  24.9883
 16.5083  24.9172
 16.5312  24.9415
 16.5543  24.8995
 16.5773  24.6902
 16.6002  24.6638
 16.6233  24.6531
 16.6463  24.66
 16.6693  24.7142
 16.6923  24.6953
 16.7153  24.6562
 16.7383  24.6181
 16.7613  24.647
 16.7843  24.6917
 16.8073  24.6478
 16.8303  24.5394
 16.8533  24.5343
 16.8763  24.5254
 16.8992  24.5946
 16.9223  24.5293
 16.9453  24.4115
 16.9683  24.4065
 16.9913  24.4344
 17.0143  24.4646
 17.0373  24.3945
 17.0603  24.3161
 17.0832  24.3259
 17.1063  24.3427
 17.1293  24.3486
 17.1522  24.3214
 17.1753  24.3854
 17.1983  24.4775
 17.2213  24.4195
 17.2443  24.302
 17.2673  24.2844
 17.2903  24.3528
 17.3133  24.3231
 17.3362  24.1692
 17.3593  24.1603
 17.3823  24.197
 17.4053  24.1093
 17.4283  24.0853
 17.4513  24.0994
 17.4743  23.984
 17.4973  23.998
 17.5203  24.0128
 17.5433  24.0848
 17.5663  24.0848
 17.5893  23.9877
 17.6123  23.9458
 17.6352  23.9963
 17.6583  23.9387
 17.6813  23.928
 17.7042  23.9523
 17.7273  23.9237
 17.7503  23.8819
 17.7733  23.8476
 17.7963  23.9347
 17.8193  23.9715
 17.8423  23.9371
 17.8653  23.9728
 17.8882  23.9067
 17.9113  23.9844
 17.9343  24.0008
 17.9573  23.8884
 17.9803  23.8931
 18.0033  24.216
 18.0263  24.3907
 18.0493  24.3238
 18.0723  24.5256
 18.0953  24.863
 18.1183  24.8366
 18.1413  24.476
 18.1643  24.1303
 18.1872  23.8491
 18.2103  23.7388
 18.2333  23.7121
 18.2563  23.7572
 18.2793  23.845
 18.3023  23.76
 18.3253  23.6093
 18.3483  23.6699
 18.3712  23.69
 18.3943  23.6911
 18.4173  23.709
 18.4402  23.652
 18.4633  23.7001
 18.4863  23.7428
 18.5093  23.7771
 18.5323  23.7429
 18.5553  23.6875
 18.5783  23.6356
 18.6013  23.66
 18.6242  23.6213
 18.6473  23.5914
 18.6703  23.502
 18.6933  23.5635
 18.7163  23.6301
 18.7392  23.5389
 18.7623  23.5671
 18.7853  23.724
 18.8083  23.9922
 18.8313  24.0552
 18.8543  23.8494
 18.8773  23.6047
 18.9003  23.6527
 18.9232  23.7102
 18.9463  23.7912
 18.9693  23.7061
 18.9922  23.6346
 19.0153  23.664
 19.0383  23.7292
 19.0613  23.6799
 19.0843  23.6859
 19.1073  23.7382
 19.1303  23.6925
 19.1533  23.6784
 19.1762  23.6869
 19.1993  23.6882
 19.2223  23.6315
 19.2453  23.5819
 19.2683  23.701
 19.2913  23.6963
 19.3143  23.6758
 19.3373  23.6547
 19.3603  23.6263
 19.3833  23.5942
 19.4062  23.6692
 19.4293  23.6371
 19.4523  23.6413
 19.4752  23.6921
 19.4983  23.7367
 19.5213  23.7937
 19.5443  23.8426
 19.5673  23.8275
 19.5903  23.7463
 19.6133  23.6773
 19.6363  23.7932
 19.6593  23.9792
 19.6823  24.2442
 19.7053  24.475
 19.7283  24.4255
 19.7513  24.3616
 19.7742  24.4136
 19.7973  24.4373
 19.8203  24.4211
 19.8433  24.549
 19.8663  24.5757
 19.8893  24.4076
 19.9123  24.2072
 19.9353  23.9559
 19.9582  23.8833
 19.9813  23.9633
 20.0043  23.8069
 20.0272  23.7226
 20.0503  23.7688
 20.0733  23.7375
 20.0963  23.7466
 20.1193  23.8512
 20.1423  23.886
 20.1653  23.8146
 20.1883  23.8579
 20.2112  23.8126
 20.2343  23.9027
 20.2573  23.87
 20.2803  23.7868
 20.3033  23.7599
 20.3263  23.7326
 20.3493  23.7616
 20.3723  23.8577
 20.3953  23.8302
 20.4183  23.8945
 20.4413  23.844
 20.4643  23.8292
 20.4873  23.8047
 20.5102  23.7691
 20.5333  23.8112
 20.5563  23.8924
 20.5792  23.8657
 20.6023  23.9427
 20.6253  23.9955
 20.6483  23.9793
 20.6713  24.0034
 20.6943  24.1569
 20.7173  24.3886
 20.7403  24.5999
 20.7632  24.8135
 20.7863  24.6731
 20.8093  24.269
 20.8323  24.0721
 20.8553  24.1109
 20.8783  24.1075
 20.9013  24.0858
 20.9243  24.096
 20.9473  24.0452
 20.9703  23.9739
 20.9933  24.0537
 21.0163  24.0624
 21.0393  23.9876
 21.0622  23.8898
 21.0853  23.9913
 21.1083  23.9323
 21.1313  23.8949
 21.1543  23.8579
 21.1773  23.9565
 21.2003  24.0375
 21.2233  23.9923
 21.2462  24.0276
 21.2693  24.0388
 21.2923  24.038
 21.3152  24.0203
 21.3383  24.0975
 21.3613  24.1226
 21.3843  24.0878
 21.4073  24.0317
 21.4303  24.1072
 21.4533  24.1258
 21.4763  24.111
 21.4992  24.093
 21.5223  24.0763
 21.5453  24.1348
 21.5683  24.1155
 21.5913  24.1446
 21.6142  24.212
 21.6373  24.2509
 21.6603  24.2197
 21.6833  24.1738
 21.7063  24.147
 21.7293  24.2192
 21.7523  24.2732
 21.7753  24.2916
 21.7982  24.3029
 21.8213  24.3374
 21.8443  24.2335
 21.8672  24.3101
 21.8903  24.3416
 21.9133  24.2682
 21.9363  24.2798
 21.9593  24.3375
 21.9823  24.345
 22.0053  24.3471
 22.0283  24.3149
 22.0512  24.3151
 22.0743  24.3774
 22.0973  24.4074
 22.1203  24.5229
 22.1433  24.5519
 22.1663  24.4971
 22.1893  24.4411
 22.2123  24.435
 22.2353  24.5624
 22.2583  24.6282
 22.2813  24.5822
 22.3043  24.6242
 22.3273  24.5751
 22.3502  24.5808
 22.3733  24.606
 22.3963  24.6476
 22.4193  24.6888
 22.4423  24.7758
 22.4653  24.7959
 22.4883  24.8004
 22.5113  24.8685
 22.5343  24.9464
 22.5573  24.9616
 22.5803  24.9954
 22.6033  24.9848
 22.6263  25.0406
 22.6493  25.0497
 22.6723  25.0633
 22.6953  25.1252
 22.7183  25.2483
 22.7413  25.2454
 22.7643  25.2464
 22.7873  25.2622
 22.8103  25.3393
 22.8333  25.5628
 22.8563  25.6636
 22.8793  25.6629
 22.9022  25.7787
 22.9253  25.9039
 22.9483  25.9982
 22.9713  26.1104
 22.9943  26.2736