File: test-data-xrd/xrd-map-34-ID-E/Data_0129.chi
F:\20151113_APS_34IDE\\Brian\Particle1\OCV\Data_0129.tif
2-Theta Angle (Degrees)
Intensity
       2000
 0.01725  0.0000000E+00
 0.04025  0.0000000E+00
 0.06325  0.0000000E+00
 0.08625  0.0000000E+00
 0.10925  0.0000000E+00
 0.13225  0.0000000E+00
 0.15525  0.0000000E+00
 0.17825  0.0000000E+00
 0.20125  0.0000000E+00
 0.22425  0.0000000E+00
 0.24725  0.0000000E+00
 0.27025  0.0000000E+00
 0.29325  0.0000000E+00
 0.31625  0.0000000E+00
 0.33925  0.0000000E+00
 0.36225  0.0000000E+00
 0.38525  0.0000000E+00
 0.40825  0.0000000E+00
 0.43125  0.0000000E+00
 0.45425  0.0000000E+00
 0.47725  0.0000000E+00
 0.50025  0.0000000E+00
 0.52325  0.0000000E+00
 0.54625  0.0000000E+00
 0.56925  0.0000000E+00
 0.59225  0.0000000E+00
 0.61525  0.0000000E+00
 0.63825  0.0000000E+00
 0.66125  0.0000000E+00
 0.68425  0.0000000E+00
 0.70725  0.0000000E+00
 0.73025  0.0000000E+00
 0.75325  0.0000000E+00
 0.77625  0.0000000E+00
 0.79925  0.0000000E+00
 0.82225  0.0000000E+00
 0.84525  0.0000000E+00
 0.86825  0.0000000E+00
 0.89125  0.0000000E+00
 0.91425  0.0000000E+00
 0.93725  0.0000000E+00
 0.96025  0.0000000E+00
 0.98325  0.0000000E+00
 1.00625  0.0000000E+00
 1.02925  0.0000000E+00
 1.05225  0.0000000E+00
 1.07525  0.0000000E+00
 1.09825  0.0000000E+00
 1.12125  0.0000000E+00
 1.14425  0.0000000E+00
 1.16725  0.0000000E+00
 1.19025  0.0000000E+00
 1.21325  0.0000000E+00
 1.23625  0.0000000E+00
 1.25925  0.0000000E+00
 1.28225  0.0000000E+00
 1.30525  0.0000000E+00
 1.32825  0.0000000E+00
 1.35125  0.0000000E+00
 1.37425  0.0000000E+00
 1.39725  0.0000000E+00
 1.42025  0.0000000E+00
 1.44325  0.0000000E+00
 1.46625  0.0000000E+00
 1.48925  0.0000000E+00
 1.51225  0.0000000E+00
 1.53525  0.0000000E+00
 1.55825  0.0000000E+00
 1.58125  0.0000000E+00
 1.60425  0.0000000E+00
 1.62725  0.0000000E+00
 1.65025  0.0000000E+00
 1.67325  0.0000000E+00
 1.69625  0.0000000E+00
 1.71925  0.0000000E+00
 1.74225  0.0000000E+00
 1.76525  0.0000000E+00
 1.78825  0.0000000E+00
 1.81125  0.0000000E+00
 1.83425  0.0000000E+00
 1.85725  0.0000000E+00
 1.88025  0.0000000E+00
 1.90325  0.0000000E+00
 1.92625  0.0000000E+00
 1.94925  0.0000000E+00
 1.97225  0.0000000E+00
 1.99525  0.0000000E+00
 2.01825  0.0000000E+00
 2.04125  0.0000000E+00
 2.06425  0.0000000E+00
 2.08725  0.0000000E+00
 2.11025  0.0000000E+00
 2.13325  0.0000000E+00
 2.15625  0.0000000E+00
 2.17925  0.0000000E+00
 2.20225  0.0000000E+00
 2.22525  0.0000000E+00
 2.24825  0.0000000E+00
 2.27125  0.0000000E+00
 2.29425  0.0000000E+00
 2.31725  0.0000000E+00
 2.34025  0.0000000E+00
 2.36325  0.0000000E+00
 2.38625  0.0000000E+00
 2.40925  0.0000000E+00
 2.43225  0.0000000E+00
 2.45525  0.0000000E+00
 2.47825  0.0000000E+00
 2.50125  0.0000000E+00
 2.52425  0.0000000E+00
 2.54725  0.0000000E+00
 2.57025  0.0000000E+00
 2.59325  0.0000000E+00
 2.61625  0.0000000E+00
 2.63925  0.0000000E+00
 2.66225  0.0000000E+00
 2.68525  0.0000000E+00
 2.70825  0.0000000E+00
 2.73125  0.0000000E+00
 2.75425  0.0000000E+00
 2.77725  0.0000000E+00
 2.80025  0.0000000E+00
 2.82325  36.7694
 2.84625  35.2184
 2.86925  35.5091
 2.89225  35.2924
 2.91525  35.4189
 2.93825  35.8462
 2.96125  36.1537
 2.98425  35.9541
 3.00725  35.7737
 3.03025  36.3098
 3.05325  36.3342
 3.07625  36.524
 3.09925  36.8854
 3.12225  36.1698
 3.14525  35.5946
 3.16825  35.5673
 3.19125  35.6872
 3.21425  35.9931
 3.23725  35.5541
 3.26025  34.8476
 3.28325  33.7263
 3.30625  33.6595
 3.32925  34.0618
 3.35225  34.7587
 3.37525  34.7735
 3.39825  34.3817
 3.42125  33.9819
 3.44425  34.386
 3.46725  34.4124
 3.49025  34.0746
 3.51325  33.8378
 3.53625  34.3933
 3.55925  34.5712
 3.58225  34.2284
 3.60525  33.7265
 3.62825  33.6378
 3.65125  33.67
 3.67425  33.382
 3.69725  33.2617
 3.72025  33.0655
 3.74325  33.1729
 3.76625  33.1371
 3.78925  33.1823
 3.81225  32.8218
 3.83525  32.7991
 3.85825  32.9174
 3.88125  32.6915
 3.90425  32.5152
 3.92725  32.6192
 3.95025  32.6239
 3.97325  32.8566
 3.99625  33.0639
 4.01925  32.9426
 4.04225  32.5014
 4.06525  32.2558
 4.08825  32.393
 4.11125  32.55
 4.13425  32.3325
 4.15725  32.4886
 4.18025  32.2304
 4.20325  32.0387
 4.22625  32.1146
 4.24925  32.2388
 4.27225  32.2645
 4.29525  32.429
 4.31825  32.4129
 4.34125  32.0836
 4.36425  32.0796
 4.38725  32.3552
 4.41025  32.4018
 4.43325  32.3577
 4.45625  32.1117
 4.47925  32.4022
 4.50225  32.5259
 4.52525  32.3899
 4.54825  32.2595
 4.57125  32.3453
 4.59425  32.5755
 4.61725  32.6388
 4.64025  32.8678
 4.66325  33.2743
 4.68625  33.3157
 4.70925  33.0806
 4.73225  32.6882
 4.75525  32.4801
 4.77825  32.5133
 4.80125  32.5208
 4.82425  32.566
 4.84725  32.716
 4.87025  32.8025
 4.89325  32.7902
 4.91625  32.9272
 4.93925  32.8536
 4.96225  32.8362
 4.98525  32.7571
 5.00825  32.7843
 5.03125  33.0514
 5.05425  33.2971
 5.07725  33.5123
 5.10025  33.4807
 5.12325  33.3003
 5.14625  33.3162
 5.16925  33.466
 5.19225  33.678
 5.21525  33.7888
 5.23825  33.8948
 5.26125  33.9193
 5.28425  33.7855
 5.30725  33.9693
 5.33025  33.9912
 5.35325  34.0495
 5.37625  34.0241
 5.39925  34.08
 5.42225  34.1475
 5.44525  34.3849
 5.46825  34.5543
 5.49125  34.5055
 5.51425  34.6441
 5.53725  34.915
 5.56025  34.8017
 5.58325  34.6564
 5.60625  34.7668
 5.62925  34.8458
 5.65225  34.782
 5.67525  34.8861
 5.69825  34.9792
 5.72125  35.1088
 5.74425  35.4355
 5.76725  35.5218
 5.79025  35.4391
 5.81325  35.4342
 5.83625  35.5001
 5.85925  35.5961
 5.88225  35.8018
 5.90525  35.9042
 5.92825  36.2585
 5.95125  37.333
 5.97425  38.5742
 5.99725  38.8516
 6.02025  37.9441
 6.04325  36.973
 6.06625  36.795
 6.08925  36.9191
 6.11225  36.9169
 6.13525  36.6136
 6.15825  36.5845
 6.18125  36.6755
 6.20425  36.8269
 6.22725  37.1085
 6.25025  37.2959
 6.27325  37.3957
 6.29625  37.5908
 6.31925  37.7818
 6.34225  37.967
 6.36525  37.9934
 6.38825  38.0641
 6.41125  38.2936
 6.43425  38.3166
 6.45725  38.2245
 6.48025  38.4535
 6.50325  38.7451
 6.52625  38.8615
 6.54925  38.9894
 6.57225  39.1843
 6.59525  39.3512
 6.61825  39.5479
 6.64125  39.8731
 6.66425  40.1308
 6.68725  40.2603
 6.71025  40.4008
 6.73325  40.4851
 6.75625  40.7438
 6.77925  41.0383
 6.80225  41.1155
 6.82525  41.217
 6.84825  41.2874
 6.87125  41.3404
 6.89425  41.4867
 6.91725  41.6539
 6.94025  41.7697
 6.96325  42.0423
 6.98625  42.3552
 7.00925  42.3865
 7.03225  42.5509
 7.05525  42.7228
 7.07825  42.7887
 7.10125  42.9182
 7.12425  43.0784
 7.14725  43.057
 7.17025  43.1437
 7.19325  43.165
 7.21625  43.1743
 7.23925  43.2079
 7.26225  43.3062
 7.28525  43.4425
 7.30825  43.4475
 7.33125  43.5963
 7.35425  43.662
 7.37725  43.6568
 7.40025  43.863
 7.42325  43.9591
 7.44625  44.1452
 7.46925  44.1996
 7.49225  44.1317
 7.51525  44.0321
 7.53825  43.9674
 7.56125  43.8794
 7.58425  43.9726
 7.60725  44.0132
 7.63025  43.9504
 7.65325  43.8673
 7.67625  44.0537
 7.69925  44.1231
 7.72225  44.1986
 7.74525  44.1632
 7.76825  43.9915
 7.79125  44.1195
 7.81425  44.351
 7.83725  44.3469
 7.86025  44.185
 7.88325  44.0562
 7.90625  44.0485
 7.92925  43.974
 7.95225  43.6804
 7.97525  43.5488
 7.99825  43.4377
 8.02125  43.273
 8.04425  43.2486
 8.06725  43.2111
 8.09025  42.9482
 8.11325  42.857
 8.13625  42.6315
 8.15925  42.38
 8.18225  42.1285
 8.20525  41.786
 8.22825  41.4189
 8.25125  41.1883
 8.27425  40.9233
 8.29725  40.4142
 8.32025  40.1625
 8.34325  39.9315
 8.36625  39.6906
 8.38925  39.4572
 8.41225  39.336
 8.43525  39.0307
 8.45825  38.6737
 8.48125  38.2519
 8.50425  37.7885
 8.52725  37.4775
 8.55025  37.033
 8.57325  36.608
 8.59625  36.2877
 8.61925  36.0054
 8.64225  35.7437
 8.66525  35.3761
 8.68825  35.0966
 8.71125  34.8006
 8.73425  34.4832
 8.75725  34.0482
 8.78025  33.8172
 8.80325  33.4446
 8.82625  33.0235
 8.84925  32.7785
 8.87225  32.5258
 8.89525  32.1363
 8.91825  31.7624
 8.94125  31.504
 8.96425  31.2319
 8.98725  30.8378
 9.01025  30.4078
 9.03325  30.1003
 9.05625  29.9314
 9.07925  29.786
 9.10225  29.6711
 9.12525  29.4681
 9.14825  29.339
 9.17125  29.1186
 9.19425  28.8254
 9.21725  28.4907
 9.24025  28.2607
 9.26325  28.0206
 9.28625  27.7543
 9.30925  27.4893
 9.33225  27.213
 9.35525  27.0799
 9.37825  27.1733
 9.40125  27.0242
 9.42425  26.7633
 9.44725  26.6541
 9.47025  26.5116
 9.49325  26.3827
 9.51625  26.2232
 9.53925  26.0847
 9.56225  25.9139
 9.58525  25.7107
 9.60825  25.611
 9.63125  25.4872
 9.65425  25.3283
 9.67725  25.2114
 9.70025  25.2168
 9.72325  25.2842
 9.74625  25.1454
 9.76925  24.9502
 9.79225  24.9211
 9.81525  24.8547
 9.83825  24.7047
 9.86125  24.5674
 9.88425  24.4505
 9.90725  24.3896
 9.93025  24.2934
 9.95325  24.1271
 9.97625  24.0967
 9.99925  24.063
 10.0222  23.9546
 10.0453  24.0403
 10.0683  24.0602
 10.0913  23.9317
 10.1143  23.8061
 10.1373  23.7416
 10.1603  23.693
 10.1832  23.6041
 10.2063  23.5988
 10.2293  23.5897
 10.2523  23.481
 10.2752  23.3165
 10.2982  23.3214
 10.3213  23.4465
 10.3443  23.3579
 10.3673  23.2144
 10.3902  23.2055
 10.4133  23.2614
 10.4363  23.1
 10.4593  22.9943
 10.4823  22.9313
 10.5053  22.947
 10.5283  22.8845
 10.5512  22.9126
 10.5742  22.9126
 10.5973  22.8067
 10.6203  22.7377
 10.6433  22.7377
 10.6662  22.8596
 10.6893  22.7813
 10.7123  22.7251
 10.7353  22.703
 10.7583  22.6849
 10.7813  22.8838
 10.8043  22.8398
 10.8272  22.5755
 10.8503  22.508
 10.8733  22.4849
 10.8963  22.4676
 10.9192  22.4871
 10.9422  22.5066
 10.9653  22.5779
 10.9883  22.5688
 11.0113  22.4586
 11.0343  22.3735
 11.0573  22.2573
 11.0803  22.2281
 11.1033  22.2588
 11.1263  22.31
 11.1493  22.2444
 11.1723  22.2843
 11.1953  22.2591
 11.2182  22.1476
 11.2413  22.1617
 11.2643  22.2816
 11.2873  22.3189
 11.3102  22.3645
 11.3333  22.3252
 11.3563  22.306
 11.3793  22.3774
 11.4023  22.4954
 11.4253  22.4975
 11.4483  22.3627
 11.4713  22.3264
 11.4942  22.3416
 11.5173  22.3603
 11.5403  22.6148
 11.5633  22.9467
 11.5862  23.1965
 11.6093  23.0715
 11.6323  22.7785
 11.6553  22.4586
 11.6783  22.1979
 11.7013  22.0241
 11.7243  22.0215
 11.7473  22.1236
 11.7703  22.045
 11.7933  22.0715
 11.8163  22.1604
 11.8393  22.2481
 11.8622  22.2299
 11.8853  22.1428
 11.9083  22.1335
 11.9313  22.1734
 11.9543  22.2655
 11.9773  22.51
 12.0003  22.5458
 12.0233  22.4066
 12.0463  22.387
 12.0693  22.4955
 12.0923  22.5473
 12.1153  22.5633
 12.1382  22.4938
 12.1613  22.4207
 12.1843  22.2976
 12.2073  22.2116
 12.2302  22.2649
 12.2533  22.2411
 12.2763  22.136
 12.2993  22.0901
 12.3223  22.1137
 12.3453  22.2057
 12.3683  22.3142
 12.3913  22.3497
 12.4142  22.3051
 12.4373  22.3738
 12.4603  22.3738
 12.4833  22.3804
 12.5062  22.2468
 12.5292  22.2415
 12.5523  22.3508
 12.5753  22.4076
 12.5983  22.5107
 12.6212  22.5937
 12.6443  22.6387
 12.6673  22.6663
 12.6903  22.6469
 12.7133  22.6452
 12.7363  22.6796
 12.7593  22.7291
 12.7822  22.7168
 12.8052  22.8284
 12.8283  23.0138
 12.8513  23.0879
 12.8742  23.1423
 12.8972  23.1165
 12.9203  23.2685
 12.9433  23.3996
 12.9663  23.5259
 12.9893  23.6651
 13.0123  23.7401
 13.0353  23.9033
 13.0582  24.1433
 13.0813  24.2767
 13.1043  24.5455
 13.1273  24.8002
 13.1502  24.9267
 13.1732  25.1435
 13.1963  25.4216
 13.2193  25.7301
 13.2423  26.0791
 13.2652  26.2777
 13.2883  26.4986
 13.3113  26.755
 13.3343  27.0345
 13.3573  27.3394
 13.3803  27.643
 13.4033  27.9752
 13.4262  28.2172
 13.4492  28.4287
 13.4723  28.6961
 13.4953  28.9401
 13.5183  29.1083
 13.5412  29.2036
 13.5643  29.3149
 13.5873  29.2841
 13.6103  29.3149
 13.6333  29.4409
 13.6563  29.584
 13.6793  29.5566
 13.7022  29.3813
 13.7253  29.2512
 13.7483  29.1349
 13.7713  28.9586
 13.7942  28.8257
 13.8172  28.7041
 13.8403  28.7026
 13.8633  28.6856
 13.8863  28.7346
 13.9093  29.1571
 13.9323  29.7441
 13.9553  30.2656
 13.9783  30.3941
 14.0013  29.7278
 14.0243  28.5533
 14.0473  27.6277
 14.0703  27.333
 14.0932  27.1674
 14.1163  26.9852
 14.1393  26.8437
 14.1623  26.6475
 14.1852  26.4876
 14.2083  26.4291
 14.2313  26.4173
 14.2543  26.3235
 14.2773  26.1249
 14.3003  25.9747
 14.3233  25.9591
 14.3463  26.0026
 14.3692  25.979
 14.3923  25.8098
 14.4153  25.7463
 14.4383  25.665
 14.4612  25.4909
 14.4843  25.3963
 14.5073  25.1921
 14.5303  25.1112
 14.5533  25.0998
 14.5763  25.1371
 14.5993  25.0895
 14.6223  25.0696
 14.6453  25.0376
 14.6683  24.9919
 14.6913  24.9853
 14.7143  24.8273
 14.7372  24.7147
 14.7603  24.7374
 14.7833  24.7776
 14.8063  24.7962
 14.8293  24.6577
 14.8523  24.6883
 14.8753  24.6622
 14.8983  24.7206
 14.9213  24.7106
 14.9443  24.6212
 14.9673  24.5852
 14.9903  24.6283
 15.0132  24.6284
 15.0363  24.6239
 15.0593  24.5093
 15.0823  24.4501
 15.1052  24.4684
 15.1283  24.533
 15.1513  24.6678
 15.1743  24.8157
 15.1973  24.882
 15.2203  24.841
 15.2433  24.6593
 15.2663  24.4708
 15.2892  24.3856
 15.3123  24.4014
 15.3353  24.3189
 15.3583  24.3325
 15.3812  24.3208
 15.4043  24.2986
 15.4273  24.3848
 15.4503  24.4326
 15.4733  24.4508
 15.4963  24.4084
 15.5193  24.2845
 15.5423  24.2793
 15.5653  24.2977
 15.5883  24.3534
 15.6113  24.3253
 15.6343  24.2637
 15.6572  24.2429
 15.6803  24.2242
 15.7033  24.3302
 15.7263  24.356
 15.7492  24.2687
 15.7723  24.2724
 15.7953  24.2598
 15.8183  24.2412
 15.8413  24.2785
 15.8643  24.2461
 15.8873  24.2756
 15.9103  24.3906
 15.9332  24.4822
 15.9563  24.391
 15.9793  24.4768
 16.0023  24.4981
 16.0253  24.4626
 16.0482  24.3844
 16.0713  24.3379
 16.0943  24.4263
 16.1172  24.6109
 16.1403  24.5996
 16.1633  24.5796
 16.1863  24.5891
 16.2093  24.7377
 16.2323  25.0152
 16.2553  25.2661
 16.2783  25.2334
 16.3012  24.947
 16.3243  24.6228
 16.3472  24.4156
 16.3703  24.3338
 16.3933  24.3266
 16.4163  24.4302
 16.4393  24.4855
 16.4623  24.5596
 16.4853  24.5123
 16.5083  24.4774
 16.5312  24.4346
 16.5543  24.4708
 16.5773  24.3546
 16.6002  24.4129
 16.6233  24.4668
 16.6463  24.3798
 16.6693  24.3256
 16.6923  24.3747
 16.7153  24.3275
 16.7383  24.2675
 16.7613  24.2378
 16.7843  24.2034
 16.8073  24.1981
 16.8303  24.1503
 16.8533  24.1413
 16.8763  24.0922
 16.8992  24.0362
 16.9223  24.0591
 16.9453  23.9508
 16.9683  23.9159
 16.9913  23.9203
 17.0143  23.9358
 17.0373  23.9608
 17.0603  23.9182
 17.0832  23.8968
 17.1063  23.8784
 17.1293  23.886
 17.1522  23.8826
 17.1753  23.8208
 17.1983  23.8083
 17.2213  23.8316
 17.2443  23.7887
 17.2673  23.7292
 17.2903  23.7892
 17.3133  23.7715
 17.3362  23.8292
 17.3593  23.8614
 17.3823  23.8392
 17.4053  23.7782
 17.4283  23.779
 17.4513  23.7804
 17.4743  23.8249
 17.4973  23.7802
 17.5203  23.7234
 17.5433  23.7159
 17.5663  23.6392
 17.5893  23.5194
 17.6123  23.4775
 17.6352  23.5095
 17.6583  23.4908
 17.6813  23.5121
 17.7042  23.5416
 17.7273  23.5251
 17.7503  23.4967
 17.7733  23.5229
 17.7963  23.4931
 17.8193  23.4189
 17.8423  23.4037
 17.8653  23.4532
 17.8882  23.4412
 17.9113  23.3976
 17.9343  23.4003
 17.9573  23.3798
 17.9803  23.419
 18.0033  23.5605
 18.0263  23.5577
 18.0493  23.5794
 18.0723  23.6029
 18.0953  23.6584
 18.1183  23.6425
 18.1413  23.5784
 18.1643  23.4903
 18.1872  23.3394
 18.2103  23.3414
 18.2333  23.3776
 18.2563  23.3603
 18.2793  23.2342
 18.3023  23.1605
 18.3253  23.1721
 18.3483  23.2548
 18.3712  23.2612
 18.3943  23.3149
 18.4173  23.3596
 18.4402  23.3219
 18.4633  23.3488
 18.4863  23.3381
 18.5093  23.3144
 18.5323  23.2792
 18.5553  23.2344
 18.5783  23.2564
 18.6013  23.2593
 18.6242  23.2002
 18.6473  23.1757
 18.6703  23.2074
 18.6933  23.2713
 18.7163  23.3035
 18.7392  23.281
 18.7623  23.2083
 18.7853  23.164
 18.8083  23.2314
 18.8313  23.2705
 18.8543  23.2536
 18.8773  23.2267
 18.9003  23.1647
 18.9232  23.1714
 18.9463  23.2844
 18.9693  23.2358
 18.9922  23.1441
 19.0153  23.2175
 19.0383  23.2489
 19.0613  23.2107
 19.0843  23.2311
 19.1073  23.2716
 19.1303  23.2573
 19.1533  23.3648
 19.1762  23.1994
 19.1993  23.1295
 19.2223  23.1725
 19.2453  23.2489
 19.2683  23.2789
 19.2913  23.2835
 19.3143  23.3174
 19.3373  23.2522
 19.3603  23.259
 19.3833  23.288
 19.4062  23.3289
 19.4293  23.3248
 19.4523  23.302
 19.4752  23.2353
 19.4983  23.2922
 19.5213  23.3232
 19.5443  23.4018
 19.5673  23.3548
 19.5903  23.2997
 19.6133  23.3177
 19.6363  23.3704
 19.6593  23.5475
 19.6823  23.7088
 19.7053  23.8699
 19.7283  23.8918
 19.7513  23.8124
 19.7742  23.7358
 19.7973  23.7031
 19.8203  23.8062
 19.8433  23.9695
 19.8663  24.0434
 19.8893  24.0177
 19.9123  23.7748
 19.9353  23.4864
 19.9582  23.3998
 19.9813  23.3717
 20.0043  23.3883
 20.0272  23.3551
 20.0503  23.3244
 20.0733  23.3009
 20.0963  23.3178
 20.1193  23.4617
 20.1423  23.3896
 20.1653  23.3684
 20.1883  23.4023
 20.2112  23.3825
 20.2343  23.4132
 20.2573  23.3325
 20.2803  23.2345
 20.3033  23.2596
 20.3263  23.2168
 20.3493  23.2879
 20.3723  23.3574
 20.3953  23.3907
 20.4183  23.4673
 20.4413  23.5233
 20.4643  23.5308
 20.4873  23.5239
 20.5102  23.4501
 20.5333  23.3712
 20.5563  23.4261
 20.5792  23.4124
 20.6023  23.4622
 20.6253  23.567
 20.6483  23.5128
 20.6713  23.5008
 20.6943  23.6464
 20.7173  23.7762
 20.7403  23.9446
 20.7632  23.9857
 20.7863  23.8572
 20.8093  23.7303
 20.8323  23.6314
 20.8553  23.6758
 20.8783  23.5957
 20.9013  23.5712
 20.9243  23.6308
 20.9473  23.648
 20.9703  23.6221
 20.9933  23.6004
 21.0163  23.5507
 21.0393  23.5167
 21.0622  23.5706
 21.0853  23.5475
 21.1083  23.5208
 21.1313  23.5115
 21.1543  23.4634
 21.1773  23.5396
 21.2003  23.6007
 21.2233  23.6846
 21.2462  23.6105
 21.2693  23.6308
 21.2923  23.7026
 21.3152  23.6473
 21.3383  23.6213
 21.3613  23.6986
 21.3843  23.8175
 21.4073  23.6965
 21.4303  23.6092
 21.4533  23.5844
 21.4763  23.7639
 21.4992  23.7255
 21.5223  23.6847
 21.5453  23.7733
 21.5683  23.6566
 21.5913  23.6601
 21.6142  23.7544
 21.6373  23.835
 21.6603  24.3381
 21.6833  24.9182
 21.7063  24.6823
 21.7293  23.8037
 21.7523  23.7476
 21.7753  23.775
 21.7982  23.7498
 21.8213  23.722
 21.8443  23.7311
 21.8672  23.7908
 21.8903  23.7707
 21.9133  23.7811
 21.9363  23.9015
 21.9593  23.9149
 21.9823  23.8557
 22.0053  23.8135
 22.0283  23.8558
 22.0512  23.939
 22.0743  23.9491
 22.0973  23.9251
 22.1203  23.9982
 22.1433  24.0246
 22.1663  23.9395
 22.1893  23.9706
 22.2123  24.0251
 22.2353  24.0775
 22.2583  24.0817
 22.2813  24.1215
 22.3043  24.2074
 22.3273  24.1895
 22.3502  24.1977
 22.3733  24.2523
 22.3963  24.2485
 22.4193  24.2165
 22.4423  24.2815
 22.4653  24.3466
 22.4883  24.3224
 22.5113  24.4128
 22.5343  24.4735
 22.5573  24.4954
 22.5803  24.4651
 22.6033  24.5499
 22.6263  24.6679
 22.6493  24.6306
 22.6723  24.6605
 22.6953  24.8521
 22.7183  24.8491
 22.7413  24.8944
 22.7643  25.0171
 22.7873  24.9684
 22.8103  25.0212
 22.8333  25.1503
 22.8563  25.2244
 22.8793  25.2588
 22.9022  25.3489
 22.9253  25.5048
 22.9483  25.6212
 22.9713  25.7641
 22.9943  25.9809