File: test-data-xrd/xrd-map-34-ID-E/Data_0041.chi
F:\20151113_APS_34IDE\\Brian\Particle1\OCV\Data_0041.tif
2-Theta Angle (Degrees)
Intensity
       2000
 0.01725  0.0000000E+00
 0.04025  0.0000000E+00
 0.06325  0.0000000E+00
 0.08625  0.0000000E+00
 0.10925  0.0000000E+00
 0.13225  0.0000000E+00
 0.15525  0.0000000E+00
 0.17825  0.0000000E+00
 0.20125  0.0000000E+00
 0.22425  0.0000000E+00
 0.24725  0.0000000E+00
 0.27025  0.0000000E+00
 0.29325  0.0000000E+00
 0.31625  0.0000000E+00
 0.33925  0.0000000E+00
 0.36225  0.0000000E+00
 0.38525  0.0000000E+00
 0.40825  0.0000000E+00
 0.43125  0.0000000E+00
 0.45425  0.0000000E+00
 0.47725  0.0000000E+00
 0.50025  0.0000000E+00
 0.52325  0.0000000E+00
 0.54625  0.0000000E+00
 0.56925  0.0000000E+00
 0.59225  0.0000000E+00
 0.61525  0.0000000E+00
 0.63825  0.0000000E+00
 0.66125  0.0000000E+00
 0.68425  0.0000000E+00
 0.70725  0.0000000E+00
 0.73025  0.0000000E+00
 0.75325  0.0000000E+00
 0.77625  0.0000000E+00
 0.79925  0.0000000E+00
 0.82225  0.0000000E+00
 0.84525  0.0000000E+00
 0.86825  0.0000000E+00
 0.89125  0.0000000E+00
 0.91425  0.0000000E+00
 0.93725  0.0000000E+00
 0.96025  0.0000000E+00
 0.98325  0.0000000E+00
 1.00625  0.0000000E+00
 1.02925  0.0000000E+00
 1.05225  0.0000000E+00
 1.07525  0.0000000E+00
 1.09825  0.0000000E+00
 1.12125  0.0000000E+00
 1.14425  0.0000000E+00
 1.16725  0.0000000E+00
 1.19025  0.0000000E+00
 1.21325  0.0000000E+00
 1.23625  0.0000000E+00
 1.25925  0.0000000E+00
 1.28225  0.0000000E+00
 1.30525  0.0000000E+00
 1.32825  0.0000000E+00
 1.35125  0.0000000E+00
 1.37425  0.0000000E+00
 1.39725  0.0000000E+00
 1.42025  0.0000000E+00
 1.44325  0.0000000E+00
 1.46625  0.0000000E+00
 1.48925  0.0000000E+00
 1.51225  0.0000000E+00
 1.53525  0.0000000E+00
 1.55825  0.0000000E+00
 1.58125  0.0000000E+00
 1.60425  0.0000000E+00
 1.62725  0.0000000E+00
 1.65025  0.0000000E+00
 1.67325  0.0000000E+00
 1.69625  0.0000000E+00
 1.71925  0.0000000E+00
 1.74225  0.0000000E+00
 1.76525  0.0000000E+00
 1.78825  0.0000000E+00
 1.81125  0.0000000E+00
 1.83425  0.0000000E+00
 1.85725  0.0000000E+00
 1.88025  0.0000000E+00
 1.90325  0.0000000E+00
 1.92625  0.0000000E+00
 1.94925  0.0000000E+00
 1.97225  0.0000000E+00
 1.99525  0.0000000E+00
 2.01825  0.0000000E+00
 2.04125  0.0000000E+00
 2.06425  0.0000000E+00
 2.08725  0.0000000E+00
 2.11025  0.0000000E+00
 2.13325  0.0000000E+00
 2.15625  0.0000000E+00
 2.17925  0.0000000E+00
 2.20225  0.0000000E+00
 2.22525  0.0000000E+00
 2.24825  0.0000000E+00
 2.27125  0.0000000E+00
 2.29425  0.0000000E+00
 2.31725  0.0000000E+00
 2.34025  0.0000000E+00
 2.36325  0.0000000E+00
 2.38625  0.0000000E+00
 2.40925  0.0000000E+00
 2.43225  0.0000000E+00
 2.45525  0.0000000E+00
 2.47825  0.0000000E+00
 2.50125  0.0000000E+00
 2.52425  0.0000000E+00
 2.54725  0.0000000E+00
 2.57025  0.0000000E+00
 2.59325  0.0000000E+00
 2.61625  0.0000000E+00
 2.63925  0.0000000E+00
 2.66225  0.0000000E+00
 2.68525  0.0000000E+00
 2.70825  0.0000000E+00
 2.73125  0.0000000E+00
 2.75425  0.0000000E+00
 2.77725  0.0000000E+00
 2.80025  0.0000000E+00
 2.82325  31.9818
 2.84625  32.9015
 2.86925  33.5623
 2.89225  34.4639
 2.91525  34.7782
 2.93825  35.2838
 2.96125  35.4192
 2.98425  34.8883
 3.00725  35.5519
 3.03025  36.5365
 3.05325  37.0976
 3.07625  36.7861
 3.09925  36.2073
 3.12225  36.1019
 3.14525  35.967
 3.16825  35.9958
 3.19125  36.1867
 3.21425  35.7475
 3.23725  35.0905
 3.26025  34.679
 3.28325  34.6091
 3.30625  34.2815
 3.32925  34.7407
 3.35225  35.2405
 3.37525  35.436
 3.39825  35.1716
 3.42125  34.6572
 3.44425  34.3158
 3.46725  34.7285
 3.49025  34.5449
 3.51325  34.0766
 3.53625  34.2117
 3.55925  34.5337
 3.58225  34.0295
 3.60525  33.5348
 3.62825  33.4741
 3.65125  33.2889
 3.67425  32.9925
 3.69725  33.3592
 3.72025  33.4656
 3.74325  33.4796
 3.76625  33.2774
 3.78925  32.9577
 3.81225  32.4003
 3.83525  32.1647
 3.85825  32.1516
 3.88125  32.526
 3.90425  32.5799
 3.92725  32.2806
 3.95025  32.111
 3.97325  32.1858
 3.99625  32.255
 4.01925  32.2015
 4.04225  32.3788
 4.06525  32.7206
 4.08825  32.5759
 4.11125  32.3967
 4.13425  32.4512
 4.15725  32.6193
 4.18025  32.1091
 4.20325  31.8962
 4.22625  32.2261
 4.24925  32.4628
 4.27225  32.3277
 4.29525  32.2406
 4.31825  32.1178
 4.34125  32.0864
 4.36425  31.9457
 4.38725  32.0146
 4.41025  32.1676
 4.43325  32.3849
 4.45625  32.4119
 4.47925  32.43
 4.50225  32.5006
 4.52525  32.5709
 4.54825  32.5557
 4.57125  32.6907
 4.59425  32.8169
 4.61725  32.9503
 4.64025  33.0703
 4.66325  33.1449
 4.68625  33.145
 4.70925  32.9955
 4.73225  32.9803
 4.75525  32.834
 4.77825  32.6007
 4.80125  32.4705
 4.82425  32.6303
 4.84725  32.8794
 4.87025  32.9935
 4.89325  32.8721
 4.91625  32.9382
 4.93925  33.1288
 4.96225  33.2954
 4.98525  33.3446
 5.00825  33.365
 5.03125  33.5358
 5.05425  33.6478
 5.07725  33.8351
 5.10025  34.0746
 5.12325  33.9888
 5.14625  34.0174
 5.16925  34.0033
 5.19225  34.0067
 5.21525  34.0033
 5.23825  33.9377
 5.26125  33.9584
 5.28425  34.1308
 5.30725  34.2852
 5.33025  34.2959
 5.35325  34.5511
 5.37625  34.6462
 5.39925  34.6949
 5.42225  34.5861
 5.44525  34.4565
 5.46825  34.6116
 5.49125  34.7848
 5.51425  34.9152
 5.53725  34.9329
 5.56025  34.9621
 5.58325  35.0847
 5.60625  35.207
 5.62925  35.2891
 5.65225  35.2147
 5.67525  35.2474
 5.69825  35.1987
 5.72125  35.3263
 5.74425  35.5949
 5.76725  35.8274
 5.79025  36.1213
 5.81325  36.1645
 5.83625  36.3216
 5.85925  36.2357
 5.88225  36.5017
 5.90525  37.4896
 5.92825  39.5022
 5.95125  44.701
 5.97425  52.3331
 5.99725  54.4251
 6.02025  48.1525
 6.04325  40.8368
 6.06625  38.299
 6.08925  37.4973
 6.11225  37.0857
 6.13525  37.0097
 6.15825  37.0065
 6.18125  37.0035
 6.20425  36.9919
 6.22725  37.2386
 6.25025  37.5672
 6.27325  37.8676
 6.29625  37.9177
 6.31925  37.7442
 6.34225  37.9034
 6.36525  38.0883
 6.38825  38.1544
 6.41125  38.2314
 6.43425  38.3691
 6.45725  38.7305
 6.48025  38.8504
 6.50325  38.9484
 6.52625  38.9951
 6.54925  39.1388
 6.57225  39.4585
 6.59525  39.7159
 6.61825  39.8226
 6.64125  39.7504
 6.66425  39.7713
 6.68725  39.8742
 6.71025  40.031
 6.73325  40.3048
 6.75625  40.6135
 6.77925  40.9176
 6.80225  40.923
 6.82525  41.1647
 6.84825  41.4897
 6.87125  41.7629
 6.89425  41.8355
 6.91725  41.9625
 6.94025  41.9823
 6.96325  42.0765
 6.98625  42.0743
 7.00925  42.0562
 7.03225  42.2649
 7.05525  42.2611
 7.07825  42.4069
 7.10125  42.5395
 7.12425  42.845
 7.14725  43.0131
 7.17025  43.2457
 7.19325  43.3189
 7.21625  43.3417
 7.23925  43.6169
 7.26225  43.6762
 7.28525  43.7467
 7.30825  43.6776
 7.33125  43.728
 7.35425  43.7169
 7.37725  43.8054
 7.40025  44.0583
 7.42325  44.1357
 7.44625  44.1517
 7.46925  44.2983
 7.49225  44.2786
 7.51525  44.2749
 7.53825  44.3669
 7.56125  44.5453
 7.58425  44.4705
 7.60725  44.2987
 7.63025  43.9546
 7.65325  44.082
 7.67625  44.2611
 7.69925  44.3334
 7.72225  44.2307
 7.74525  44.2027
 7.76825  44.3281
 7.79125  44.1306
 7.81425  43.9336
 7.83725  43.9351
 7.86025  43.9568
 7.88325  43.696
 7.90625  43.5988
 7.92925  43.7356
 7.95225  43.7883
 7.97525  43.6443
 7.99825  43.4926
 8.02125  43.2059
 8.04425  42.9906
 8.06725  42.7722
 8.09025  42.5806
 8.11325  42.4298
 8.13625  42.1179
 8.15925  41.9181
 8.18225  41.6741
 8.20525  41.6059
 8.22825  41.5025
 8.25125  41.3226
 8.27425  40.9842
 8.29725  40.6293
 8.32025  40.5384
 8.34325  40.3687
 8.36625  39.9493
 8.38925  39.5089
 8.41225  39.1429
 8.43525  38.6994
 8.45825  38.4111
 8.48125  38.1067
 8.50425  37.7981
 8.52725  37.6118
 8.55025  37.138
 8.57325  36.7936
 8.59625  36.5126
 8.61925  36.1413
 8.64225  35.8512
 8.66525  35.416
 8.68825  35.0518
 8.71125  34.7018
 8.73425  34.3573
 8.75725  34.0921
 8.78025  33.7367
 8.80325  33.2941
 8.82625  33.064
 8.84925  32.6346
 8.87225  32.2744
 8.89525  32.0331
 8.91825  31.8748
 8.94125  31.5516
 8.96425  31.3001
 8.98725  31.1224
 9.01025  30.8437
 9.03325  30.5761
 9.05625  30.2621
 9.07925  30.0533
 9.10225  29.8477
 9.12525  29.7118
 9.14825  29.4712
 9.17125  29.2393
 9.19425  28.9151
 9.21725  28.6053
 9.24025  28.3409
 9.26325  28.1446
 9.28625  28.1387
 9.30925  27.9596
 9.33225  27.7895
 9.35525  27.4805
 9.37825  27.2525
 9.40125  27.2003
 9.42425  27.1014
 9.44725  26.9676
 9.47025  26.812
 9.49325  26.6753
 9.51625  26.5547
 9.53925  26.393
 9.56225  26.2133
 9.58525  26.0303
 9.60825  25.9645
 9.63125  25.939
 9.65425  25.7562
 9.67725  25.5132
 9.70025  25.4298
 9.72325  25.3929
 9.74625  25.4254
 9.76925  25.3906
 9.79225  25.2458
 9.81525  24.9883
 9.83825  24.7839
 9.86125  24.7011
 9.88425  24.6721
 9.90725  24.5914
 9.93025  24.5553
 9.95325  24.5184
 9.97625  24.5094
 9.99925  24.4243
 10.0222  24.3323
 10.0453  24.2452
 10.0683  24.222
 10.0913  24.1356
 10.1143  23.9855
 10.1373  23.9424
 10.1603  23.9036
 10.1832  23.8063
 10.2063  23.8029
 10.2293  23.8216
 10.2523  23.7866
 10.2752  23.7658
 10.2982  23.741
 10.3213  23.6392
 10.3443  23.6239
 10.3673  23.6774
 10.3902  23.7187
 10.4133  23.5725
 10.4363  23.4196
 10.4593  23.3539
 10.4823  23.3272
 10.5053  23.2465
 10.5283  23.2045
 10.5512  23.2961
 10.5742  23.2793
 10.5973  23.135
 10.6203  23.088
 10.6433  23.1038
 10.6662  23.0675
 10.6893  23.0144
 10.7123  23.0197
 10.7353  23.0467
 10.7583  23.0978
 10.7813  23.0467
 10.8043  22.7993
 10.8272  22.7093
 10.8503  22.7362
 10.8733  22.796
 10.8963  22.7439
 10.9192  22.8243
 10.9422  22.8058
 10.9653  22.7288
 10.9883  22.7092
 11.0113  22.6125
 11.0343  22.6074
 11.0573  22.597
 11.0803  22.5919
 11.1033  22.6365
 11.1263  22.6727
 11.1493  22.7761
 11.1723  22.8111
 11.1953  22.7628
 11.2182  22.7161
 11.2413  22.5727
 11.2643  22.5509
 11.2873  22.5857
 11.3102  22.6506
 11.3333  22.6647
 11.3563  22.736
 11.3793  22.8488
 11.4023  23.0359
 11.4253  22.9715
 11.4483  22.8234
 11.4713  22.9326
 11.4942  23.1585
 11.5173  23.7808
 11.5403  25.5214
 11.5633  28.6734
 11.5862  30.5922
 11.6093  28.8959
 11.6323  26.0596
 11.6553  24.0889
 11.6783  23.2595
 11.7013  22.9757
 11.7243  22.856
 11.7473  22.8542
 11.7703  22.755
 11.7933  22.6549
 11.8163  22.6885
 11.8393  22.6886
 11.8622  22.6778
 11.8853  22.6656
 11.9083  22.7496
 11.9313  23.1818
 11.9543  24.099
 11.9773  24.8503
 12.0003  25.6977
 12.0233  25.2918
 12.0463  25.5321
 12.0693  28.1697
 12.0923  29.1351
 12.1153  27.7497
 12.1382  24.9776
 12.1613  23.7922
 12.1843  23.1854
 12.2073  22.9052
 12.2302  22.7697
 12.2533  22.7388
 12.2763  22.6725
 12.2993  22.5538
 12.3223  22.5515
 12.3453  22.6625
 12.3683  22.6671
 12.3913  22.5925
 12.4142  22.5739
 12.4373  22.6074
 12.4603  22.6464
 12.4833  22.6946
 12.5062  22.6154
 12.5292  22.6823
 12.5523  22.8456
 12.5753  22.9038
 12.5983  22.8704
 12.6212  22.8882
 12.6443  22.9205
 12.6673  22.8902
 12.6903  22.8172
 12.7133  22.915
 12.7363  22.9033
 12.7593  23.0874
 12.7822  23.2845
 12.8052  23.3342
 12.8283  23.4564
 12.8513  23.4622
 12.8742  23.455
 12.8972  23.414
 12.9203  23.4336
 12.9433  23.6629
 12.9663  23.8836
 12.9893  23.972
 13.0123  24.0661
 13.0353  24.2151
 13.0582  24.3184
 13.0813  24.4158
 13.1043  24.7351
 13.1273  25.0405
 13.1502  25.1159
 13.1732  25.3046
 13.1963  25.5822
 13.2193  25.8976
 13.2423  26.2477
 13.2652  26.4932
 13.2883  26.8171
 13.3113  27.1429
 13.3343  27.4303
 13.3573  27.7185
 13.3803  27.9626
 13.4033  28.1904
 13.4262  28.3882
 13.4492  28.6587
 13.4723  28.9496
 13.4953  29.2556
 13.5183  29.536
 13.5412  29.5553
 13.5643  29.6134
 13.5873  29.7475
 13.6103  29.7263
 13.6333  29.6603
 13.6563  29.7599
 13.6793  29.913
 13.7022  29.817
 13.7253  29.8093
 13.7483  29.6701
 13.7713  29.6024
 13.7942  29.6775
 13.8172  29.6758
 13.8403  29.7424
 13.8633  30.1328
 13.8863  31.4058
 13.9093  34.7207
 13.9323  39.2966
 13.9553  42.0018
 13.9783  39.6751
 14.0013  34.9444
 14.0243  31.176
 14.0473  29.126
 14.0703  28.2953
 14.0932  27.872
 14.1163  27.5869
 14.1393  27.3477
 14.1623  27.2571
 14.1852  26.9718
 14.2083  26.6918
 14.2313  26.5169
 14.2543  26.4925
 14.2773  26.4313
 14.3003  26.3783
 14.3233  26.2809
 14.3463  26.2584
 14.3692  26.2173
 14.3923  26.0936
 14.4153  25.9987
 14.4383  25.9513
 14.4612  25.9352
 14.4843  25.8709
 14.5073  25.8231
 14.5303  25.6639
 14.5533  25.5387
 14.5763  25.4853
 14.5993  25.3712
 14.6223  25.4126
 14.6453  25.3212
 14.6683  25.2755
 14.6913  25.3212
 14.7143  25.2605
 14.7372  25.0599
 14.7603  25.0561
 14.7833  25.074
 14.8063  24.9637
 14.8293  24.9574
 14.8523  25.0489
 14.8753  25.0703
 14.8983  24.9813
 14.9213  24.916
 14.9443  24.8769
 14.9673  24.9104
 14.9903  24.942
 15.0132  25.0413
 15.0363  25.0877
 15.0593  24.9797
 15.0823  24.9212
 15.1052  24.9744
 15.1283  25.3276
 15.1513  26.054
 15.1743  27.0425
 15.1973  27.6231
 15.2203  27.7333
 15.2433  26.6649
 15.2663  25.6961
 15.2892  25.0445
 15.3123  24.8433
 15.3353  24.7544
 15.3583  24.7119
 15.3812  24.671
 15.4043  24.6293
 15.4273  24.6034
 15.4503  24.5691
 15.4733  24.6186
 15.4963  24.6704
 15.5193  24.5425
 15.5423  24.5356
 15.5653  24.6045
 15.5883  24.6647
 15.6113  24.5833
 15.6343  24.5863
 15.6572  24.5864
 15.6803  24.6007
 15.7033  24.5897
 15.7263  24.6584
 15.7492  24.6239
 15.7723  24.6366
 15.7953  24.5254
 15.8183  24.5642
 15.8413  24.5761
 15.8643  24.6888
 15.8873  24.6609
 15.9103  24.6499
 15.9332  24.6482
 15.9563  24.6918
 15.9793  24.755
 16.0023  24.7449
 16.0253  24.6952
 16.0482  24.7234
 16.0713  24.658
 16.0943  24.723
 16.1172  24.864
 16.1403  24.9405
 16.1633  25.0016
 16.1863  25.0386
 16.2093  25.15
 16.2323  25.2684
 16.2553  25.4549
 16.2783  25.4723
 16.3012  25.191
 16.3243  24.9478
 16.3472  24.8494
 16.3703  24.6625
 16.3933  24.6594
 16.4163  24.8218
 16.4393  24.8191
 16.4623  24.6911
 16.4853  24.5834
 16.5083  24.649
 16.5312  24.7036
 16.5543  24.695
 16.5773  24.6411
 16.6002  24.6594
 16.6233  24.6302
 16.6463  24.7008
 16.6693  24.7728
 16.6923  24.6869
 16.7153  24.5629
 16.7383  24.4231
 16.7613  24.4448
 16.7843  24.3494
 16.8073  24.3974
 16.8303  24.4631
 16.8533  24.4485
 16.8763  24.4213
 16.8992  24.4112
 16.9223  24.3797
 16.9453  24.4144
 16.9683  24.3559
 16.9913  24.2604
 17.0143  24.2467
 17.0373  24.2277
 17.0603  24.1711
 17.0832  24.2415
 17.1063  24.2723
 17.1293  24.3172
 17.1522  24.3282
 17.1753  24.316
 17.1983  24.2652
 17.2213  24.2005
 17.2443  24.1828
 17.2673  24.1099
 17.2903  24.0942
 17.3133  24.0899
 17.3362  24.0452
 17.3593  24.0451
 17.3823  24.0359
 17.4053  24.0719
 17.4283  24.0603
 17.4513  24.1197
 17.4743  24.1302
 17.4973  24.0609
 17.5203  23.904
 17.5433  23.8527
 17.5663  23.8508
 17.5893  23.8216
 17.6123  23.8648
 17.6352  23.8826
 17.6583  23.8226
 17.6813  23.8096
 17.7042  23.8905
 17.7273  23.7269
 17.7503  23.7469
 17.7733  23.7722
 17.7963  23.7962
 17.8193  23.8635
 17.8423  23.853
 17.8653  23.8221
 17.8882  23.7668
 17.9113  23.8717
 17.9343  24.0046
 17.9573  24.2033
 17.9803  24.6404
 18.0033  25.0147
 18.0263  24.9172
 18.0493  24.7763
 18.0723  24.8298
 18.0953  25.0283
 18.1183  25.0729
 18.1413  24.8587
 18.1643  24.4031
 18.1872  23.9761
 18.2103  23.8925
 18.2333  23.862
 18.2563  23.8237
 18.2793  23.7884
 18.3023  23.8109
 18.3253  23.6485
 18.3483  23.6161
 18.3712  23.6913
 18.3943  23.7587
 18.4173  23.7229
 18.4402  23.6173
 18.4633  23.5565
 18.4863  23.6296
 18.5093  23.6712
 18.5323  23.7097
 18.5553  23.6773
 18.5783  23.7056
 18.6013  23.6454
 18.6242  23.6204
 18.6473  23.5868
 18.6703  23.5553
 18.6933  23.5919
 18.7163  23.5592
 18.7392  23.5325
 18.7623  23.5377
 18.7853  23.436
 18.8083  23.3993
 18.8313  23.3574
 18.8543  23.4587
 18.8773  23.4988
 18.9003  23.4945
 18.9232  23.5517
 18.9463  23.6621
 18.9693  23.6204
 18.9922  23.4633
 19.0153  23.4154
 19.0383  23.4994
 19.0613  23.5702
 19.0843  23.6361
 19.1073  23.6079
 19.1303  23.6269
 19.1533  23.5529
 19.1762  23.5562
 19.1993  23.6681
 19.2223  23.6157
 19.2453  23.6255
 19.2683  23.6788
 19.2913  23.696
 19.3143  23.7287
 19.3373  23.689
 19.3603  23.5748
 19.3833  23.6038
 19.4062  23.6365
 19.4293  23.683
 19.4523  23.7012
 19.4752  23.7191
 19.4983  23.7296
 19.5213  23.828
 19.5443  23.8608
 19.5673  23.866
 19.5903  24.0148
 19.6133  24.1582
 19.6363  24.5062
 19.6593  25.1651
 19.6823  26.3083
 19.7053  27.3526
 19.7283  27.4436
 19.7513  26.5363
 19.7742  25.7656
 19.7973  25.5096
 19.8203  26.1751
 19.8433  28.1179
 19.8663  29.2073
 19.8893  28.057
 19.9123  26.1337
 19.9353  24.7864
 19.9582  24.2364
 19.9813  24.088
 20.0043  24.0348
 20.0272  23.8898
 20.0503  23.9076
 20.0733  23.837
 20.0963  23.8198
 20.1193  23.7774
 20.1423  23.7266
 20.1653  23.7613
 20.1883  23.7068
 20.2112  23.7079
 20.2343  23.7881
 20.2573  23.788
 20.2803  23.7425
 20.3033  23.6542
 20.3263  23.6695
 20.3493  23.7475
 20.3723  23.7193
 20.3953  23.7844
 20.4183  23.9283
 20.4413  23.8967
 20.4643  23.8497
 20.4873  23.8074
 20.5102  23.7533
 20.5333  23.7628
 20.5563  23.8375
 20.5792  23.8238
 20.6023  23.9064
 20.6253  23.9476
 20.6483  23.9005
 20.6713  24.0702
 20.6943  24.4308
 20.7173  24.8969
 20.7403  25.2612
 20.7632  25.5058
 20.7863  25.3881
 20.8093  24.9203
 20.8323  24.4101
 20.8553  24.1817
 20.8783  24.0452
 20.9013  24.0471
 20.9243  23.9852
 20.9473  23.9555
 20.9703  24.0181
 20.9933  24.1202
 21.0163  24.0904
 21.0393  24.051
 21.0622  23.951
 21.0853  23.9316
 21.1083  23.9314
 21.1313  23.9192
 21.1543  23.8597
 21.1773  23.9174
 21.2003  23.9497
 21.2233  23.9473
 21.2462  23.9475
 21.2693  23.9533
 21.2923  23.9253
 21.3152  23.8898
 21.3383  23.913
 21.3613  23.9616
 21.3843  24.0212
 21.4073  23.966
 21.4303  23.9173
 21.4533  23.8572
 21.4763  23.8402
 21.4992  23.9878
 21.5223  24.041
 21.5453  24.0784
 21.5683  24.007
 21.5913  24.0528
 21.6142  24.1078
 21.6373  24.1086
 21.6603  24.111
 21.6833  24.1557
 21.7063  24.1085
 21.7293  24.0503
 21.7523  24.05
 21.7753  24.0443
 21.7982  24.1248
 21.8213  24.1592
 21.8443  24.1815
 21.8672  24.2391
 21.8903  24.2046
 21.9133  24.2754
 21.9363  24.1998
 21.9593  24.1861
 21.9823  24.1625
 22.0053  24.2519
 22.0283  24.2447
 22.0512  24.3077
 22.0743  24.3431
 22.0973  24.3537
 22.1203  24.4344
 22.1433  24.4589
 22.1663  24.3766
 22.1893  24.3571
 22.2123  24.329
 22.2353  24.3372
 22.2583  24.4431
 22.2813  24.5085
 22.3043  24.5088
 22.3273  24.5741
 22.3502  24.5792
 22.3733  24.537
 22.3963  24.514
 22.4193  24.5253
 22.4423  24.6549
 22.4653  24.8026
 22.4883  24.7061
 22.5113  24.6888
 22.5343  24.7768
 22.5573  24.8749
 22.5803  24.8594
 22.6033  24.8838
 22.6263  25.0212
 22.6493  24.9537
 22.6723  24.9812
 22.6953  25.1079
 22.7183  25.1433
 22.7413  25.2392
 22.7643  25.196
 22.7873  25.1774
 22.8103  25.4149
 22.8333  25.634
 22.8563  25.6347
 22.8793  25.7152
 22.9022  25.781
 22.9253  26.0146
 22.9483  26.2108
 22.9713  26.4201
 22.9943  26.6661