File: test-data-xrd/xrd-map-34-ID-E/Data_0131.chi
F:\20151113_APS_34IDE\\Brian\Particle1\OCV\Data_0131.tif
2-Theta Angle (Degrees)
Intensity
       2000
 0.01725  0.0000000E+00
 0.04025  0.0000000E+00
 0.06325  0.0000000E+00
 0.08625  0.0000000E+00
 0.10925  0.0000000E+00
 0.13225  0.0000000E+00
 0.15525  0.0000000E+00
 0.17825  0.0000000E+00
 0.20125  0.0000000E+00
 0.22425  0.0000000E+00
 0.24725  0.0000000E+00
 0.27025  0.0000000E+00
 0.29325  0.0000000E+00
 0.31625  0.0000000E+00
 0.33925  0.0000000E+00
 0.36225  0.0000000E+00
 0.38525  0.0000000E+00
 0.40825  0.0000000E+00
 0.43125  0.0000000E+00
 0.45425  0.0000000E+00
 0.47725  0.0000000E+00
 0.50025  0.0000000E+00
 0.52325  0.0000000E+00
 0.54625  0.0000000E+00
 0.56925  0.0000000E+00
 0.59225  0.0000000E+00
 0.61525  0.0000000E+00
 0.63825  0.0000000E+00
 0.66125  0.0000000E+00
 0.68425  0.0000000E+00
 0.70725  0.0000000E+00
 0.73025  0.0000000E+00
 0.75325  0.0000000E+00
 0.77625  0.0000000E+00
 0.79925  0.0000000E+00
 0.82225  0.0000000E+00
 0.84525  0.0000000E+00
 0.86825  0.0000000E+00
 0.89125  0.0000000E+00
 0.91425  0.0000000E+00
 0.93725  0.0000000E+00
 0.96025  0.0000000E+00
 0.98325  0.0000000E+00
 1.00625  0.0000000E+00
 1.02925  0.0000000E+00
 1.05225  0.0000000E+00
 1.07525  0.0000000E+00
 1.09825  0.0000000E+00
 1.12125  0.0000000E+00
 1.14425  0.0000000E+00
 1.16725  0.0000000E+00
 1.19025  0.0000000E+00
 1.21325  0.0000000E+00
 1.23625  0.0000000E+00
 1.25925  0.0000000E+00
 1.28225  0.0000000E+00
 1.30525  0.0000000E+00
 1.32825  0.0000000E+00
 1.35125  0.0000000E+00
 1.37425  0.0000000E+00
 1.39725  0.0000000E+00
 1.42025  0.0000000E+00
 1.44325  0.0000000E+00
 1.46625  0.0000000E+00
 1.48925  0.0000000E+00
 1.51225  0.0000000E+00
 1.53525  0.0000000E+00
 1.55825  0.0000000E+00
 1.58125  0.0000000E+00
 1.60425  0.0000000E+00
 1.62725  0.0000000E+00
 1.65025  0.0000000E+00
 1.67325  0.0000000E+00
 1.69625  0.0000000E+00
 1.71925  0.0000000E+00
 1.74225  0.0000000E+00
 1.76525  0.0000000E+00
 1.78825  0.0000000E+00
 1.81125  0.0000000E+00
 1.83425  0.0000000E+00
 1.85725  0.0000000E+00
 1.88025  0.0000000E+00
 1.90325  0.0000000E+00
 1.92625  0.0000000E+00
 1.94925  0.0000000E+00
 1.97225  0.0000000E+00
 1.99525  0.0000000E+00
 2.01825  0.0000000E+00
 2.04125  0.0000000E+00
 2.06425  0.0000000E+00
 2.08725  0.0000000E+00
 2.11025  0.0000000E+00
 2.13325  0.0000000E+00
 2.15625  0.0000000E+00
 2.17925  0.0000000E+00
 2.20225  0.0000000E+00
 2.22525  0.0000000E+00
 2.24825  0.0000000E+00
 2.27125  0.0000000E+00
 2.29425  0.0000000E+00
 2.31725  0.0000000E+00
 2.34025  0.0000000E+00
 2.36325  0.0000000E+00
 2.38625  0.0000000E+00
 2.40925  0.0000000E+00
 2.43225  0.0000000E+00
 2.45525  0.0000000E+00
 2.47825  0.0000000E+00
 2.50125  0.0000000E+00
 2.52425  0.0000000E+00
 2.54725  0.0000000E+00
 2.57025  0.0000000E+00
 2.59325  0.0000000E+00
 2.61625  0.0000000E+00
 2.63925  0.0000000E+00
 2.66225  0.0000000E+00
 2.68525  0.0000000E+00
 2.70825  0.0000000E+00
 2.73125  0.0000000E+00
 2.75425  0.0000000E+00
 2.77725  0.0000000E+00
 2.80025  0.0000000E+00
 2.82325  26.7236
 2.84625  31.3442
 2.86925  34.0209
 2.89225  34.6601
 2.91525  35.1754
 2.93825  35.708
 2.96125  35.7627
 2.98425  35.5657
 3.00725  36.005
 3.03025  36.3648
 3.05325  36.0152
 3.07625  35.5464
 3.09925  35.7711
 3.12225  35.585
 3.14525  35.6823
 3.16825  35.273
 3.19125  34.552
 3.21425  34.1709
 3.23725  34.6629
 3.26025  35.1612
 3.28325  35.3607
 3.30625  35.3067
 3.32925  35.0666
 3.35225  35.1454
 3.37525  34.8226
 3.39825  34.311
 3.42125  33.8988
 3.44425  33.8436
 3.46725  34.318
 3.49025  34.5165
 3.51325  33.9902
 3.53625  33.9789
 3.55925  34.3182
 3.58225  33.9969
 3.60525  33.8306
 3.62825  33.6719
 3.65125  33.4774
 3.67425  33.2177
 3.69725  33.1064
 3.72025  32.978
 3.74325  33.4972
 3.76625  33.5456
 3.78925  32.8061
 3.81225  32.3554
 3.83525  32.5209
 3.85825  32.4832
 3.88125  32.6041
 3.90425  32.4814
 3.92725  32.6771
 3.95025  33.0516
 3.97325  33.3126
 3.99625  33.0401
 4.01925  32.5927
 4.04225  32.4392
 4.06525  32.2765
 4.08825  32.3278
 4.11125  32.5144
 4.13425  32.7279
 4.15725  32.8635
 4.18025  32.5874
 4.20325  32.5386
 4.22625  32.4967
 4.24925  32.3446
 4.27225  32.2086
 4.29525  32.2151
 4.31825  32.3645
 4.34125  32.5059
 4.36425  32.5125
 4.38725  32.6039
 4.41025  32.5931
 4.43325  32.5068
 4.45625  32.4147
 4.47925  32.5537
 4.50225  32.6579
 4.52525  32.6658
 4.54825  32.611
 4.57125  32.5817
 4.59425  32.6146
 4.61725  32.7213
 4.64025  32.6858
 4.66325  33.0493
 4.68625  33.3183
 4.70925  33.3643
 4.73225  32.9295
 4.75525  32.6215
 4.77825  32.7264
 4.80125  32.7807
 4.82425  32.5485
 4.84725  32.4989
 4.87025  32.696
 4.89325  32.7621
 4.91625  32.6556
 4.93925  32.694
 4.96225  32.8214
 4.98525  33.0208
 5.00825  33.1443
 5.03125  33.2574
 5.05425  33.3819
 5.07725  33.6133
 5.10025  33.2761
 5.12325  33.051
 5.14625  33.4321
 5.16925  33.6613
 5.19225  34.0057
 5.21525  34.0557
 5.23825  33.9007
 5.26125  33.7802
 5.28425  33.7291
 5.30725  34.0111
 5.33025  34.0147
 5.35325  33.9907
 5.37625  34.1412
 5.39925  34.4504
 5.42225  34.2609
 5.44525  34.3329
 5.46825  34.5662
 5.49125  34.6764
 5.51425  34.6543
 5.53725  34.7182
 5.56025  34.7312
 5.58325  34.8478
 5.60625  35.1879
 5.62925  35.3519
 5.65225  35.3385
 5.67525  35.2184
 5.69825  35.1451
 5.72125  35.3328
 5.74425  35.5173
 5.76725  35.638
 5.79025  35.539
 5.81325  35.253
 5.83625  35.1431
 5.85925  35.2998
 5.88225  35.5816
 5.90525  35.8892
 5.92825  35.9463
 5.95125  36.1552
 5.97425  36.6579
 5.99725  36.893
 6.02025  36.6489
 6.04325  36.3583
 6.06625  36.3489
 6.08925  36.3715
 6.11225  36.5637
 6.13525  36.5481
 6.15825  36.6218
 6.18125  36.7488
 6.20425  36.7682
 6.22725  36.8483
 6.25025  37.041
 6.27325  37.3302
 6.29625  37.6267
 6.31925  37.8043
 6.34225  37.9311
 6.36525  38.1503
 6.38825  38.3352
 6.41125  38.5792
 6.43425  38.8034
 6.45725  38.8036
 6.48025  38.8518
 6.50325  38.9744
 6.52625  39.1384
 6.54925  39.1949
 6.57225  39.3334
 6.59525  39.5607
 6.61825  39.8276
 6.64125  40.1189
 6.66425  40.3795
 6.68725  40.3248
 6.71025  40.2731
 6.73325  40.3796
 6.75625  40.7109
 6.77925  40.9148
 6.80225  40.9146
 6.82525  41.1166
 6.84825  41.4428
 6.87125  41.6377
 6.89425  41.7435
 6.91725  41.8825
 6.94025  41.9301
 6.96325  42.0257
 6.98625  41.9388
 7.00925  41.9481
 7.03225  42.222
 7.05525  42.5954
 7.07825  42.5887
 7.10125  42.8096
 7.12425  42.9911
 7.14725  43.1672
 7.17025  43.386
 7.19325  43.5467
 7.21625  43.5609
 7.23925  43.6209
 7.26225  43.6559
 7.28525  43.7284
 7.30825  43.907
 7.33125  43.9127
 7.35425  43.8937
 7.37725  44.0555
 7.40025  44.1868
 7.42325  44.3421
 7.44625  44.344
 7.46925  44.2425
 7.49225  44.0851
 7.51525  43.9243
 7.53825  43.9089
 7.56125  44.0817
 7.58425  44.2866
 7.60725  44.3942
 7.63025  44.3199
 7.65325  44.2613
 7.67625  44.2383
 7.69925  44.147
 7.72225  44.3179
 7.74525  44.3329
 7.76825  44.2205
 7.79125  44.2201
 7.81425  44.1073
 7.83725  43.9823
 7.86025  44.0511
 7.88325  44.0309
 7.90625  43.8717
 7.92925  43.7067
 7.95225  43.7197
 7.97525  43.4996
 7.99825  43.4261
 8.02125  43.336
 8.04425  43.286
 8.06725  43.0035
 8.09025  42.8995
 8.11325  42.9488
 8.13625  42.5599
 8.15925  42.1929
 8.18225  42.0479
 8.20525  41.9929
 8.22825  41.7681
 8.25125  41.486
 8.27425  41.0074
 8.29725  40.7373
 8.32025  40.5989
 8.34325  40.3383
 8.36625  39.9735
 8.38925  39.5189
 8.41225  39.2063
 8.43525  38.8518
 8.45825  38.4987
 8.48125  38.1076
 8.50425  37.7799
 8.52725  37.5276
 8.55025  37.0752
 8.57325  36.6897
 8.59625  36.3753
 8.61925  36.1309
 8.64225  35.9068
 8.66525  35.6097
 8.68825  35.2753
 8.71125  34.9117
 8.73425  34.5266
 8.75725  34.033
 8.78025  33.7222
 8.80325  33.5097
 8.82625  33.1842
 8.84925  32.8558
 8.87225  32.4895
 8.89525  32.0948
 8.91825  31.7607
 8.94125  31.4453
 8.96425  31.2108
 8.98725  30.9496
 9.01025  30.6407
 9.03325  30.3073
 9.05625  30.0854
 9.07925  29.8905
 9.10225  29.7857
 9.12525  29.5434
 9.14825  29.2306
 9.17125  28.8375
 9.19425  28.5989
 9.21725  28.4112
 9.24025  28.2037
 9.26325  28.0241
 9.28625  27.7974
 9.30925  27.6058
 9.33225  27.465
 9.35525  27.275
 9.37825  27.1938
 9.40125  26.9682
 9.42425  26.7082
 9.44725  26.59
 9.47025  26.602
 9.49325  26.4985
 9.51625  26.3006
 9.53925  26.2011
 9.56225  26.0503
 9.58525  25.8534
 9.60825  25.722
 9.63125  25.5579
 9.65425  25.4251
 9.67725  25.3104
 9.70025  25.2871
 9.72325  25.2217
 9.74625  25.0423
 9.76925  25.0112
 9.79225  24.9664
 9.81525  24.8637
 9.83825  24.6471
 9.86125  24.4832
 9.88425  24.4683
 9.90725  24.4622
 9.93025  24.3225
 9.95325  24.1385
 9.97625  24.0646
 9.99925  24.0686
 10.0222  24.1056
 10.0453  24.2262
 10.0683  24.1229
 10.0913  23.9813
 10.1143  23.8297
 10.1373  23.8105
 10.1603  23.7718
 10.1832  23.8028
 10.2063  23.7694
 10.2293  23.736
 10.2523  23.5522
 10.2752  23.3903
 10.2982  23.3666
 10.3213  23.4107
 10.3443  23.2848
 10.3673  23.1489
 10.3902  23.2717
 10.4133  23.3728
 10.4363  23.2642
 10.4593  23.1861
 10.4823  23.2244
 10.5053  23.1657
 10.5283  23.0763
 10.5512  23.0699
 10.5742  23.0229
 10.5973  22.8902
 10.6203  22.7811
 10.6433  22.8363
 10.6662  22.8864
 10.6893  22.7584
 10.7123  22.6674
 10.7353  22.6504
 10.7583  22.6287
 10.7813  22.6176
 10.8043  22.6308
 10.8272  22.6589
 10.8503  22.6033
 10.8733  22.5204
 10.8963  22.4436
 10.9192  22.4974
 10.9422  22.4339
 10.9653  22.4362
 10.9883  22.4191
 11.0113  22.3391
 11.0343  22.3834
 11.0573  22.3142
 11.0803  22.2928
 11.1033  22.2693
 11.1263  22.2378
 11.1493  22.2687
 11.1723  22.2189
 11.1953  22.1499
 11.2182  22.0746
 11.2413  22.1359
 11.2643  22.1948
 11.2873  22.168
 11.3102  22.1664
 11.3333  22.1236
 11.3563  22.1694
 11.3793  22.3623
 11.4023  22.5179
 11.4253  22.4469
 11.4483  22.3584
 11.4713  22.3156
 11.4942  22.2678
 11.5173  22.3395
 11.5403  22.4206
 11.5633  22.5817
 11.5862  22.7631
 11.6093  22.6545
 11.6323  22.5467
 11.6553  22.3957
 11.6783  22.2207
 11.7013  22.164
 11.7243  22.109
 11.7473  22.0518
 11.7703  22.0866
 11.7933  22.1749
 11.8163  22.282
 11.8393  22.3291
 11.8622  22.1718
 11.8853  22.1623
 11.9083  22.2408
 11.9313  22.2581
 11.9543  22.2182
 11.9773  22.2544
 12.0003  22.2813
 12.0233  22.2138
 12.0463  22.1965
 12.0693  22.2453
 12.0923  22.3421
 12.1153  22.375
 12.1382  22.3359
 12.1613  22.2866
 12.1843  22.3181
 12.2073  22.3291
 12.2302  22.3154
 12.2533  22.3467
 12.2763  22.3345
 12.2993  22.3016
 12.3223  22.3651
 12.3453  22.3107
 12.3683  22.3228
 12.3913  22.4102
 12.4142  22.4011
 12.4373  22.3491
 12.4603  22.4098
 12.4833  22.4059
 12.5062  22.3969
 12.5292  22.4445
 12.5523  22.5648
 12.5753  22.595
 12.5983  22.6275
 12.6212  22.6794
 12.6443  22.6156
 12.6673  22.6484
 12.6903  22.696
 12.7133  22.7453
 12.7363  22.7799
 12.7593  22.8578
 12.7822  22.953
 12.8052  22.9974
 12.8283  23.0688
 12.8513  23.1735
 12.8742  23.2417
 12.8972  23.2224
 12.9203  23.326
 12.9433  23.5083
 12.9663  23.598
 12.9893  23.7091
 13.0123  23.7411
 13.0353  24.0088
 13.0582  24.3305
 13.0813  24.4326
 13.1043  24.5866
 13.1273  24.8567
 13.1502  24.99
 13.1732  25.2439
 13.1963  25.493
 13.2193  25.7563
 13.2423  26.1253
 13.2652  26.4143
 13.2883  26.7401
 13.3113  26.8835
 13.3343  27.1027
 13.3573  27.4722
 13.3803  27.8239
 13.4033  28.0459
 13.4262  28.171
 13.4492  28.2967
 13.4723  28.5717
 13.4953  28.8144
 13.5183  29.098
 13.5412  29.2932
 13.5643  29.4365
 13.5873  29.575
 13.6103  29.6319
 13.6333  29.561
 13.6563  29.4324
 13.6793  29.3551
 13.7022  29.2797
 13.7253  29.2898
 13.7483  29.2541
 13.7713  29.0881
 13.7942  29.0446
 13.8172  28.8771
 13.8403  28.6546
 13.8633  28.495
 13.8863  28.4833
 13.9093  28.5885
 13.9323  28.6086
 13.9553  28.5277
 13.9783  28.3067
 14.0013  27.9349
 14.0243  27.615
 14.0473  27.3584
 14.0703  27.295
 14.0932  27.1671
 14.1163  26.9573
 14.1393  26.7426
 14.1623  26.5852
 14.1852  26.5109
 14.2083  26.4634
 14.2313  26.2911
 14.2543  26.1396
 14.2773  26.1359
 14.3003  26.1597
 14.3233  26.0986
 14.3463  26.0756
 14.3692  26.0395
 14.3923  25.8821
 14.4153  25.7806
 14.4383  25.597
 14.4612  25.4053
 14.4843  25.3909
 14.5073  25.4642
 14.5303  25.413
 14.5533  25.4362
 14.5763  25.4258
 14.5993  25.2989
 14.6223  25.2398
 14.6453  25.2183
 14.6683  25.1858
 14.6913  25.1402
 14.7143  25.1125
 14.7372  25.0051
 14.7603  24.8092
 14.7833  24.7314
 14.8063  24.7562
 14.8293  24.7694
 14.8523  24.8277
 14.8753  24.7428
 14.8983  24.7589
 14.9213  24.717
 14.9443  24.5663
 14.9673  24.5238
 14.9903  24.6717
 15.0132  24.7234
 15.0363  24.7545
 15.0593  24.6565
 15.0823  24.5447
 15.1052  24.4458
 15.1283  24.4472
 15.1513  24.469
 15.1743  24.4759
 15.1973  24.5324
 15.2203  24.5922
 15.2433  24.5204
 15.2663  24.4248
 15.2892  24.4292
 15.3123  24.5604
 15.3353  24.5184
 15.3583  24.5023
 15.3812  24.3703
 15.4043  24.264
 15.4273  24.2854
 15.4503  24.2668
 15.4733  24.2567
 15.4963  24.2712
 15.5193  24.4101
 15.5423  24.456
 15.5653  24.4779
 15.5883  24.5031
 15.6113  24.4379
 15.6343  24.4197
 15.6572  24.5344
 15.6803  24.5325
 15.7033  24.4597
 15.7263  24.4101
 15.7492  24.2884
 15.7723  24.3759
 15.7953  24.4856
 15.8183  24.5471
 15.8413  24.4853
 15.8643  24.4098
 15.8873  24.5128
 15.9103  24.5599
 15.9332  24.5292
 15.9563  24.5365
 15.9793  24.5066
 16.0023  24.5011
 16.0253  24.5063
 16.0482  24.555
 16.0713  24.6109
 16.0943  24.6927
 16.1172  24.7695
 16.1403  24.7028
 16.1633  24.754
 16.1863  24.6678
 16.2093  24.6604
 16.2323  24.8006
 16.2553  24.9667
 16.2783  25.1203
 16.3012  24.9572
 16.3243  24.7133
 16.3472  24.5517
 16.3703  24.4256
 16.3933  24.4846
 16.4163  24.5622
 16.4393  24.4864
 16.4623  24.4527
 16.4853  24.451
 16.5083  24.3498
 16.5312  24.2815
 16.5543  24.2761
 16.5773  24.2801
 16.6002  24.3466
 16.6233  24.3902
 16.6463  24.3213
 16.6693  24.3008
 16.6923  24.3054
 16.7153  24.2397
 16.7383  24.2539
 16.7613  24.335
 16.7843  24.3794
 16.8073  24.3575
 16.8303  24.3082
 16.8533  24.2417
 16.8763  24.2149
 16.8992  24.1213
 16.9223  24.122
 16.9453  24.1982
 16.9683  24.3237
 16.9913  24.3771
 17.0143  24.3718
 17.0373  24.2248
 17.0603  24.0027
 17.0832  24.0721
 17.1063  24.1052
 17.1293  24.0584
 17.1522  23.9981
 17.1753  23.931
 17.1983  23.923
 17.2213  23.9228
 17.2443  23.9056
 17.2673  23.8565
 17.2903  23.8122
 17.3133  23.8393
 17.3362  23.8303
 17.3593  23.9134
 17.3823  23.9356
 17.4053  23.8088
 17.4283  23.7349
 17.4513  23.6933
 17.4743  23.7016
 17.4973  23.6711
 17.5203  23.6412
 17.5433  23.6954
 17.5663  23.7052
 17.5893  23.6416
 17.6123  23.6137
 17.6352  23.6218
 17.6583  23.4583
 17.6813  23.4579
 17.7042  23.5168
 17.7273  23.5734
 17.7503  23.6259
 17.7733  23.6688
 17.7963  23.6488
 17.8193  23.5842
 17.8423  23.5378
 17.8653  23.5367
 17.8882  23.5389
 17.9113  23.5439
 17.9343  23.5625
 17.9573  23.5012
 17.9803  23.5593
 18.0033  23.5248
 18.0263  23.5179
 18.0493  23.5472
 18.0723  23.5292
 18.0953  23.5302
 18.1183  23.5338
 18.1413  23.5044
 18.1643  23.426
 18.1872  23.3785
 18.2103  23.349
 18.2333  23.3734
 18.2563  23.3716
 18.2793  23.3238
 18.3023  23.3599
 18.3253  23.3587
 18.3483  23.3353
 18.3712  23.3298
 18.3943  23.3051
 18.4173  23.3924
 18.4402  23.3041
 18.4633  23.2225
 18.4863  23.2592
 18.5093  23.2264
 18.5323  23.2024
 18.5553  23.1601
 18.5783  23.3438
 18.6013  23.375
 18.6242  23.2916
 18.6473  23.2489
 18.6703  23.1876
 18.6933  23.2389
 18.7163  23.2836
 18.7392  23.2696
 18.7623  23.1589
 18.7853  23.1947
 18.8083  23.1889
 18.8313  23.17
 18.8543  23.2114
 18.8773  23.2158
 18.9003  23.1823
 18.9232  23.166
 18.9463  23.2297
 18.9693  23.2079
 18.9922  23.1542
 19.0153  23.2552
 19.0383  23.3246
 19.0613  23.351
 19.0843  23.3529
 19.1073  23.2643
 19.1303  23.2455
 19.1533  23.3181
 19.1762  23.3435
 19.1993  23.3315
 19.2223  23.2817
 19.2453  23.2897
 19.2683  23.3104
 19.2913  23.3044
 19.3143  23.2557
 19.3373  23.2859
 19.3603  23.3458
 19.3833  23.3106
 19.4062  23.3236
 19.4293  23.3665
 19.4523  23.3902
 19.4752  23.3419
 19.4983  23.3555
 19.5213  23.4594
 19.5443  23.5042
 19.5673  23.4609
 19.5903  23.39
 19.6133  23.3099
 19.6363  23.3679
 19.6593  23.3634
 19.6823  23.4911
 19.7053  23.6006
 19.7283  23.6307
 19.7513  23.6185
 19.7742  23.5774
 19.7973  23.6083
 19.8203  23.5851
 19.8433  23.5499
 19.8663  23.5306
 19.8893  23.5432
 19.9123  23.4541
 19.9353  23.3467
 19.9582  23.2886
 19.9813  23.3701
 20.0043  23.4193
 20.0272  23.3595
 20.0503  23.4052
 20.0733  23.4298
 20.0963  23.4682
 20.1193  23.4878
 20.1423  23.4858
 20.1653  23.4635
 20.1883  23.4187
 20.2112  23.376
 20.2343  23.4317
 20.2573  23.4399
 20.2803  23.4149
 20.3033  23.3846
 20.3263  23.3421
 20.3493  23.3863
 20.3723  23.3612
 20.3953  23.3636
 20.4183  23.4658
 20.4413  23.5052
 20.4643  23.4351
 20.4873  23.4101
 20.5102  23.4366
 20.5333  23.361
 20.5563  23.3894
 20.5792  23.4306
 20.6023  23.5372
 20.6253  23.4922
 20.6483  23.4424
 20.6713  23.4066
 20.6943  23.4578
 20.7173  23.6348
 20.7403  23.7019
 20.7632  23.7537
 20.7863  23.7376
 20.8093  23.7288
 20.8323  23.5841
 20.8553  23.5555
 20.8783  23.6255
 20.9013  23.6501
 20.9243  23.6569
 20.9473  23.6533
 20.9703  23.603
 20.9933  23.6263
 21.0163  23.5365
 21.0393  23.4939
 21.0622  23.5085
 21.0853  23.5346
 21.1083  23.5678
 21.1313  23.5747
 21.1543  23.4463
 21.1773  23.497
 21.2003  23.6339
 21.2233  23.6789
 21.2462  23.7041
 21.2693  23.7483
 21.2923  23.6905
 21.3152  23.6411
 21.3383  23.6844
 21.3613  23.808
 21.3843  23.7384
 21.4073  23.6299
 21.4303  23.6455
 21.4533  23.6275
 21.4763  23.629
 21.4992  23.7766
 21.5223  23.7485
 21.5453  23.731
 21.5683  23.7302
 21.5913  23.8076
 21.6142  23.9374
 21.6373  24.1507
 21.6603  24.0067
 21.6833  23.9575
 21.7063  23.9602
 21.7293  24.0577
 21.7523  24.025
 21.7753  24.0358
 21.7982  24.066
 21.8213  24.079
 21.8443  23.9782
 21.8672  23.9738
 21.8903  24.0537
 21.9133  24.1286
 21.9363  23.948
 21.9593  23.8993
 21.9823  23.9649
 22.0053  23.9814
 22.0283  24.0523
 22.0512  24.1416
 22.0743  24.1997
 22.0973  24.22
 22.1203  24.2025
 22.1433  24.141
 22.1663  24.0749
 22.1893  24.1315
 22.2123  24.2497
 22.2353  24.2664
 22.2583  24.1848
 22.2813  24.1422
 22.3043  24.2498
 22.3273  24.2506
 22.3502  24.2144
 22.3733  24.2274
 22.3963  24.2392
 22.4193  24.2665
 22.4423  24.3657
 22.4653  24.4523
 22.4883  24.4875
 22.5113  24.5305
 22.5343  24.4929
 22.5573  24.5748
 22.5803  24.5918
 22.6033  24.6359
 22.6263  24.7268
 22.6493  24.8152
 22.6723  24.8291
 22.6953  24.9089
 22.7183  24.9475
 22.7413  24.9472
 22.7643  24.9629
 22.7873  24.8906
 22.8103  25.03
 22.8333  25.2416
 22.8563  25.2812
 22.8793  25.3144
 22.9022  25.423
 22.9253  25.647
 22.9483  25.7589
 22.9713  25.8225
 22.9943  25.9018