File: test-data-xrd/xrd-map-34-ID-E/Data_0137.chi
F:\20151113_APS_34IDE\\Brian\Particle1\OCV\Data_0137.tif
2-Theta Angle (Degrees)
Intensity
       2000
 0.01725  0.0000000E+00
 0.04025  0.0000000E+00
 0.06325  0.0000000E+00
 0.08625  0.0000000E+00
 0.10925  0.0000000E+00
 0.13225  0.0000000E+00
 0.15525  0.0000000E+00
 0.17825  0.0000000E+00
 0.20125  0.0000000E+00
 0.22425  0.0000000E+00
 0.24725  0.0000000E+00
 0.27025  0.0000000E+00
 0.29325  0.0000000E+00
 0.31625  0.0000000E+00
 0.33925  0.0000000E+00
 0.36225  0.0000000E+00
 0.38525  0.0000000E+00
 0.40825  0.0000000E+00
 0.43125  0.0000000E+00
 0.45425  0.0000000E+00
 0.47725  0.0000000E+00
 0.50025  0.0000000E+00
 0.52325  0.0000000E+00
 0.54625  0.0000000E+00
 0.56925  0.0000000E+00
 0.59225  0.0000000E+00
 0.61525  0.0000000E+00
 0.63825  0.0000000E+00
 0.66125  0.0000000E+00
 0.68425  0.0000000E+00
 0.70725  0.0000000E+00
 0.73025  0.0000000E+00
 0.75325  0.0000000E+00
 0.77625  0.0000000E+00
 0.79925  0.0000000E+00
 0.82225  0.0000000E+00
 0.84525  0.0000000E+00
 0.86825  0.0000000E+00
 0.89125  0.0000000E+00
 0.91425  0.0000000E+00
 0.93725  0.0000000E+00
 0.96025  0.0000000E+00
 0.98325  0.0000000E+00
 1.00625  0.0000000E+00
 1.02925  0.0000000E+00
 1.05225  0.0000000E+00
 1.07525  0.0000000E+00
 1.09825  0.0000000E+00
 1.12125  0.0000000E+00
 1.14425  0.0000000E+00
 1.16725  0.0000000E+00
 1.19025  0.0000000E+00
 1.21325  0.0000000E+00
 1.23625  0.0000000E+00
 1.25925  0.0000000E+00
 1.28225  0.0000000E+00
 1.30525  0.0000000E+00
 1.32825  0.0000000E+00
 1.35125  0.0000000E+00
 1.37425  0.0000000E+00
 1.39725  0.0000000E+00
 1.42025  0.0000000E+00
 1.44325  0.0000000E+00
 1.46625  0.0000000E+00
 1.48925  0.0000000E+00
 1.51225  0.0000000E+00
 1.53525  0.0000000E+00
 1.55825  0.0000000E+00
 1.58125  0.0000000E+00
 1.60425  0.0000000E+00
 1.62725  0.0000000E+00
 1.65025  0.0000000E+00
 1.67325  0.0000000E+00
 1.69625  0.0000000E+00
 1.71925  0.0000000E+00
 1.74225  0.0000000E+00
 1.76525  0.0000000E+00
 1.78825  0.0000000E+00
 1.81125  0.0000000E+00
 1.83425  0.0000000E+00
 1.85725  0.0000000E+00
 1.88025  0.0000000E+00
 1.90325  0.0000000E+00
 1.92625  0.0000000E+00
 1.94925  0.0000000E+00
 1.97225  0.0000000E+00
 1.99525  0.0000000E+00
 2.01825  0.0000000E+00
 2.04125  0.0000000E+00
 2.06425  0.0000000E+00
 2.08725  0.0000000E+00
 2.11025  0.0000000E+00
 2.13325  0.0000000E+00
 2.15625  0.0000000E+00
 2.17925  0.0000000E+00
 2.20225  0.0000000E+00
 2.22525  0.0000000E+00
 2.24825  0.0000000E+00
 2.27125  0.0000000E+00
 2.29425  0.0000000E+00
 2.31725  0.0000000E+00
 2.34025  0.0000000E+00
 2.36325  0.0000000E+00
 2.38625  0.0000000E+00
 2.40925  0.0000000E+00
 2.43225  0.0000000E+00
 2.45525  0.0000000E+00
 2.47825  0.0000000E+00
 2.50125  0.0000000E+00
 2.52425  0.0000000E+00
 2.54725  0.0000000E+00
 2.57025  0.0000000E+00
 2.59325  0.0000000E+00
 2.61625  0.0000000E+00
 2.63925  0.0000000E+00
 2.66225  0.0000000E+00
 2.68525  0.0000000E+00
 2.70825  0.0000000E+00
 2.73125  0.0000000E+00
 2.75425  0.0000000E+00
 2.77725  0.0000000E+00
 2.80025  0.0000000E+00
 2.82325  40.5946
 2.84625  37.1574
 2.86925  36.0796
 2.89225  35.419
 2.91525  35.642
 2.93825  35.7527
 2.96125  35.4356
 2.98425  35.3299
 3.00725  36.3506
 3.03025  36.7432
 3.05325  35.5721
 3.07625  34.535
 3.09925  34.7667
 3.12225  35.0005
 3.14525  35.0756
 3.16825  35.3047
 3.19125  35.4523
 3.21425  35.0669
 3.23725  34.7443
 3.26025  34.4625
 3.28325  34.3799
 3.30625  34.1082
 3.32925  34.2163
 3.35225  34.8341
 3.37525  34.1615
 3.39825  33.6267
 3.42125  33.4279
 3.44425  33.9783
 3.46725  34.7796
 3.49025  35.1449
 3.51325  34.9202
 3.53625  34.4546
 3.55925  33.9909
 3.58225  33.4495
 3.60525  33.2128
 3.62825  33.6654
 3.65125  33.7758
 3.67425  33.6656
 3.69725  33.3795
 3.72025  33.0669
 3.74325  33.2446
 3.76625  33.2808
 3.78925  33.2077
 3.81225  33.3454
 3.83525  33.0455
 3.85825  32.9814
 3.88125  33.5111
 3.90425  33.6534
 3.92725  33.3403
 3.95025  33.546
 3.97325  33.3777
 3.99625  32.9074
 4.01925  32.7609
 4.04225  32.8173
 4.06525  32.7784
 4.08825  32.7006
 4.11125  32.5816
 4.13425  32.4473
 4.15725  32.3938
 4.18025  32.2951
 4.20325  32.4392
 4.22625  32.531
 4.24925  32.4047
 4.27225  32.4956
 4.29525  32.6385
 4.31825  32.4594
 4.34125  32.3923
 4.36425  32.2583
 4.38725  32.1994
 4.41025  32.3449
 4.43325  32.3495
 4.45625  32.6669
 4.47925  32.9527
 4.50225  32.7684
 4.52525  32.6396
 4.54825  33.0176
 4.57125  33.2621
 4.59425  33.2179
 4.61725  33.007
 4.64025  32.9832
 4.66325  33.1525
 4.68625  33.2226
 4.70925  32.9568
 4.73225  32.7289
 4.75525  32.5837
 4.77825  32.6079
 4.80125  32.5046
 4.82425  32.4021
 4.84725  32.7211
 4.87025  32.8508
 4.89325  32.7392
 4.91625  32.6548
 4.93925  32.7866
 4.96225  32.7366
 4.98525  32.8411
 5.00825  33.0455
 5.03125  33.2201
 5.05425  33.4162
 5.07725  33.741
 5.10025  33.745
 5.12325  33.4719
 5.14625  33.4552
 5.16925  33.627
 5.19225  34.0062
 5.21525  34.1812
 5.23825  34.2816
 5.26125  34.1974
 5.28425  33.9844
 5.30725  34.0637
 5.33025  34.1158
 5.35325  33.9899
 5.37625  34.2845
 5.39925  34.6788
 5.42225  34.7297
 5.44525  34.6613
 5.46825  34.6541
 5.49125  34.6663
 5.51425  34.484
 5.53725  34.6854
 5.56025  34.8237
 5.58325  35.018
 5.60625  35.1581
 5.62925  35.217
 5.65225  35.3047
 5.67525  35.4745
 5.69825  35.5206
 5.72125  35.4883
 5.74425  35.4071
 5.76725  35.3645
 5.79025  35.4347
 5.81325  35.5687
 5.83625  35.6013
 5.85925  35.7788
 5.88225  36.1512
 5.90525  36.3763
 5.92825  37.1333
 5.95125  38.9513
 5.97425  40.2105
 5.99725  40.736
 6.02025  39.1465
 6.04325  38.0156
 6.06625  37.1999
 6.08925  37.0216
 6.11225  36.9609
 6.13525  37.0186
 6.15825  36.856
 6.18125  36.8536
 6.20425  36.8667
 6.22725  37.0881
 6.25025  37.436
 6.27325  37.7651
 6.29625  37.901
 6.31925  37.6969
 6.34225  37.679
 6.36525  37.9998
 6.38825  38.2832
 6.41125  38.567
 6.43425  38.8343
 6.45725  38.9048
 6.48025  39.0465
 6.50325  39.1562
 6.52625  39.3864
 6.54925  39.3218
 6.57225  39.2499
 6.59525  39.4317
 6.61825  39.6431
 6.64125  39.7845
 6.66425  39.9383
 6.68725  40.017
 6.71025  40.1121
 6.73325  40.2714
 6.75625  40.478
 6.77925  40.8232
 6.80225  41.154
 6.82525  41.3942
 6.84825  41.4595
 6.87125  41.5602
 6.89425  41.777
 6.91725  41.9823
 6.94025  42.1414
 6.96325  42.2962
 6.98625  42.3089
 7.00925  42.3345
 7.03225  42.373
 7.05525  42.4403
 7.07825  42.4607
 7.10125  42.7647
 7.12425  43.0282
 7.14725  43.1327
 7.17025  43.3635
 7.19325  43.6011
 7.21625  43.6054
 7.23925  43.7366
 7.26225  43.957
 7.28525  43.8587
 7.30825  43.7158
 7.33125  43.6495
 7.35425  43.6494
 7.37725  43.7776
 7.40025  43.9593
 7.42325  44.0209
 7.44625  44.0784
 7.46925  44.0806
 7.49225  43.9841
 7.51525  44.0151
 7.53825  44.2209
 7.56125  44.3458
 7.58425  44.311
 7.60725  44.1532
 7.63025  44.2227
 7.65325  44.2118
 7.67625  44.3088
 7.69925  44.2611
 7.72225  44.2193
 7.74525  44.2751
 7.76825  44.3438
 7.79125  44.1831
 7.81425  43.9308
 7.83725  43.7755
 7.86025  43.7257
 7.88325  43.6624
 7.90625  43.6724
 7.92925  43.7673
 7.95225  43.6971
 7.97525  43.5458
 7.99825  43.4985
 8.02125  43.4855
 8.04425  43.3368
 8.06725  43.0448
 8.09025  42.7986
 8.11325  42.676
 8.13625  42.549
 8.15925  42.4222
 8.18225  42.1774
 8.20525  41.9717
 8.22825  41.7179
 8.25125  41.4838
 8.27425  41.1505
 8.29725  40.7694
 8.32025  40.4257
 8.34325  40.1035
 8.36625  39.8193
 8.38925  39.5178
 8.41225  39.1173
 8.43525  38.7453
 8.45825  38.5403
 8.48125  38.3068
 8.50425  37.9444
 8.52725  37.6059
 8.55025  37.2206
 8.57325  36.7348
 8.59625  36.3019
 8.61925  35.9667
 8.64225  35.7705
 8.66525  35.5011
 8.68825  35.1226
 8.71125  34.7863
 8.73425  34.4878
 8.75725  34.1072
 8.78025  33.7411
 8.80325  33.3694
 8.82625  33.0566
 8.84925  32.5901
 8.87225  32.2197
 8.89525  31.9434
 8.91825  31.6312
 8.94125  31.2961
 8.96425  30.9595
 8.98725  30.6235
 9.01025  30.4068
 9.03325  30.2896
 9.05625  30.1526
 9.07925  29.9189
 9.10225  29.6228
 9.12525  29.4301
 9.14825  29.1692
 9.17125  28.877
 9.19425  28.6043
 9.21725  28.3807
 9.24025  28.2244
 9.26325  27.9349
 9.28625  27.7927
 9.30925  27.71
 9.33225  27.7402
 9.35525  27.5887
 9.37825  27.4703
 9.40125  27.1954
 9.42425  27.0639
 9.44725  26.917
 9.47025  26.7231
 9.49325  26.364
 9.51625  26.1794
 9.53925  26.033
 9.56225  25.8953
 9.58525  25.633
 9.60825  25.4896
 9.63125  25.4648
 9.65425  25.3657
 9.67725  25.259
 9.70025  25.0648
 9.72325  24.9668
 9.74625  24.8979
 9.76925  24.8824
 9.79225  24.7281
 9.81525  24.6041
 9.83825  24.5676
 9.86125  24.5176
 9.88425  24.4565
 9.90725  24.5274
 9.93025  24.5042
 9.95325  24.4951
 9.97625  24.4631
 9.99925  24.3843
 10.0222  24.1793
 10.0453  24.015
 10.0683  23.9619
 10.0913  23.8735
 10.1143  23.8651
 10.1373  23.9582
 10.1603  23.9875
 10.1832  23.8958
 10.2063  23.7596
 10.2293  23.6649
 10.2523  23.6071
 10.2752  23.6191
 10.2982  23.6046
 10.3213  23.4563
 10.3443  23.3874
 10.3673  23.3358
 10.3902  23.2665
 10.4133  23.2529
 10.4363  23.1753
 10.4593  23.115
 10.4823  23.1604
 10.5053  23.1874
 10.5283  23.0388
 10.5512  22.9051
 10.5742  22.8905
 10.5973  22.8887
 10.6203  22.8659
 10.6433  22.798
 10.6662  22.7305
 10.6893  22.6533
 10.7123  22.6975
 10.7353  22.6972
 10.7583  22.6054
 10.7813  22.6045
 10.8043  22.6509
 10.8272  22.6479
 10.8503  22.6149
 10.8733  22.599
 10.8963  22.5772
 10.9192  22.6199
 10.9422  22.6562
 10.9653  22.6022
 10.9883  22.451
 11.0113  22.4125
 11.0343  22.5188
 11.0573  22.4454
 11.0803  22.4884
 11.1033  22.5064
 11.1263  22.4782
 11.1493  22.395
 11.1723  22.3047
 11.1953  22.1653
 11.2182  22.2177
 11.2413  22.2676
 11.2643  22.2579
 11.2873  22.232
 11.3102  22.2508
 11.3333  22.2216
 11.3563  22.2542
 11.3793  22.4635
 11.4023  22.7581
 11.4253  22.8136
 11.4483  22.7268
 11.4713  22.6073
 11.4942  22.5198
 11.5173  22.5736
 11.5403  22.9028
 11.5633  23.4058
 11.5862  23.8405
 11.6093  23.6791
 11.6323  23.1857
 11.6553  22.7584
 11.6783  22.4176
 11.7013  22.2792
 11.7243  22.3005
 11.7473  22.3018
 11.7703  22.2693
 11.7933  22.2361
 11.8163  22.2537
 11.8393  22.2725
 11.8622  22.2297
 11.8853  22.278
 11.9083  22.4975
 11.9313  22.7664
 11.9543  22.9782
 11.9773  23.208
 12.0003  23.206
 12.0233  22.8281
 12.0463  22.6083
 12.0693  22.6957
 12.0923  22.8506
 12.1153  22.7732
 12.1382  22.5609
 12.1613  22.3955
 12.1843  22.3412
 12.2073  22.2387
 12.2302  22.2056
 12.2533  22.1851
 12.2763  22.1997
 12.2993  22.2
 12.3223  22.2553
 12.3453  22.2534
 12.3683  22.2021
 12.3913  22.3173
 12.4142  22.3989
 12.4373  22.3424
 12.4603  22.2887
 12.4833  22.33
 12.5062  22.3698
 12.5292  22.3758
 12.5523  22.5006
 12.5753  22.5639
 12.5983  22.6285
 12.6212  22.7419
 12.6443  22.8074
 12.6673  22.8136
 12.6903  22.716
 12.7133  22.7261
 12.7363  22.7305
 12.7593  22.7599
 12.7822  22.8589
 12.8052  22.88
 12.8283  22.9775
 12.8513  23.1104
 12.8742  23.1169
 12.8972  23.1099
 12.9203  23.3769
 12.9433  23.6184
 12.9663  23.5768
 12.9893  23.6369
 13.0123  23.7429
 13.0353  23.9324
 13.0582  24.1433
 13.0813  24.354
 13.1043  24.6501
 13.1273  24.7785
 13.1502  24.8642
 13.1732  25.1114
 13.1963  25.4361
 13.2193  25.8022
 13.2423  26.1936
 13.2652  26.3972
 13.2883  26.6462
 13.3113  26.941
 13.3343  27.2438
 13.3573  27.5749
 13.3803  27.8035
 13.4033  28.0636
 13.4262  28.166
 13.4492  28.487
 13.4723  29.0087
 13.4953  28.9958
 13.5183  29.0198
 13.5412  29.1838
 13.5643  29.2892
 13.5873  29.3753
 13.6103  29.4364
 13.6333  29.4117
 13.6563  29.3941
 13.6793  29.4212
 13.7022  29.3233
 13.7253  29.1569
 13.7483  28.9362
 13.7713  28.8716
 13.7942  28.8866
 13.8172  28.793
 13.8403  28.7821
 13.8633  28.902
 13.8863  29.0001
 13.9093  29.4855
 13.9323  30.2413
 13.9553  30.5027
 13.9783  30.0634
 14.0013  29.0043
 14.0243  27.9795
 14.0473  27.5261
 14.0703  27.337
 14.0932  27.1365
 14.1163  26.9597
 14.1393  26.8829
 14.1623  26.8799
 14.1852  26.7667
 14.2083  26.5683
 14.2313  26.3449
 14.2543  26.251
 14.2773  26.2257
 14.3003  26.1597
 14.3233  25.9003
 14.3463  25.863
 14.3692  26.0082
 14.3923  26.0074
 14.4153  25.8637
 14.4383  25.7242
 14.4612  25.5857
 14.4843  25.528
 14.5073  25.4706
 14.5303  25.4132
 14.5533  25.4267
 14.5763  25.2709
 14.5993  25.142
 14.6223  25.138
 14.6453  25.1174
 14.6683  25.0436
 14.6913  25.0864
 14.7143  24.9577
 14.7372  24.8372
 14.7603  24.7548
 14.7833  24.7312
 14.8063  24.754
 14.8293  24.7671
 14.8523  24.7769
 14.8753  24.6867
 14.8983  24.6617
 14.9213  24.5841
 14.9443  24.4685
 14.9673  24.44
 14.9903  24.5048
 15.0132  24.5717
 15.0363  24.5952
 15.0593  24.5465
 15.0823  24.5223
 15.1052  24.5998
 15.1283  24.6908
 15.1513  24.7615
 15.1743  24.9155
 15.1973  24.939
 15.2203  24.8955
 15.2433  24.7235
 15.2663  24.4748
 15.2892  24.3983
 15.3123  24.4009
 15.3353  24.3287
 15.3583  24.3402
 15.3812  24.3956
 15.4043  24.3383
 15.4273  24.2012
 15.4503  24.0945
 15.4733  24.0819
 15.4963  24.1546
 15.5193  24.2445
 15.5423  24.3526
 15.5653  24.4169
 15.5883  24.3271
 15.6113  24.2929
 15.6343  24.2404
 15.6572  24.3359
 15.6803  24.3713
 15.7033  24.4191
 15.7263  24.3871
 15.7492  24.3498
 15.7723  24.4055
 15.7953  24.3152
 15.8183  24.2824
 15.8413  24.2004
 15.8643  24.2486
 15.8873  24.316
 15.9103  24.369
 15.9332  24.4313
 15.9563  24.3546
 15.9793  24.4167
 16.0023  24.5181
 16.0253  24.4477
 16.0482  24.5129
 16.0713  24.5636
 16.0943  24.5803
 16.1172  24.5618
 16.1403  24.5296
 16.1633  24.5961
 16.1863  24.824
 16.2093  25.2404
 16.2323  25.9162
 16.2553  26.5074
 16.2783  26.2122
 16.3012  25.358
 16.3243  24.7318
 16.3472  24.5284
 16.3703  24.4467
 16.3933  24.4459
 16.4163  24.5129
 16.4393  24.5049
 16.4623  24.4275
 16.4853  24.3814
 16.5083  24.3939
 16.5312  24.3551
 16.5543  24.388
 16.5773  24.3754
 16.6002  24.5006
 16.6233  24.5125
 16.6463  24.4097
 16.6693  24.4421
 16.6923  24.3973
 16.7153  24.2358
 16.7383  24.2106
 16.7613  24.2919
 16.7843  24.1898
 16.8073  24.1648
 16.8303  24.1589
 16.8533  24.1679
 16.8763  24.2682
 16.8992  24.3337
 16.9223  24.2473
 16.9453  24.0772
 16.9683  24.0223
 16.9913  23.9831
 17.0143  23.9517
 17.0373  23.8827
 17.0603  23.85
 17.0832  23.9709
 17.1063  23.9655
 17.1293  23.9413
 17.1522  23.8793
 17.1753  23.8618
 17.1983  23.8206
 17.2213  23.8352
 17.2443  23.7743
 17.2673  23.737
 17.2903  23.7488
 17.3133  23.8437
 17.3362  23.7914
 17.3593  23.7076
 17.3823  23.7141
 17.4053  23.6405
 17.4283  23.6488
 17.4513  23.7296
 17.4743  23.81
 17.4973  23.8558
 17.5203  23.7325
 17.5433  23.6693
 17.5663  23.6359
 17.5893  23.6087
 17.6123  23.5261
 17.6352  23.5518
 17.6583  23.4961
 17.6813  23.4921
 17.7042  23.5271
 17.7273  23.4765
 17.7503  23.4042
 17.7733  23.4609
 17.7963  23.5645
 17.8193  23.5833
 17.8423  23.5715
 17.8653  23.4184
 17.8882  23.3432
 17.9113  23.3895
 17.9343  23.4587
 17.9573  23.5372
 17.9803  23.5581
 18.0033  23.6129
 18.0263  23.602
 18.0493  23.6985
 18.0723  23.8753
 18.0953  24.116
 18.1183  24.1667
 18.1413  24.0232
 18.1643  23.7695
 18.1872  23.5536
 18.2103  23.4534
 18.2333  23.3903
 18.2563  23.4037
 18.2793  23.4302
 18.3023  23.4012
 18.3253  23.4233
 18.3483  23.4618
 18.3712  23.3229
 18.3943  23.2851
 18.4173  23.3764
 18.4402  23.4101
 18.4633  23.4066
 18.4863  23.3882
 18.5093  23.3208
 18.5323  23.2544
 18.5553  23.2934
 18.5783  23.3771
 18.6013  23.4128
 18.6242  23.3354
 18.6473  23.1868
 18.6703  23.143
 18.6933  23.1699
 18.7163  23.2025
 18.7392  23.1988
 18.7623  23.1957
 18.7853  23.2277
 18.8083  23.1994
 18.8313  23.2014
 18.8543  23.155
 18.8773  23.1649
 18.9003  23.2205
 18.9232  23.2854
 18.9463  23.3204
 18.9693  23.2021
 18.9922  23.1155
 19.0153  23.1561
 19.0383  23.2668
 19.0613  23.2339
 19.0843  23.1117
 19.1073  23.0016
 19.1303  23.0656
 19.1533  23.1477
 19.1762  23.1516
 19.1993  23.2058
 19.2223  23.1324
 19.2453  23.1208
 19.2683  23.224
 19.2913  23.2031
 19.3143  23.218
 19.3373  23.1743
 19.3603  23.2398
 19.3833  23.3562
 19.4062  23.4451
 19.4293  23.3965
 19.4523  23.3444
 19.4752  23.3559
 19.4983  23.3119
 19.5213  23.3476
 19.5443  23.4083
 19.5673  23.4553
 19.5903  23.4367
 19.6133  23.4424
 19.6363  23.5309
 19.6593  23.5761
 19.6823  23.6608
 19.7053  23.85
 19.7283  23.8682
 19.7513  23.7998
 19.7742  23.7354
 19.7973  23.7275
 19.8203  23.7742
 19.8433  23.8969
 19.8663  24.039
 19.8893  24.1393
 19.9123  23.955
 19.9353  23.5994
 19.9582  23.4758
 19.9813  23.4545
 20.0043  23.4089
 20.0272  23.4126
 20.0503  23.4342
 20.0733  23.416
 20.0963  23.3556
 20.1193  23.3394
 20.1423  23.3611
 20.1653  23.3708
 20.1883  23.3737
 20.2112  23.3986
 20.2343  23.4283
 20.2573  23.4176
 20.2803  23.3918
 20.3033  23.3391
 20.3263  23.2845
 20.3493  23.3391
 20.3723  23.3649
 20.3953  23.4729
 20.4183  23.5165
 20.4413  23.4897
 20.4643  23.4976
 20.4873  23.4638
 20.5102  23.4463
 20.5333  23.4037
 20.5563  23.4769
 20.5792  23.4758
 20.6023  23.4847
 20.6253  23.6266
 20.6483  23.4774
 20.6713  23.4968
 20.6943  23.6993
 20.7173  23.8984
 20.7403  23.9626
 20.7632  23.974
 20.7863  23.8907
 20.8093  23.7633
 20.8323  23.6346
 20.8553  23.5776
 20.8783  23.5131
 20.9013  23.5301
 20.9243  23.585
 20.9473  23.5671
 20.9703  23.4736
 20.9933  23.509
 21.0163  23.516
 21.0393  23.5896
 21.0622  23.5527
 21.0853  23.5782
 21.1083  23.576
 21.1313  23.6306
 21.1543  23.5131
 21.1773  23.5725
 21.2003  23.6494
 21.2233  23.5523
 21.2462  23.6522
 21.2693  23.6865
 21.2923  23.5659
 21.3152  23.5254
 21.3383  23.6268
 21.3613  23.6587
 21.3843  23.6131
 21.4073  23.5797
 21.4303  23.5984
 21.4533  23.5939
 21.4763  23.6409
 21.4992  23.7164
 21.5223  23.6751
 21.5453  23.6801
 21.5683  23.6087
 21.5913  23.6056
 21.6142  23.6159
 21.6373  23.6366
 21.6603  23.7598
 21.6833  23.8304
 21.7063  23.8376
 21.7293  23.7792
 21.7523  23.7927
 21.7753  23.7346
 21.7982  23.7169
 21.8213  23.7394
 21.8443  23.7533
 21.8672  23.8401
 21.8903  23.8806
 21.9133  23.8508
 21.9363  23.8922
 21.9593  23.9018
 21.9823  23.9856
 22.0053  24.0198
 22.0283  24.0239
 22.0512  24.0172
 22.0743  24.0957
 22.0973  24.0561
 22.1203  24.0715
 22.1433  24.1001
 22.1663  24.0451
 22.1893  24.0018
 22.2123  23.9762
 22.2353  24.0997
 22.2583  24.2657
 22.2813  24.1972
 22.3043  24.1707
 22.3273  24.1524
 22.3502  24.2157
 22.3733  24.2819
 22.3963  24.2312
 22.4193  24.1852
 22.4423  24.2679
 22.4653  24.3557
 22.4883  24.4044
 22.5113  24.4819
 22.5343  24.5234
 22.5573  24.5019
 22.5803  24.4701
 22.6033  24.5406
 22.6263  24.6524
 22.6493  24.6367
 22.6723  24.5996
 22.6953  24.7099
 22.7183  24.8239
 22.7413  24.905
 22.7643  24.9038
 22.7873  24.8853
 22.8103  24.9516
 22.8333  25.028
 22.8563  25.1084
 22.8793  25.1892
 22.9022  25.2914
 22.9253  25.4695
 22.9483  25.6234
 22.9713  25.8254
 22.9943  25.9367