File: test-data-xrd/xrd-map-34-ID-E/Data_0105.chi
F:\20151113_APS_34IDE\\Brian\Particle1\OCV\Data_0105.tif
2-Theta Angle (Degrees)
Intensity
       2000
 0.01725  0.0000000E+00
 0.04025  0.0000000E+00
 0.06325  0.0000000E+00
 0.08625  0.0000000E+00
 0.10925  0.0000000E+00
 0.13225  0.0000000E+00
 0.15525  0.0000000E+00
 0.17825  0.0000000E+00
 0.20125  0.0000000E+00
 0.22425  0.0000000E+00
 0.24725  0.0000000E+00
 0.27025  0.0000000E+00
 0.29325  0.0000000E+00
 0.31625  0.0000000E+00
 0.33925  0.0000000E+00
 0.36225  0.0000000E+00
 0.38525  0.0000000E+00
 0.40825  0.0000000E+00
 0.43125  0.0000000E+00
 0.45425  0.0000000E+00
 0.47725  0.0000000E+00
 0.50025  0.0000000E+00
 0.52325  0.0000000E+00
 0.54625  0.0000000E+00
 0.56925  0.0000000E+00
 0.59225  0.0000000E+00
 0.61525  0.0000000E+00
 0.63825  0.0000000E+00
 0.66125  0.0000000E+00
 0.68425  0.0000000E+00
 0.70725  0.0000000E+00
 0.73025  0.0000000E+00
 0.75325  0.0000000E+00
 0.77625  0.0000000E+00
 0.79925  0.0000000E+00
 0.82225  0.0000000E+00
 0.84525  0.0000000E+00
 0.86825  0.0000000E+00
 0.89125  0.0000000E+00
 0.91425  0.0000000E+00
 0.93725  0.0000000E+00
 0.96025  0.0000000E+00
 0.98325  0.0000000E+00
 1.00625  0.0000000E+00
 1.02925  0.0000000E+00
 1.05225  0.0000000E+00
 1.07525  0.0000000E+00
 1.09825  0.0000000E+00
 1.12125  0.0000000E+00
 1.14425  0.0000000E+00
 1.16725  0.0000000E+00
 1.19025  0.0000000E+00
 1.21325  0.0000000E+00
 1.23625  0.0000000E+00
 1.25925  0.0000000E+00
 1.28225  0.0000000E+00
 1.30525  0.0000000E+00
 1.32825  0.0000000E+00
 1.35125  0.0000000E+00
 1.37425  0.0000000E+00
 1.39725  0.0000000E+00
 1.42025  0.0000000E+00
 1.44325  0.0000000E+00
 1.46625  0.0000000E+00
 1.48925  0.0000000E+00
 1.51225  0.0000000E+00
 1.53525  0.0000000E+00
 1.55825  0.0000000E+00
 1.58125  0.0000000E+00
 1.60425  0.0000000E+00
 1.62725  0.0000000E+00
 1.65025  0.0000000E+00
 1.67325  0.0000000E+00
 1.69625  0.0000000E+00
 1.71925  0.0000000E+00
 1.74225  0.0000000E+00
 1.76525  0.0000000E+00
 1.78825  0.0000000E+00
 1.81125  0.0000000E+00
 1.83425  0.0000000E+00
 1.85725  0.0000000E+00
 1.88025  0.0000000E+00
 1.90325  0.0000000E+00
 1.92625  0.0000000E+00
 1.94925  0.0000000E+00
 1.97225  0.0000000E+00
 1.99525  0.0000000E+00
 2.01825  0.0000000E+00
 2.04125  0.0000000E+00
 2.06425  0.0000000E+00
 2.08725  0.0000000E+00
 2.11025  0.0000000E+00
 2.13325  0.0000000E+00
 2.15625  0.0000000E+00
 2.17925  0.0000000E+00
 2.20225  0.0000000E+00
 2.22525  0.0000000E+00
 2.24825  0.0000000E+00
 2.27125  0.0000000E+00
 2.29425  0.0000000E+00
 2.31725  0.0000000E+00
 2.34025  0.0000000E+00
 2.36325  0.0000000E+00
 2.38625  0.0000000E+00
 2.40925  0.0000000E+00
 2.43225  0.0000000E+00
 2.45525  0.0000000E+00
 2.47825  0.0000000E+00
 2.50125  0.0000000E+00
 2.52425  0.0000000E+00
 2.54725  0.0000000E+00
 2.57025  0.0000000E+00
 2.59325  0.0000000E+00
 2.61625  0.0000000E+00
 2.63925  0.0000000E+00
 2.66225  0.0000000E+00
 2.68525  0.0000000E+00
 2.70825  0.0000000E+00
 2.73125  0.0000000E+00
 2.75425  0.0000000E+00
 2.77725  0.0000000E+00
 2.80025  0.0000000E+00
 2.82325  34.2912
 2.84625  35.0638
 2.86925  34.5306
 2.89225  33.8177
 2.91525  34.5932
 2.93825  36.0056
 2.96125  36.288
 2.98425  35.8316
 3.00725  34.7932
 3.03025  34.4984
 3.05325  34.5661
 3.07625  34.7628
 3.09925  35.4261
 3.12225  35.7331
 3.14525  35.9977
 3.16825  35.8117
 3.19125  35.2907
 3.21425  35.365
 3.23725  35.4597
 3.26025  35.5666
 3.28325  35.0839
 3.30625  34.9176
 3.32925  34.7368
 3.35225  34.7301
 3.37525  34.2626
 3.39825  33.7802
 3.42125  33.768
 3.44425  34.1798
 3.46725  34.6443
 3.49025  34.7144
 3.51325  34.2294
 3.53625  33.6085
 3.55925  33.2395
 3.58225  33.112
 3.60525  33.0559
 3.62825  33.2993
 3.65125  33.1854
 3.67425  32.8314
 3.69725  32.7566
 3.72025  32.5851
 3.74325  32.7314
 3.76625  32.8722
 3.78925  32.6838
 3.81225  32.3415
 3.83525  32.2824
 3.85825  32.5908
 3.88125  32.7336
 3.90425  32.4433
 3.92725  32.546
 3.95025  32.9906
 3.97325  32.9496
 3.99625  32.6031
 4.01925  32.1086
 4.04225  31.7964
 4.06525  31.7439
 4.08825  31.723
 4.11125  31.8279
 4.13425  31.9902
 4.15725  32.0154
 4.18025  32.201
 4.20325  32.4426
 4.22625  32.5536
 4.24925  32.4841
 4.27225  32.2712
 4.29525  32.0852
 4.31825  32.0906
 4.34125  32.3059
 4.36425  32.376
 4.38725  32.3327
 4.41025  32.4763
 4.43325  32.4239
 4.45625  32.278
 4.47925  32.2494
 4.50225  32.4364
 4.52525  32.6892
 4.54825  32.8286
 4.57125  33.1568
 4.59425  33.2171
 4.61725  32.8819
 4.64025  32.5126
 4.66325  32.6372
 4.68625  32.7389
 4.70925  32.6016
 4.73225  32.4024
 4.75525  32.2392
 4.77825  32.2298
 4.80125  32.433
 4.82425  32.5038
 4.84725  32.6924
 4.87025  32.8828
 4.89325  32.9539
 4.91625  33.0036
 4.93925  33.0706
 4.96225  32.8355
 4.98525  32.7424
 5.00825  32.9817
 5.03125  33.2018
 5.05425  33.1488
 5.07725  33.2882
 5.10025  33.5561
 5.12325  33.532
 5.14625  33.483
 5.16925  33.4427
 5.19225  33.5666
 5.21525  33.7127
 5.23825  33.7387
 5.26125  33.6555
 5.28425  33.8434
 5.30725  34.0034
 5.33025  33.9934
 5.35325  33.9033
 5.37625  34.0004
 5.39925  34.2532
 5.42225  34.3957
 5.44525  34.4667
 5.46825  34.6884
 5.49125  34.7793
 5.51425  34.6127
 5.53725  34.6168
 5.56025  34.6681
 5.58325  34.7257
 5.60625  34.8974
 5.62925  34.985
 5.65225  35.0958
 5.67525  35.3427
 5.69825  35.1544
 5.72125  35.3195
 5.74425  35.5296
 5.76725  35.4732
 5.79025  35.4961
 5.81325  35.6586
 5.83625  35.7842
 5.85925  35.81
 5.88225  36.0201
 5.90525  36.8273
 5.92825  38.3582
 5.95125  41.9688
 5.97425  44.4875
 5.99725  44.2282
 6.02025  41.2695
 6.04325  38.6385
 6.06625  37.261
 6.08925  36.9909
 6.11225  36.8324
 6.13525  36.8191
 6.15825  36.9595
 6.18125  37.0832
 6.20425  36.9216
 6.22725  36.9555
 6.25025  37.1138
 6.27325  37.2304
 6.29625  37.4462
 6.31925  37.5542
 6.34225  37.5391
 6.36525  37.5614
 6.38825  37.9417
 6.41125  38.2947
 6.43425  38.5206
 6.45725  38.7053
 6.48025  38.8476
 6.50325  38.9427
 6.52625  39.1386
 6.54925  39.331
 6.57225  39.5761
 6.59525  39.7864
 6.61825  39.774
 6.64125  39.9271
 6.66425  40.2582
 6.68725  40.2282
 6.71025  40.3559
 6.73325  40.4314
 6.75625  40.5374
 6.77925  40.7994
 6.80225  40.8995
 6.82525  41.1724
 6.84825  41.3283
 6.87125  41.4777
 6.89425  41.5926
 6.91725  41.7385
 6.94025  41.8557
 6.96325  41.9761
 6.98625  42.1245
 7.00925  42.2941
 7.03225  42.4553
 7.05525  42.5722
 7.07825  42.5327
 7.10125  42.7025
 7.12425  42.8426
 7.14725  42.837
 7.17025  42.8435
 7.19325  43.1431
 7.21625  43.3602
 7.23925  43.4295
 7.26225  43.628
 7.28525  43.5674
 7.30825  43.6313
 7.33125  43.7291
 7.35425  43.8532
 7.37725  43.8323
 7.40025  43.8336
 7.42325  43.7702
 7.44625  43.777
 7.46925  43.953
 7.49225  44.0143
 7.51525  44.0551
 7.53825  44.068
 7.56125  44.0724
 7.58425  44.104
 7.60725  44.0444
 7.63025  44.1588
 7.65325  44.1482
 7.67625  44.0935
 7.69925  43.9653
 7.72225  44.1034
 7.74525  44.1802
 7.76825  44.1325
 7.79125  43.945
 7.81425  43.8666
 7.83725  43.8486
 7.86025  43.932
 7.88325  43.7934
 7.90625  43.5938
 7.92925  43.5488
 7.95225  43.471
 7.97525  43.3409
 7.99825  43.2078
 8.02125  42.9983
 8.04425  42.9207
 8.06725  42.7905
 8.09025  42.7518
 8.11325  42.9419
 8.13625  42.7119
 8.15925  42.346
 8.18225  41.8901
 8.20525  41.6351
 8.22825  41.5015
 8.25125  41.292
 8.27425  41.0626
 8.29725  40.7263
 8.32025  40.4442
 8.34325  40.1152
 8.36625  39.7332
 8.38925  39.4253
 8.41225  39.2438
 8.43525  38.9193
 8.45825  38.527
 8.48125  38.2172
 8.50425  37.7632
 8.52725  37.3645
 8.55025  36.9643
 8.57325  36.6257
 8.59625  36.3383
 8.61925  36.0335
 8.64225  35.6406
 8.66525  35.2467
 8.68825  35.1247
 8.71125  35.1657
 8.73425  34.6971
 8.75725  34.0648
 8.78025  33.7349
 8.80325  33.3209
 8.82625  33.0058
 8.84925  32.7166
 8.87225  32.424
 8.89525  32.0294
 8.91825  31.73
 8.94125  31.382
 8.96425  31.0684
 8.98725  30.7645
 9.01025  30.4308
 9.03325  30.2743
 9.05625  30.0077
 9.07925  29.8147
 9.10225  29.6022
 9.12525  29.358
 9.14825  29.1664
 9.17125  28.803
 9.19425  28.5687
 9.21725  28.2446
 9.24025  27.9462
 9.26325  27.7357
 9.28625  27.5382
 9.30925  27.5109
 9.33225  27.3961
 9.35525  27.3277
 9.37825  27.2349
 9.40125  27.1445
 9.42425  27.0955
 9.44725  26.9021
 9.47025  26.7224
 9.49325  26.3703
 9.51625  26.1747
 9.53925  26.0483
 9.56225  25.8078
 9.58525  25.6405
 9.60825  25.5421
 9.63125  25.4133
 9.65425  25.4021
 9.67725  25.4261
 9.70025  25.4015
 9.72325  25.3492
 9.74625  25.2385
 9.76925  25.1247
 9.79225  25.0304
 9.81525  24.9698
 9.83825  24.8029
 9.86125  24.7578
 9.88425  24.6413
 9.90725  24.4877
 9.93025  24.344
 9.95325  24.1486
 9.97625  24.1536
 9.99925  24.1595
 10.0222  24.1424
 10.0453  24.1095
 10.0683  24.0488
 10.0913  23.9923
 10.1143  23.9244
 10.1373  23.8752
 10.1603  23.786
 10.1832  23.7568
 10.2063  23.6495
 10.2293  23.6496
 10.2523  23.6346
 10.2752  23.5806
 10.2982  23.4473
 10.3213  23.345
 10.3443  23.3129
 10.3673  23.2517
 10.3902  23.3682
 10.4133  23.5039
 10.4363  23.3877
 10.4593  23.2585
 10.4823  23.2454
 10.5053  23.2419
 10.5283  23.2065
 10.5512  23.0779
 10.5742  23.0904
 10.5973  23.0386
 10.6203  23.0287
 10.6433  22.872
 10.6662  22.8786
 10.6893  22.8371
 10.7123  22.8639
 10.7353  22.919
 10.7583  22.8573
 10.7813  22.8179
 10.8043  22.8061
 10.8272  22.7551
 10.8503  22.7245
 10.8733  22.7565
 10.8963  22.6693
 10.9192  22.645
 10.9422  22.5791
 10.9653  22.5504
 10.9883  22.5829
 11.0113  22.4812
 11.0343  22.4645
 11.0573  22.4606
 11.0803  22.4938
 11.1033  22.5354
 11.1263  22.499
 11.1493  22.4545
 11.1723  22.3779
 11.1953  22.3228
 11.2182  22.3767
 11.2413  22.4833
 11.2643  22.3751
 11.2873  22.3332
 11.3102  22.4613
 11.3333  22.4905
 11.3563  22.4034
 11.3793  22.508
 11.4023  22.7588
 11.4253  22.8601
 11.4483  22.8576
 11.4713  23.0539
 11.4942  23.3654
 11.5173  24.7179
 11.5403  28.8405
 11.5633  34.6875
 11.5862  35.6109
 11.6093  31.2602
 11.6323  26.7148
 11.6553  24.2598
 11.6783  23.1649
 11.7013  22.8847
 11.7243  22.6753
 11.7473  22.5194
 11.7703  22.5449
 11.7933  22.5593
 11.8163  22.5463
 11.8393  22.5609
 11.8622  22.4604
 11.8853  22.4759
 11.9083  22.7355
 11.9313  23.4456
 11.9543  24.2637
 11.9773  24.7495
 12.0003  24.1962
 12.0233  23.7663
 12.0463  23.8031
 12.0693  24.4969
 12.0923  25.2019
 12.1153  25.0561
 12.1382  24.1327
 12.1613  23.2903
 12.1843  22.9373
 12.2073  22.7706
 12.2302  22.6222
 12.2533  22.5553
 12.2763  22.4788
 12.2993  22.4823
 12.3223  22.5442
 12.3453  22.4815
 12.3683  22.4835
 12.3913  22.55
 12.4142  22.5129
 12.4373  22.5362
 12.4603  22.661
 12.4833  22.7019
 12.5062  22.6669
 12.5292  22.7183
 12.5523  22.6863
 12.5753  22.5763
 12.5983  22.5916
 12.6212  22.609
 12.6443  22.6465
 12.6673  22.6179
 12.6903  22.6737
 12.7133  22.88
 12.7363  22.9655
 12.7593  22.9896
 12.7822  23.0415
 12.8052  23.0895
 12.8283  23.1165
 12.8513  23.2423
 12.8742  23.7379
 12.8972  24.2029
 12.9203  24.4044
 12.9433  24.0819
 12.9663  23.7663
 12.9893  23.784
 13.0123  23.879
 13.0353  24.0864
 13.0582  24.2405
 13.0813  24.416
 13.1043  24.6748
 13.1273  24.9486
 13.1502  25.2298
 13.1732  25.3557
 13.1963  25.5575
 13.2193  25.8545
 13.2423  26.1806
 13.2652  26.4205
 13.2883  26.543
 13.3113  26.738
 13.3343  27.1247
 13.3573  27.5026
 13.3803  27.7268
 13.4033  28.1147
 13.4262  28.3636
 13.4492  28.6316
 13.4723  28.8339
 13.4953  29.0441
 13.5183  29.2369
 13.5412  29.4896
 13.5643  29.6459
 13.5873  29.7358
 13.6103  29.7134
 13.6333  29.7197
 13.6563  29.6823
 13.6793  29.7135
 13.7022  29.6195
 13.7253  29.4912
 13.7483  29.5143
 13.7713  29.5119
 13.7942  29.472
 13.8172  29.4504
 13.8403  29.7589
 13.8633  30.511
 13.8863  32.426
 13.9093  37.0398
 13.9323  43.4527
 13.9553  46.3807
 13.9783  43.1558
 14.0013  36.7313
 14.0243  31.5647
 14.0473  29.2307
 14.0703  28.2465
 14.0932  27.9016
 14.1163  27.6948
 14.1393  27.3399
 14.1623  26.9272
 14.1852  26.6773
 14.2083  26.5872
 14.2313  26.4547
 14.2543  26.3199
 14.2773  26.2123
 14.3003  26.199
 14.3233  26.1554
 14.3463  26.1067
 14.3692  26.0354
 14.3923  25.9847
 14.4153  25.9792
 14.4383  25.9541
 14.4612  25.8651
 14.4843  25.7356
 14.5073  25.6102
 14.5303  25.5571
 14.5533  25.552
 14.5763  25.457
 14.5993  25.3719
 14.6223  25.2839
 14.6453  25.2429
 14.6683  25.0833
 14.6913  25.0655
 14.7143  25.1234
 14.7372  25.0652
 14.7603  25.0115
 14.7833  25.0185
 14.8063  24.8978
 14.8293  24.8765
 14.8523  24.9028
 14.8753  24.8062
 14.8983  24.8138
 14.9213  24.855
 14.9443  24.8133
 14.9673  24.7318
 14.9903  24.7722
 15.0132  24.8867
 15.0363  25.0033
 15.0593  24.9739
 15.0823  24.9769
 15.1052  25.1066
 15.1283  25.7182
 15.1513  27.2302
 15.1743  28.9779
 15.1973  28.8823
 15.2203  27.5058
 15.2433  26.1502
 15.2663  25.2999
 15.2892  24.9778
 15.3123  24.7732
 15.3353  24.5988
 15.3583  24.4446
 15.3812  24.4351
 15.4043  24.519
 15.4273  24.4745
 15.4503  24.3263
 15.4733  24.3583
 15.4963  24.4332
 15.5193  24.4387
 15.5423  24.4704
 15.5653  24.4799
 15.5883  24.5117
 15.6113  24.5251
 15.6343  24.4677
 15.6572  24.4042
 15.6803  24.4037
 15.7033  24.4367
 15.7263  24.3492
 15.7492  24.2309
 15.7723  24.4186
 15.7953  24.5309
 15.8183  24.6084
 15.8413  24.5642
 15.8643  24.5306
 15.8873  24.5171
 15.9103  24.4758
 15.9332  24.5454
 15.9563  24.5943
 15.9793  24.6047
 16.0023  24.6685
 16.0253  24.6326
 16.0482  24.5733
 16.0713  24.5379
 16.0943  24.5446
 16.1172  24.6813
 16.1403  24.7564
 16.1633  24.8973
 16.1863  25.038
 16.2093  25.1176
 16.2323  25.4415
 16.2553  25.7586
 16.2783  25.6692
 16.3012  25.1633
 16.3243  24.8759
 16.3472  24.8082
 16.3703  24.6763
 16.3933  24.5368
 16.4163  24.5532
 16.4393  24.6035
 16.4623  24.5773
 16.4853  24.5769
 16.5083  24.5967
 16.5312  24.5962
 16.5543  24.6792
 16.5773  24.6514
 16.6002  24.5502
 16.6233  24.4376
 16.6463  24.3596
 16.6693  24.4607
 16.6923  24.5317
 16.7153  24.5095
 16.7383  24.4321
 16.7613  24.4827
 16.7843  24.3574
 16.8073  24.3093
 16.8303  24.2898
 16.8533  24.2771
 16.8763  24.285
 16.8992  24.1959
 16.9223  24.2612
 16.9453  24.3142
 16.9683  24.3213
 16.9913  24.3106
 17.0143  24.3418
 17.0373  24.2894
 17.0603  24.1366
 17.0832  24.1796
 17.1063  24.241
 17.1293  24.2081
 17.1522  24.1673
 17.1753  24.0727
 17.1983  23.9823
 17.2213  23.9737
 17.2443  24.0894
 17.2673  24.0683
 17.2903  24.032
 17.3133  24.0442
 17.3362  24.0822
 17.3593  24.0091
 17.3823  24.0334
 17.4053  23.954
 17.4283  23.9518
 17.4513  23.9529
 17.4743  23.9629
 17.4973  23.9671
 17.5203  23.846
 17.5433  23.7967
 17.5663  23.6873
 17.5893  23.6374
 17.6123  23.6407
 17.6352  23.6198
 17.6583  23.6055
 17.6813  23.6426
 17.7042  23.7101
 17.7273  23.6844
 17.7503  23.616
 17.7733  23.6447
 17.7963  23.7668
 17.8193  23.7941
 17.8423  23.7874
 17.8653  23.6727
 17.8882  23.679
 17.9113  23.7185
 17.9343  23.7782
 17.9573  23.7833
 17.9803  23.9218
 18.0033  24.2047
 18.0263  24.3631
 18.0493  24.5088
 18.0723  24.6892
 18.0953  25.0125
 18.1183  25.1103
 18.1413  24.873
 18.1643  24.3646
 18.1872  23.8921
 18.2103  23.6948
 18.2333  23.5755
 18.2563  23.5077
 18.2793  23.4427
 18.3023  23.4838
 18.3253  23.5121
 18.3483  23.5502
 18.3712  23.5708
 18.3943  23.6041
 18.4173  23.6109
 18.4402  23.5091
 18.4633  23.4481
 18.4863  23.4504
 18.5093  23.4625
 18.5323  23.4698
 18.5553  23.5148
 18.5783  23.56
 18.6013  23.5159
 18.6242  23.4996
 18.6473  23.4449
 18.6703  23.3216
 18.6933  23.3783
 18.7163  23.3861
 18.7392  23.3886
 18.7623  23.3608
 18.7853  23.3478
 18.8083  23.3596
 18.8313  23.3693
 18.8543  23.3921
 18.8773  23.4069
 18.9003  23.474
 18.9232  23.5566
 18.9463  23.5719
 18.9693  23.4545
 18.9922  23.4281
 19.0153  23.4635
 19.0383  23.5084
 19.0613  23.4392
 19.0843  23.4618
 19.1073  23.4872
 19.1303  23.5453
 19.1533  23.5268
 19.1762  23.438
 19.1993  23.4937
 19.2223  23.4805
 19.2453  23.3792
 19.2683  23.4715
 19.2913  23.544
 19.3143  23.5664
 19.3373  23.529
 19.3603  23.5339
 19.3833  23.52
 19.4062  23.5384
 19.4293  23.5352
 19.4523  23.5244
 19.4752  23.5636
 19.4983  23.6214
 19.5213  23.6469
 19.5443  23.604
 19.5673  23.6411
 19.5903  23.7306
 19.6133  23.8359
 19.6363  23.9492
 19.6593  24.1552
 19.6823  24.7237
 19.7053  25.6667
 19.7283  26.1613
 19.7513  25.9236
 19.7742  25.2916
 19.7973  25.0821
 19.8203  25.4223
 19.8433  26.0996
 19.8663  26.4348
 19.8893  26.0707
 19.9123  25.1708
 19.9353  24.2919
 19.9582  23.8712
 19.9813  23.8069
 20.0043  23.7412
 20.0272  23.5991
 20.0503  23.5973
 20.0733  23.5249
 20.0963  23.5946
 20.1193  23.6482
 20.1423  23.6583
 20.1653  23.6721
 20.1883  23.7089
 20.2112  23.6553
 20.2343  23.6077
 20.2573  23.672
 20.2803  23.6684
 20.3033  23.599
 20.3263  23.5598
 20.3493  23.5198
 20.3723  23.4606
 20.3953  23.57
 20.4183  23.6706
 20.4413  23.6934
 20.4643  23.6784
 20.4873  23.742
 20.5102  23.6729
 20.5333  23.6326
 20.5563  23.8147
 20.5792  23.825
 20.6023  23.8744
 20.6253  23.9829
 20.6483  24.0988
 20.6713  24.3055
 20.6943  24.9618
 20.7173  26.1859
 20.7403  28.4633
 20.7632  30.743
 20.7863  30.9798
 20.8093  28.7185
 20.8323  26.0757
 20.8553  24.6392
 20.8783  24.2392
 20.9013  24.1372
 20.9243  24.0876
 20.9473  24.0283
 20.9703  23.9448
 20.9933  23.8779
 21.0163  23.8556
 21.0393  23.8218
 21.0622  23.887
 21.0853  23.9206
 21.1083  23.8365
 21.1313  23.8462
 21.1543  23.7765
 21.1773  23.8069
 21.2003  23.8248
 21.2233  23.802
 21.2462  23.7954
 21.2693  23.8335
 21.2923  23.8952
 21.3152  23.7948
 21.3383  23.766
 21.3613  23.8023
 21.3843  23.8294
 21.4073  23.739
 21.4303  23.7512
 21.4533  23.7151
 21.4763  23.8057
 21.4992  23.9218
 21.5223  23.9202
 21.5453  23.8425
 21.5683  23.7745
 21.5913  23.8731
 21.6142  23.9461
 21.6373  23.9328
 21.6603  23.8369
 21.6833  23.9074
 21.7063  23.9905
 21.7293  23.9906
 21.7523  23.9977
 21.7753  24.0588
 21.7982  24.1198
 21.8213  24.0734
 21.8443  23.9788
 21.8672  24.0864
 21.8903  24.1396
 21.9133  24.1422
 21.9363  24.0755
 21.9593  24.0891
 21.9823  24.1721
 22.0053  24.1751
 22.0283  24.2436
 22.0512  24.2126
 22.0743  24.226
 22.0973  24.2197
 22.1203  24.2148
 22.1433  24.1645
 22.1663  24.166
 22.1893  24.1973
 22.2123  24.2863
 22.2353  24.4238
 22.2583  24.4067
 22.2813  24.3692
 22.3043  24.4442
 22.3273  24.4443
 22.3502  24.4153
 22.3733  24.4802
 22.3963  24.4512
 22.4193  24.3447
 22.4423  24.4227
 22.4653  24.5847
 22.4883  24.4888
 22.5113  24.5074
 22.5343  24.6182
 22.5573  24.7018
 22.5803  24.7047
 22.6033  24.8384
 22.6263  24.9771
 22.6493  24.9955
 22.6723  25.0628
 22.6953  25.1707
 22.7183  25.116
 22.7413  25.1295
 22.7643  25.2005
 22.7873  25.1951
 22.8103  25.3997
 22.8333  25.4084
 22.8563  25.4265
 22.8793  25.4894
 22.9022  25.6084
 22.9253  25.8825
 22.9483  25.9644
 22.9713  26.0926
 22.9943  26.335