File: test-data-xrd/xrd-map-34-ID-E/Data_0045.chi
F:\20151113_APS_34IDE\\Brian\Particle1\OCV\Data_0045.tif
2-Theta Angle (Degrees)
Intensity
       2000
 0.01725  0.0000000E+00
 0.04025  0.0000000E+00
 0.06325  0.0000000E+00
 0.08625  0.0000000E+00
 0.10925  0.0000000E+00
 0.13225  0.0000000E+00
 0.15525  0.0000000E+00
 0.17825  0.0000000E+00
 0.20125  0.0000000E+00
 0.22425  0.0000000E+00
 0.24725  0.0000000E+00
 0.27025  0.0000000E+00
 0.29325  0.0000000E+00
 0.31625  0.0000000E+00
 0.33925  0.0000000E+00
 0.36225  0.0000000E+00
 0.38525  0.0000000E+00
 0.40825  0.0000000E+00
 0.43125  0.0000000E+00
 0.45425  0.0000000E+00
 0.47725  0.0000000E+00
 0.50025  0.0000000E+00
 0.52325  0.0000000E+00
 0.54625  0.0000000E+00
 0.56925  0.0000000E+00
 0.59225  0.0000000E+00
 0.61525  0.0000000E+00
 0.63825  0.0000000E+00
 0.66125  0.0000000E+00
 0.68425  0.0000000E+00
 0.70725  0.0000000E+00
 0.73025  0.0000000E+00
 0.75325  0.0000000E+00
 0.77625  0.0000000E+00
 0.79925  0.0000000E+00
 0.82225  0.0000000E+00
 0.84525  0.0000000E+00
 0.86825  0.0000000E+00
 0.89125  0.0000000E+00
 0.91425  0.0000000E+00
 0.93725  0.0000000E+00
 0.96025  0.0000000E+00
 0.98325  0.0000000E+00
 1.00625  0.0000000E+00
 1.02925  0.0000000E+00
 1.05225  0.0000000E+00
 1.07525  0.0000000E+00
 1.09825  0.0000000E+00
 1.12125  0.0000000E+00
 1.14425  0.0000000E+00
 1.16725  0.0000000E+00
 1.19025  0.0000000E+00
 1.21325  0.0000000E+00
 1.23625  0.0000000E+00
 1.25925  0.0000000E+00
 1.28225  0.0000000E+00
 1.30525  0.0000000E+00
 1.32825  0.0000000E+00
 1.35125  0.0000000E+00
 1.37425  0.0000000E+00
 1.39725  0.0000000E+00
 1.42025  0.0000000E+00
 1.44325  0.0000000E+00
 1.46625  0.0000000E+00
 1.48925  0.0000000E+00
 1.51225  0.0000000E+00
 1.53525  0.0000000E+00
 1.55825  0.0000000E+00
 1.58125  0.0000000E+00
 1.60425  0.0000000E+00
 1.62725  0.0000000E+00
 1.65025  0.0000000E+00
 1.67325  0.0000000E+00
 1.69625  0.0000000E+00
 1.71925  0.0000000E+00
 1.74225  0.0000000E+00
 1.76525  0.0000000E+00
 1.78825  0.0000000E+00
 1.81125  0.0000000E+00
 1.83425  0.0000000E+00
 1.85725  0.0000000E+00
 1.88025  0.0000000E+00
 1.90325  0.0000000E+00
 1.92625  0.0000000E+00
 1.94925  0.0000000E+00
 1.97225  0.0000000E+00
 1.99525  0.0000000E+00
 2.01825  0.0000000E+00
 2.04125  0.0000000E+00
 2.06425  0.0000000E+00
 2.08725  0.0000000E+00
 2.11025  0.0000000E+00
 2.13325  0.0000000E+00
 2.15625  0.0000000E+00
 2.17925  0.0000000E+00
 2.20225  0.0000000E+00
 2.22525  0.0000000E+00
 2.24825  0.0000000E+00
 2.27125  0.0000000E+00
 2.29425  0.0000000E+00
 2.31725  0.0000000E+00
 2.34025  0.0000000E+00
 2.36325  0.0000000E+00
 2.38625  0.0000000E+00
 2.40925  0.0000000E+00
 2.43225  0.0000000E+00
 2.45525  0.0000000E+00
 2.47825  0.0000000E+00
 2.50125  0.0000000E+00
 2.52425  0.0000000E+00
 2.54725  0.0000000E+00
 2.57025  0.0000000E+00
 2.59325  0.0000000E+00
 2.61625  0.0000000E+00
 2.63925  0.0000000E+00
 2.66225  0.0000000E+00
 2.68525  0.0000000E+00
 2.70825  0.0000000E+00
 2.73125  0.0000000E+00
 2.75425  0.0000000E+00
 2.77725  0.0000000E+00
 2.80025  0.0000000E+00
 2.82325  33.8423
 2.84625  34.341
 2.86925  34.8312
 2.89225  35.0107
 2.91525  35.4539
 2.93825  35.2326
 2.96125  35.7148
 2.98425  35.7062
 3.00725  34.9243
 3.03025  34.9309
 3.05325  34.832
 3.07625  35.1875
 3.09925  35.3567
 3.12225  34.7754
 3.14525  35.0628
 3.16825  35.4596
 3.19125  35.3575
 3.21425  34.861
 3.23725  34.6647
 3.26025  34.7148
 3.28325  34.4195
 3.30625  34.2654
 3.32925  34.3808
 3.35225  34.2749
 3.37525  34.4074
 3.39825  34.0784
 3.42125  33.5381
 3.44425  33.4858
 3.46725  33.4885
 3.49025  33.4396
 3.51325  33.0034
 3.53625  33.1463
 3.55925  33.4932
 3.58225  33.4275
 3.60525  33.1894
 3.62825  33.1299
 3.65125  33.2731
 3.67425  32.9809
 3.69725  32.8506
 3.72025  32.51
 3.74325  32.5108
 3.76625  32.4825
 3.78925  32.239
 3.81225  31.8995
 3.83525  31.9809
 3.85825  32.5542
 3.88125  33.1043
 3.90425  32.9927
 3.92725  32.659
 3.95025  32.4435
 3.97325  32.4844
 3.99625  32.3821
 4.01925  32.1707
 4.04225  32.044
 4.06525  32.191
 4.08825  32.136
 4.11125  32.1991
 4.13425  32.3752
 4.15725  32.3636
 4.18025  32.0905
 4.20325  32.2086
 4.22625  32.1089
 4.24925  31.9898
 4.27225  32.0401
 4.29525  32.0989
 4.31825  32.1224
 4.34125  32.0409
 4.36425  32.1342
 4.38725  32.0897
 4.41025  31.8867
 4.43325  31.8993
 4.45625  31.6606
 4.47925  31.9848
 4.50225  32.271
 4.52525  32.4394
 4.54825  32.2529
 4.57125  32.2932
 4.59425  32.4133
 4.61725  32.5476
 4.64025  32.8054
 4.66325  32.9495
 4.68625  32.7917
 4.70925  32.8605
 4.73225  32.7542
 4.75525  32.5992
 4.77825  32.5258
 4.80125  32.5992
 4.82425  32.5683
 4.84725  32.3596
 4.87025  32.451
 4.89325  32.3981
 4.91625  32.6614
 4.93925  32.8557
 4.96225  33.0149
 4.98525  33.1329
 5.00825  33.1819
 5.03125  33.1669
 5.05425  33.1431
 5.07725  33.2022
 5.10025  33.3576
 5.12325  33.4742
 5.14625  33.5307
 5.16925  33.6233
 5.19225  33.8499
 5.21525  33.9683
 5.23825  33.8036
 5.26125  33.7823
 5.28425  33.9142
 5.30725  33.9723
 5.33025  34.1337
 5.35325  34.2305
 5.37625  34.3496
 5.39925  34.4932
 5.42225  34.5621
 5.44525  34.7428
 5.46825  34.8832
 5.49125  34.9039
 5.51425  35.0927
 5.53725  35.1247
 5.56025  34.9757
 5.58325  35.2429
 5.60625  35.5818
 5.62925  35.6921
 5.65225  35.7042
 5.67525  35.9061
 5.69825  35.8016
 5.72125  35.9913
 5.74425  36.3179
 5.76725  36.7161
 5.79025  37.3944
 5.81325  37.8023
 5.83625  38.5836
 5.85925  39.9923
 5.88225  41.8953
 5.90525  47.5228
 5.92825  64.3792
 5.95125  121.733
 5.97425  241.147
 5.99725  266.098
 6.02025  208.347
 6.04325  71.0259
 6.06625  53.0558
 6.08925  43.3235
 6.11225  41.1853
 6.13525  39.6634
 6.15825  38.7959
 6.18125  38.6286
 6.20425  38.5165
 6.22725  38.5205
 6.25025  38.5059
 6.27325  38.461
 6.29625  38.4935
 6.31925  38.3281
 6.34225  38.3469
 6.36525  38.4955
 6.38825  38.6423
 6.41125  38.6725
 6.43425  38.843
 6.45725  38.8829
 6.48025  38.9454
 6.50325  39.0469
 6.52625  39.0899
 6.54925  39.2512
 6.57225  39.4629
 6.59525  39.7672
 6.61825  39.9133
 6.64125  40.0437
 6.66425  40.3125
 6.68725  40.2921
 6.71025  40.4389
 6.73325  40.6267
 6.75625  40.8368
 6.77925  40.9004
 6.80225  41.1501
 6.82525  41.3702
 6.84825  41.7071
 6.87125  41.9388
 6.89425  41.9906
 6.91725  42.1445
 6.94025  42.3133
 6.96325  42.3471
 6.98625  42.3328
 7.00925  42.3505
 7.03225  42.5375
 7.05525  42.675
 7.07825  42.7808
 7.10125  43.0537
 7.12425  43.1061
 7.14725  43.0468
 7.17025  43.1411
 7.19325  43.2324
 7.21625  43.2598
 7.23925  43.3797
 7.26225  43.651
 7.28525  43.7782
 7.30825  43.8605
 7.33125  43.9984
 7.35425  43.9971
 7.37725  43.9287
 7.40025  44.0896
 7.42325  44.3233
 7.44625  44.3601
 7.46925  44.1425
 7.49225  44.0452
 7.51525  44.2402
 7.53825  44.4743
 7.56125  44.587
 7.58425  44.4011
 7.60725  44.3625
 7.63025  44.3738
 7.65325  44.4052
 7.67625  44.3953
 7.69925  44.5461
 7.72225  44.3873
 7.74525  44.1765
 7.76825  44.0879
 7.79125  44.2014
 7.81425  44.2618
 7.83725  44.2191
 7.86025  44.1538
 7.88325  43.9622
 7.90625  43.8677
 7.92925  43.862
 7.95225  43.5192
 7.97525  43.3577
 7.99825  43.3883
 8.02125  43.4332
 8.04425  43.4093
 8.06725  43.1022
 8.09025  43.1894
 8.11325  43.1406
 8.13625  42.8698
 8.15925  42.6094
 8.18225  42.4066
 8.20525  42.1402
 8.22825  41.7689
 8.25125  41.5248
 8.27425  41.1731
 8.29725  40.817
 8.32025  40.5586
 8.34325  40.2228
 8.36625  39.9435
 8.38925  39.7923
 8.41225  39.5398
 8.43525  39.2257
 8.45825  38.9224
 8.48125  38.452
 8.50425  38.0115
 8.52725  37.8239
 8.55025  37.4092
 8.57325  37.132
 8.59625  36.7924
 8.61925  36.3848
 8.64225  35.9804
 8.66525  35.5137
 8.68825  35.1714
 8.71125  34.856
 8.73425  34.4335
 8.75725  34.0546
 8.78025  33.8858
 8.80325  33.6391
 8.82625  33.3471
 8.84925  32.9502
 8.87225  32.6684
 8.89525  32.4403
 8.91825  32.0482
 8.94125  31.6632
 8.96425  31.3534
 8.98725  31.042
 9.01025  30.5969
 9.03325  30.3849
 9.05625  30.2196
 9.07925  30.0854
 9.10225  29.9
 9.12525  29.6236
 9.14825  29.3516
 9.17125  29.0889
 9.19425  28.8615
 9.21725  28.6741
 9.24025  28.3502
 9.26325  28.1728
 9.28625  28.005
 9.30925  27.7944
 9.33225  27.6563
 9.35525  27.5576
 9.37825  27.4736
 9.40125  27.4027
 9.42425  27.1151
 9.44725  26.837
 9.47025  26.6723
 9.49325  26.6509
 9.51625  26.5121
 9.53925  26.3374
 9.56225  26.1017
 9.58525  25.955
 9.60825  25.9556
 9.63125  25.8048
 9.65425  25.6054
 9.67725  25.4223
 9.70025  25.385
 9.72325  25.4005
 9.74625  25.2612
 9.76925  25.1042
 9.79225  25.0174
 9.81525  25.0363
 9.83825  24.9294
 9.86125  24.8108
 9.88425  24.7114
 9.90725  24.6746
 9.93025  24.604
 9.95325  24.5053
 9.97625  24.4088
 9.99925  24.4208
 10.0222  24.3029
 10.0453  24.2867
 10.0683  24.1424
 10.0913  23.9465
 10.1143  23.8522
 10.1373  23.9026
 10.1603  23.848
 10.1832  23.8056
 10.2063  23.7596
 10.2293  23.7013
 10.2523  23.6213
 10.2752  23.6881
 10.2982  23.6533
 10.3213  23.646
 10.3443  23.7399
 10.3673  23.7323
 10.3902  23.7273
 10.4133  23.518
 10.4363  23.2696
 10.4593  23.2151
 10.4823  23.2612
 10.5053  23.2771
 10.5283  23.2866
 10.5512  23.2498
 10.5742  23.1837
 10.5973  23.1136
 10.6203  23.1279
 10.6433  23.229
 10.6662  23.2646
 10.6893  23.0879
 10.7123  23.1121
 10.7353  23.1912
 10.7583  23.4538
 10.7813  24.0181
 10.8043  24.1884
 10.8272  23.7417
 10.8503  22.914
 10.8733  22.9148
 10.8963  22.9648
 10.9192  22.9567
 10.9422  23.3211
 10.9653  22.7705
 10.9883  22.7105
 11.0113  22.6622
 11.0343  22.7112
 11.0573  22.6539
 11.0803  22.6315
 11.1033  22.7081
 11.1263  22.7996
 11.1493  22.8212
 11.1723  22.7276
 11.1953  22.5888
 11.2182  22.486
 11.2413  22.4398
 11.2643  22.4862
 11.2873  22.47
 11.3102  22.5424
 11.3333  22.5675
 11.3563  22.6562
 11.3793  22.6874
 11.4023  22.7099
 11.4253  22.8187
 11.4483  22.9188
 11.4713  23.0666
 11.4942  23.196
 11.5173  23.5122
 11.5403  24.6726
 11.5633  26.8492
 11.5862  28.2019
 11.6093  26.9716
 11.6323  24.7384
 11.6553  23.3972
 11.6783  23.0791
 11.7013  23.0048
 11.7243  22.7377
 11.7473  22.623
 11.7703  22.5484
 11.7933  22.4981
 11.8163  22.5662
 11.8393  22.6577
 11.8622  22.6132
 11.8853  22.5788
 11.9083  22.6176
 11.9313  22.735
 11.9543  22.9475
 11.9773  23.0727
 12.0003  23.0577
 12.0233  22.9299
 12.0463  22.8453
 12.0693  23.0917
 12.0923  23.653
 12.1153  23.8714
 12.1382  23.6076
 12.1613  23.061
 12.1843  22.6858
 12.2073  22.4934
 12.2302  22.4842
 12.2533  22.5966
 12.2763  22.6515
 12.2993  22.7587
 12.3223  22.7352
 12.3453  22.7134
 12.3683  22.7236
 12.3913  22.6894
 12.4142  22.5983
 12.4373  22.606
 12.4603  22.6749
 12.4833  22.7116
 12.5062  22.6367
 12.5292  22.6497
 12.5523  22.7315
 12.5753  22.7936
 12.5983  22.883
 12.6212  23.0211
 12.6443  23.009
 12.6673  22.892
 12.6903  22.9908
 12.7133  23.0901
 12.7363  23.1151
 12.7593  23.1346
 12.7822  23.157
 12.8052  23.2579
 12.8283  23.2725
 12.8513  23.2924
 12.8742  23.3746
 12.8972  23.477
 12.9203  23.5408
 12.9433  23.7202
 12.9663  23.9141
 12.9893  23.9204
 13.0123  23.8723
 13.0353  24.1148
 13.0582  24.4116
 13.0813  24.5705
 13.1043  24.871
 13.1273  25.1525
 13.1502  25.4203
 13.1732  25.6523
 13.1963  25.8304
 13.2193  26.0724
 13.2423  26.3631
 13.2652  26.5729
 13.2883  26.8462
 13.3113  27.162
 13.3343  27.5063
 13.3573  27.833
 13.3803  28.1513
 13.4033  28.4132
 13.4262  28.59
 13.4492  28.7608
 13.4723  29.0081
 13.4953  29.2816
 13.5183  29.4373
 13.5412  29.4546
 13.5643  29.6236
 13.5873  29.7121
 13.6103  29.761
 13.6333  29.762
 13.6563  29.7227
 13.6793  29.6658
 13.7022  29.5068
 13.7253  29.4806
 13.7483  29.5283
 13.7713  29.4576
 13.7942  29.3528
 13.8172  29.3547
 13.8403  29.4515
 13.8633  29.5707
 13.8863  30.067
 13.9093  31.5347
 13.9323  34.2117
 13.9553  36.5195
 13.9783  35.9436
 14.0013  33.4158
 14.0243  30.5507
 14.0473  28.8972
 14.0703  28.1291
 14.0932  27.767
 14.1163  27.5277
 14.1393  27.2317
 14.1623  26.96
 14.1852  26.7821
 14.2083  26.6565
 14.2313  26.6044
 14.2543  26.6705
 14.2773  26.7949
 14.3003  26.3554
 14.3233  26.1384
 14.3463  26.0451
 14.3692  26.0142
 14.3923  26.0647
 14.4153  26.072
 14.4383  25.9788
 14.4612  25.7893
 14.4843  25.6725
 14.5073  25.6545
 14.5303  25.657
 14.5533  25.6299
 14.5763  25.6479
 14.5993  25.4873
 14.6223  25.3978
 14.6453  25.4296
 14.6683  25.3741
 14.6913  25.3364
 14.7143  25.2916
 14.7372  25.167
 14.7603  25.1096
 14.7833  25.111
 14.8063  25.1389
 14.8293  25.1573
 14.8523  25.127
 14.8753  25.0326
 14.8983  25.0121
 14.9213  25.0186
 14.9443  25.0045
 14.9673  24.948
 14.9903  24.9498
 15.0132  24.8831
 15.0363  24.9485
 15.0593  24.9545
 15.0823  24.9509
 15.1052  24.9883
 15.1283  25.0937
 15.1513  25.3874
 15.1743  25.7501
 15.1973  25.8519
 15.2203  25.5745
 15.2433  25.1869
 15.2663  24.9329
 15.2892  24.8414
 15.3123  24.7323
 15.3353  24.6819
 15.3583  24.7111
 15.3812  24.6097
 15.4043  24.6154
 15.4273  24.5977
 15.4503  24.5252
 15.4733  24.5026
 15.4963  24.5798
 15.5193  24.7364
 15.5423  24.7532
 15.5653  24.7083
 15.5883  24.6646
 15.6113  24.5947
 15.6343  24.5799
 15.6572  24.6252
 15.6803  24.6025
 15.7033  24.5999
 15.7263  24.527
 15.7492  24.4631
 15.7723  24.4624
 15.7953  24.4752
 15.8183  24.5894
 15.8413  24.6107
 15.8643  24.6239
 15.8873  24.6636
 15.9103  24.6446
 15.9332  24.6383
 15.9563  24.6137
 15.9793  24.5377
 16.0023  24.5732
 16.0253  24.6013
 16.0482  24.8157
 16.0713  24.912
 16.0943  24.9068
 16.1172  24.9115
 16.1403  25.0127
 16.1633  25.2725
 16.1863  25.6941
 16.2093  26.6328
 16.2323  27.8864
 16.2553  28.5118
 16.2783  27.4939
 16.3012  25.9128
 16.3243  25.1056
 16.3472  24.8864
 16.3703  24.8261
 16.3933  24.8594
 16.4163  24.8912
 16.4393  24.8253
 16.4623  24.7617
 16.4853  24.7746
 16.5083  24.8007
 16.5312  24.7851
 16.5543  24.7509
 16.5773  24.7272
 16.6002  24.7605
 16.6233  24.6581
 16.6463  24.5945
 16.6693  24.6164
 16.6923  24.5553
 16.7153  24.4274
 16.7383  24.4093
 16.7613  24.56
 16.7843  24.5555
 16.8073  24.5365
 16.8303  24.4502
 16.8533  24.4194
 16.8763  24.4283
 16.8992  24.4023
 16.9223  24.4148
 16.9453  24.3988
 16.9683  24.3561
 16.9913  24.3223
 17.0143  24.226
 17.0373  24.2159
 17.0603  24.2089
 17.0832  24.259
 17.1063  24.2851
 17.1293  24.292
 17.1522  24.1981
 17.1753  24.0787
 17.1983  24.1733
 17.2213  24.2083
 17.2443  24.2058
 17.2673  24.0666
 17.2903  24.0799
 17.3133  24.174
 17.3362  24.0457
 17.3593  24.0798
 17.3823  24.1212
 17.4053  24.0482
 17.4283  24.0286
 17.4513  24.019
 17.4743  24.0374
 17.4973  24.0584
 17.5203  23.9136
 17.5433  23.8823
 17.5663  23.896
 17.5893  23.8474
 17.6123  23.9192
 17.6352  23.9402
 17.6583  23.9151
 17.6813  23.9598
 17.7042  23.9352
 17.7273  23.799
 17.7503  23.8177
 17.7733  23.8579
 17.7963  23.8267
 17.8193  23.7621
 17.8423  23.7216
 17.8653  23.754
 17.8882  23.7985
 17.9113  23.89
 17.9343  23.8943
 17.9573  23.8696
 17.9803  23.8651
 18.0033  24.0228
 18.0263  24.2147
 18.0493  24.7481
 18.0723  25.6154
 18.0953  26.046
 18.1183  25.7307
 18.1413  25.0963
 18.1643  24.4922
 18.1872  23.9798
 18.2103  23.8662
 18.2333  23.7514
 18.2563  23.688
 18.2793  23.6837
 18.3023  23.6965
 18.3253  23.6787
 18.3483  23.648
 18.3712  23.6743
 18.3943  23.7017
 18.4173  23.687
 18.4402  23.641
 18.4633  23.6246
 18.4863  23.701
 18.5093  23.8106
 18.5323  23.6803
 18.5553  23.5569
 18.5783  23.5763
 18.6013  23.6141
 18.6242  23.581
 18.6473  23.4871
 18.6703  23.5284
 18.6933  23.6526
 18.7163  23.6018
 18.7392  23.536
 18.7623  23.5087
 18.7853  23.4586
 18.8083  23.4484
 18.8313  23.5386
 18.8543  23.5459
 18.8773  23.5434
 18.9003  23.5654
 18.9232  23.6239
 18.9463  23.685
 18.9693  23.6236
 18.9922  23.5109
 19.0153  23.5522
 19.0383  23.5947
 19.0613  23.5857
 19.0843  23.4984
 19.1073  23.4982
 19.1303  23.6011
 19.1533  23.6423
 19.1762  23.6157
 19.1993  23.6538
 19.2223  23.6462
 19.2453  23.5704
 19.2683  23.5663
 19.2913  23.526
 19.3143  23.5758
 19.3373  23.5534
 19.3603  23.4988
 19.3833  23.5244
 19.4062  23.6299
 19.4293  23.6568
 19.4523  23.6453
 19.4752  23.639
 19.4983  23.6971
 19.5213  23.7139
 19.5443  23.8405
 19.5673  23.7905
 19.5903  23.7592
 19.6133  23.7877
 19.6363  24.0192
 19.6593  24.4331
 19.6823  24.9767
 19.7053  25.52
 19.7283  25.5223
 19.7513  25.1655
 19.7742  24.7504
 19.7973  24.4805
 19.8203  24.6566
 19.8433  25.5119
 19.8663  26.3613
 19.8893  26.2882
 19.9123  25.3694
 19.9353  24.4879
 19.9582  24.0537
 19.9813  23.9374
 20.0043  23.8824
 20.0272  23.7564
 20.0503  23.7844
 20.0733  23.7114
 20.0963  23.6233
 20.1193  23.6979
 20.1423  23.7148
 20.1653  23.738
 20.1883  23.7399
 20.2112  23.6993
 20.2343  23.7435
 20.2573  23.7618
 20.2803  23.7289
 20.3033  23.7744
 20.3263  23.823
 20.3493  23.7518
 20.3723  23.7205
 20.3953  23.7628
 20.4183  23.7569
 20.4413  23.8313
 20.4643  23.9006
 20.4873  23.8147
 20.5102  23.7362
 20.5333  23.7026
 20.5563  23.782
 20.5792  23.8578
 20.6023  23.9563
 20.6253  24.0159
 20.6483  24.1486
 20.6713  24.3251
 20.6943  24.9973
 20.7173  26.209
 20.7403  27.5159
 20.7632  27.7013
 20.7863  26.4819
 20.8093  25.2649
 20.8323  24.5535
 20.8553  24.3036
 20.8783  24.189
 20.9013  24.0494
 20.9243  24.0604
 20.9473  24.1354
 20.9703  24.0878
 20.9933  24.0048
 21.0163  23.9429
 21.0393  23.9694
 21.0622  23.982
 21.0853  23.9711
 21.1083  23.9647
 21.1313  23.9591
 21.1543  23.828
 21.1773  23.896
 21.2003  23.9154
 21.2233  23.9111
 21.2462  23.9994
 21.2693  24.054
 21.2923  23.9579
 21.3152  23.9489
 21.3383  23.9822
 21.3613  23.9919
 21.3843  24.0485
 21.4073  24.035
 21.4303  24.0643
 21.4533  24.1826
 21.4763  24.1454
 21.4992  24.0776
 21.5223  24.0228
 21.5453  24.095
 21.5683  23.973
 21.5913  24.0833
 21.6142  24.0688
 21.6373  24.1353
 21.6603  24.2358
 21.6833  24.3195
 21.7063  24.2895
 21.7293  24.2705
 21.7523  24.3026
 21.7753  24.2063
 21.7982  24.1364
 21.8213  24.1337
 21.8443  24.2131
 21.8672  24.2656
 21.8903  24.2902
 21.9133  24.4192
 21.9363  24.4126
 21.9593  24.3249
 21.9823  24.2332
 22.0053  24.1502
 22.0283  24.1813
 22.0512  24.2832
 22.0743  24.3215
 22.0973  24.2593
 22.1203  24.2782
 22.1433  24.2829
 22.1663  24.3118
 22.1893  24.2697
 22.2123  24.2908
 22.2353  24.3625
 22.2583  24.3953
 22.2813  24.3593
 22.3043  24.4536
 22.3273  24.471
 22.3502  24.4834
 22.3733  24.5231
 22.3963  24.5952
 22.4193  24.5484
 22.4423  24.6517
 22.4653  24.6556
 22.4883  24.72
 22.5113  24.9805
 22.5343  25.3667
 22.5573  25.4142
 22.5803  24.8834
 22.6033  24.8071
 22.6263  24.9145
 22.6493  25.0034
 22.6723  25.0454
 22.6953  25.1114
 22.7183  25.1427
 22.7413  25.2137
 22.7643  25.3214
 22.7873  25.3561
 22.8103  25.4885
 22.8333  25.57
 22.8563  25.6198
 22.8793  25.6062
 22.9022  25.6822
 22.9253  25.9842
 22.9483  26.11
 22.9713  26.272
 22.9943  26.5309