File: test-data-xrd/xrd-map-34-ID-E/Data_0035.chi
F:\20151113_APS_34IDE\\Brian\Particle1\OCV\Data_0035.tif
2-Theta Angle (Degrees)
Intensity
       2000
 0.01725  0.0000000E+00
 0.04025  0.0000000E+00
 0.06325  0.0000000E+00
 0.08625  0.0000000E+00
 0.10925  0.0000000E+00
 0.13225  0.0000000E+00
 0.15525  0.0000000E+00
 0.17825  0.0000000E+00
 0.20125  0.0000000E+00
 0.22425  0.0000000E+00
 0.24725  0.0000000E+00
 0.27025  0.0000000E+00
 0.29325  0.0000000E+00
 0.31625  0.0000000E+00
 0.33925  0.0000000E+00
 0.36225  0.0000000E+00
 0.38525  0.0000000E+00
 0.40825  0.0000000E+00
 0.43125  0.0000000E+00
 0.45425  0.0000000E+00
 0.47725  0.0000000E+00
 0.50025  0.0000000E+00
 0.52325  0.0000000E+00
 0.54625  0.0000000E+00
 0.56925  0.0000000E+00
 0.59225  0.0000000E+00
 0.61525  0.0000000E+00
 0.63825  0.0000000E+00
 0.66125  0.0000000E+00
 0.68425  0.0000000E+00
 0.70725  0.0000000E+00
 0.73025  0.0000000E+00
 0.75325  0.0000000E+00
 0.77625  0.0000000E+00
 0.79925  0.0000000E+00
 0.82225  0.0000000E+00
 0.84525  0.0000000E+00
 0.86825  0.0000000E+00
 0.89125  0.0000000E+00
 0.91425  0.0000000E+00
 0.93725  0.0000000E+00
 0.96025  0.0000000E+00
 0.98325  0.0000000E+00
 1.00625  0.0000000E+00
 1.02925  0.0000000E+00
 1.05225  0.0000000E+00
 1.07525  0.0000000E+00
 1.09825  0.0000000E+00
 1.12125  0.0000000E+00
 1.14425  0.0000000E+00
 1.16725  0.0000000E+00
 1.19025  0.0000000E+00
 1.21325  0.0000000E+00
 1.23625  0.0000000E+00
 1.25925  0.0000000E+00
 1.28225  0.0000000E+00
 1.30525  0.0000000E+00
 1.32825  0.0000000E+00
 1.35125  0.0000000E+00
 1.37425  0.0000000E+00
 1.39725  0.0000000E+00
 1.42025  0.0000000E+00
 1.44325  0.0000000E+00
 1.46625  0.0000000E+00
 1.48925  0.0000000E+00
 1.51225  0.0000000E+00
 1.53525  0.0000000E+00
 1.55825  0.0000000E+00
 1.58125  0.0000000E+00
 1.60425  0.0000000E+00
 1.62725  0.0000000E+00
 1.65025  0.0000000E+00
 1.67325  0.0000000E+00
 1.69625  0.0000000E+00
 1.71925  0.0000000E+00
 1.74225  0.0000000E+00
 1.76525  0.0000000E+00
 1.78825  0.0000000E+00
 1.81125  0.0000000E+00
 1.83425  0.0000000E+00
 1.85725  0.0000000E+00
 1.88025  0.0000000E+00
 1.90325  0.0000000E+00
 1.92625  0.0000000E+00
 1.94925  0.0000000E+00
 1.97225  0.0000000E+00
 1.99525  0.0000000E+00
 2.01825  0.0000000E+00
 2.04125  0.0000000E+00
 2.06425  0.0000000E+00
 2.08725  0.0000000E+00
 2.11025  0.0000000E+00
 2.13325  0.0000000E+00
 2.15625  0.0000000E+00
 2.17925  0.0000000E+00
 2.20225  0.0000000E+00
 2.22525  0.0000000E+00
 2.24825  0.0000000E+00
 2.27125  0.0000000E+00
 2.29425  0.0000000E+00
 2.31725  0.0000000E+00
 2.34025  0.0000000E+00
 2.36325  0.0000000E+00
 2.38625  0.0000000E+00
 2.40925  0.0000000E+00
 2.43225  0.0000000E+00
 2.45525  0.0000000E+00
 2.47825  0.0000000E+00
 2.50125  0.0000000E+00
 2.52425  0.0000000E+00
 2.54725  0.0000000E+00
 2.57025  0.0000000E+00
 2.59325  0.0000000E+00
 2.61625  0.0000000E+00
 2.63925  0.0000000E+00
 2.66225  0.0000000E+00
 2.68525  0.0000000E+00
 2.70825  0.0000000E+00
 2.73125  0.0000000E+00
 2.75425  0.0000000E+00
 2.77725  0.0000000E+00
 2.80025  0.0000000E+00
 2.82325  35.1408
 2.84625  35.4187
 2.86925  35.3214
 2.89225  35.2533
 2.91525  34.9572
 2.93825  35.6044
 2.96125  35.6267
 2.98425  34.571
 3.00725  34.9968
 3.03025  35.0528
 3.05325  34.3142
 3.07625  34.5911
 3.09925  34.9315
 3.12225  35.1792
 3.14525  35.9741
 3.16825  36.1499
 3.19125  35.855
 3.21425  35.089
 3.23725  35.3072
 3.26025  34.8489
 3.28325  34.4448
 3.30625  34.4909
 3.32925  34.8089
 3.35225  34.8208
 3.37525  34.2603
 3.39825  34.0686
 3.42125  33.9655
 3.44425  34.0658
 3.46725  34.583
 3.49025  34.8931
 3.51325  34.4538
 3.53625  34.1489
 3.55925  34.0447
 3.58225  33.7158
 3.60525  33.4444
 3.62825  33.1945
 3.65125  32.8963
 3.67425  32.9347
 3.69725  32.7609
 3.72025  32.7248
 3.74325  32.9647
 3.76625  33.0484
 3.78925  32.8372
 3.81225  32.9152
 3.83525  33.0589
 3.85825  33.2479
 3.88125  33.1404
 3.90425  32.9091
 3.92725  32.4471
 3.95025  32.6558
 3.97325  32.9695
 3.99625  32.9353
 4.01925  32.5249
 4.04225  32.5264
 4.06525  32.2843
 4.08825  32.068
 4.11125  32.018
 4.13425  31.9791
 4.15725  32.0089
 4.18025  32.0326
 4.20325  32.2168
 4.22625  32.3662
 4.24925  32.3404
 4.27225  32.37
 4.29525  32.2336
 4.31825  32.1763
 4.34125  32.2268
 4.36425  32.4433
 4.38725  32.5351
 4.41025  32.5942
 4.43325  32.7826
 4.45625  32.508
 4.47925  32.3876
 4.50225  32.3713
 4.52525  32.7128
 4.54825  32.9244
 4.57125  32.7456
 4.59425  32.6364
 4.61725  32.4849
 4.64025  32.5358
 4.66325  32.7168
 4.68625  32.8044
 4.70925  32.9043
 4.73225  32.8309
 4.75525  32.6867
 4.77825  32.4735
 4.80125  32.5112
 4.82425  32.6727
 4.84725  32.772
 4.87025  33.2014
 4.89325  33.3134
 4.91625  33.1695
 4.93925  33.1515
 4.96225  33.1846
 4.98525  33.0919
 5.00825  33.0735
 5.03125  33.2742
 5.05425  33.3797
 5.07725  33.4703
 5.10025  33.691
 5.12325  33.7458
 5.14625  33.7301
 5.16925  33.8464
 5.19225  34.0737
 5.21525  34.1191
 5.23825  34.0209
 5.26125  33.9598
 5.28425  33.8807
 5.30725  34.0452
 5.33025  34.1407
 5.35325  34.2883
 5.37625  34.3429
 5.39925  34.4878
 5.42225  34.6468
 5.44525  34.7077
 5.46825  34.8314
 5.49125  34.8353
 5.51425  34.8774
 5.53725  34.9609
 5.56025  35.1061
 5.58325  35.2611
 5.60625  35.3867
 5.62925  35.5365
 5.65225  35.4472
 5.67525  35.5114
 5.69825  35.6893
 5.72125  35.7419
 5.74425  35.7773
 5.76725  35.682
 5.79025  35.8195
 5.81325  36.0258
 5.83625  36.2399
 5.85925  36.5068
 5.88225  37.0576
 5.90525  38.3489
 5.92825  41.1875
 5.95125  49.7352
 5.97425  60.0691
 5.99725  59.425
 6.02025  50.8438
 6.04325  42.0607
 6.06625  39.8364
 6.08925  37.9052
 6.11225  37.5716
 6.13525  37.4701
 6.15825  37.3107
 6.18125  37.2001
 6.20425  37.2667
 6.22725  37.3869
 6.25025  37.5911
 6.27325  37.7359
 6.29625  37.8671
 6.31925  37.9149
 6.34225  38.1131
 6.36525  38.2201
 6.38825  38.2613
 6.41125  38.5712
 6.43425  38.7514
 6.45725  38.8434
 6.48025  38.9271
 6.50325  39.1938
 6.52625  39.4209
 6.54925  39.7222
 6.57225  39.9104
 6.59525  39.8607
 6.61825  39.8709
 6.64125  39.9674
 6.66425  40.1173
 6.68725  40.2765
 6.71025  40.4886
 6.73325  40.6028
 6.75625  40.7972
 6.77925  40.9565
 6.80225  41.1608
 6.82525  41.4746
 6.84825  41.591
 6.87125  41.7692
 6.89425  41.8999
 6.91725  42.1319
 6.94025  42.284
 6.96325  42.3008
 6.98625  42.3662
 7.00925  42.3318
 7.03225  42.4338
 7.05525  42.579
 7.07825  42.6342
 7.10125  42.7501
 7.12425  43.0819
 7.14725  43.1511
 7.17025  43.2436
 7.19325  43.3715
 7.21625  43.4536
 7.23925  43.5106
 7.26225  43.5528
 7.28525  43.7396
 7.30825  43.8003
 7.33125  43.8875
 7.35425  43.937
 7.37725  43.8756
 7.40025  43.9559
 7.42325  44.1975
 7.44625  44.2135
 7.46925  44.2049
 7.49225  44.0761
 7.51525  44.2069
 7.53825  44.367
 7.56125  44.5108
 7.58425  44.6334
 7.60725  44.5637
 7.63025  44.5689
 7.65325  44.4741
 7.67625  44.3347
 7.69925  44.3493
 7.72225  44.5443
 7.74525  44.5262
 7.76825  44.3255
 7.79125  44.3623
 7.81425  44.4583
 7.83725  44.5289
 7.86025  44.4249
 7.88325  44.1171
 7.90625  43.9216
 7.92925  43.8563
 7.95225  43.8768
 7.97525  43.8261
 7.99825  43.7489
 8.02125  43.5481
 8.04425  43.4344
 8.06725  43.2291
 8.09025  43.0492
 8.11325  42.93
 8.13625  42.7247
 8.15925  42.4239
 8.18225  42.2878
 8.20525  42.0326
 8.22825  41.7845
 8.25125  41.6127
 8.27425  41.3203
 8.29725  40.9609
 8.32025  40.7186
 8.34325  40.4008
 8.36625  40.0336
 8.38925  39.803
 8.41225  39.6346
 8.43525  39.2803
 8.45825  38.8753
 8.48125  38.5772
 8.50425  38.289
 8.52725  37.9425
 8.55025  37.5532
 8.57325  37.0781
 8.59625  36.6902
 8.61925  36.2961
 8.64225  35.9483
 8.66525  35.6278
 8.68825  35.2772
 8.71125  34.8543
 8.73425  34.4699
 8.75725  34.1031
 8.78025  33.9513
 8.80325  33.6144
 8.82625  33.3782
 8.84925  33.1206
 8.87225  32.8408
 8.89525  32.7227
 8.91825  32.5026
 8.94125  31.9922
 8.96425  31.6744
 8.98725  31.2247
 9.01025  30.8728
 9.03325  30.6033
 9.05625  30.3678
 9.07925  30.1144
 9.10225  29.7961
 9.12525  29.4212
 9.14825  29.2441
 9.17125  29.2288
 9.19425  28.9975
 9.21725  28.682
 9.24025  28.4447
 9.26325  28.2366
 9.28625  27.9417
 9.30925  27.8418
 9.33225  27.7215
 9.35525  27.4949
 9.37825  27.345
 9.40125  26.9944
 9.42425  26.7889
 9.44725  26.6777
 9.47025  26.6174
 9.49325  26.4855
 9.51625  26.3634
 9.53925  26.2701
 9.56225  26.1624
 9.58525  26.0481
 9.60825  26.0829
 9.63125  25.9624
 9.65425  25.8568
 9.67725  25.6605
 9.70025  25.4954
 9.72325  25.4149
 9.74625  25.2817
 9.76925  25.2401
 9.79225  25.1136
 9.81525  24.98
 9.83825  24.8857
 9.86125  24.831
 9.88425  24.7724
 9.90725  24.7441
 9.93025  24.5569
 9.95325  24.4482
 9.97625  24.4892
 9.99925  24.5006
 10.0222  24.3534
 10.0453  24.2363
 10.0683  24.2334
 10.0913  24.1796
 10.1143  24.2189
 10.1373  24.0819
 10.1603  23.9267
 10.1832  23.8232
 10.2063  23.8325
 10.2293  23.8195
 10.2523  23.7089
 10.2752  23.6606
 10.2982  23.7563
 10.3213  23.8196
 10.3443  23.6804
 10.3673  23.5181
 10.3902  23.4645
 10.4133  23.4554
 10.4363  23.3463
 10.4593  23.347
 10.4823  23.4674
 10.5053  23.3716
 10.5283  23.172
 10.5512  23.1234
 10.5742  23.2152
 10.5973  23.1254
 10.6203  23.1349
 10.6433  23.122
 10.6662  23.1657
 10.6893  23.0589
 10.7123  23.1005
 10.7353  23.0613
 10.7583  23.0316
 10.7813  23.0387
 10.8043  22.9784
 10.8272  22.8847
 10.8503  22.8092
 10.8733  22.8251
 10.8963  22.7552
 10.9192  22.7847
 10.9422  22.7524
 10.9653  22.8087
 10.9883  22.9861
 11.0113  22.9604
 11.0343  22.8761
 11.0573  22.8617
 11.0803  22.9999
 11.1033  23.0978
 11.1263  23.2262
 11.1493  23.1512
 11.1723  22.9681
 11.1953  22.7708
 11.2182  22.7903
 11.2413  22.83
 11.2643  22.8244
 11.2873  22.794
 11.3102  22.85
 11.3333  22.9531
 11.3563  22.946
 11.3793  23.0287
 11.4023  23.143
 11.4253  23.1977
 11.4483  23.3391
 11.4713  23.4972
 11.4942  23.9044
 11.5173  25.3211
 11.5403  29.3011
 11.5633  36.4723
 11.5862  40.7422
 11.6093  37.9537
 11.6323  30.9994
 11.6553  26.0757
 11.6783  24.2214
 11.7013  23.8058
 11.7243  23.542
 11.7473  23.2689
 11.7703  23.0518
 11.7933  22.8591
 11.8163  22.7675
 11.8393  22.837
 11.8622  22.7647
 11.8853  22.7842
 11.9083  22.8747
 11.9313  23.1136
 11.9543  23.6304
 11.9773  24.4871
 12.0003  24.8048
 12.0233  24.311
 12.0463  23.764
 12.0693  23.8292
 12.0923  24.5568
 12.1153  25.1348
 12.1382  24.8097
 12.1613  23.8678
 12.1843  23.1486
 12.2073  22.8632
 12.2302  22.7169
 12.2533  22.6437
 12.2763  22.6751
 12.2993  22.7084
 12.3223  22.6823
 12.3453  22.6519
 12.3683  22.6918
 12.3913  22.6462
 12.4142  22.6031
 12.4373  22.629
 12.4603  22.7569
 12.4833  22.7597
 12.5062  22.7356
 12.5292  22.7356
 12.5523  22.7949
 12.5753  22.8329
 12.5983  22.9071
 12.6212  22.9491
 12.6443  23.0144
 12.6673  22.9695
 12.6903  22.9047
 12.7133  23.0477
 12.7363  23.1923
 12.7593  23.2373
 12.7822  23.2709
 12.8052  23.3149
 12.8283  23.3041
 12.8513  23.2789
 12.8742  23.4341
 12.8972  23.5441
 12.9203  23.6568
 12.9433  23.867
 12.9663  23.9156
 12.9893  23.9974
 13.0123  24.1619
 13.0353  24.398
 13.0582  24.5613
 13.0813  24.6647
 13.1043  24.8433
 13.1273  25.1319
 13.1502  25.4118
 13.1732  25.6044
 13.1963  25.8657
 13.2193  26.0786
 13.2423  26.3482
 13.2652  26.7051
 13.2883  27.0928
 13.3113  27.318
 13.3343  27.5608
 13.3573  27.8562
 13.3803  28.1826
 13.4033  28.5404
 13.4262  28.6975
 13.4492  28.8533
 13.4723  29.1334
 13.4953  29.5213
 13.5183  29.783
 13.5412  29.9818
 13.5643  30.1039
 13.5873  30.253
 13.6103  30.2625
 13.6333  30.2269
 13.6563  30.2608
 13.6793  30.4456
 13.7022  30.6152
 13.7253  30.7367
 13.7483  30.8285
 13.7713  31.0107
 13.7942  31.2773
 13.8172  31.5189
 13.8403  32.1227
 13.8633  33.9517
 13.8863  40.4842
 13.9093  59.3238
 13.9323  87.5777
 13.9553  97.8893
 13.9783  79.21
 14.0013  52.5447
 14.0243  37.0623
 14.0473  32.122
 14.0703  30.4794
 14.0932  29.5678
 14.1163  28.9125
 14.1393  28.4915
 14.1623  28.1612
 14.1852  27.8562
 14.2083  27.5691
 14.2313  27.3178
 14.2543  27.07
 14.2773  26.9359
 14.3003  26.8156
 14.3233  26.6077
 14.3463  26.4133
 14.3692  26.2814
 14.3923  26.2446
 14.4153  26.285
 14.4383  26.21
 14.4612  26.0877
 14.4843  25.9517
 14.5073  25.9419
 14.5303  25.857
 14.5533  25.7734
 14.5763  25.7419
 14.5993  25.6474
 14.6223  25.4949
 14.6453  25.4682
 14.6683  25.4375
 14.6913  25.4006
 14.7143  25.3527
 14.7372  25.1865
 14.7603  25.1236
 14.7833  25.1068
 14.8063  25.1499
 14.8293  25.2164
 14.8523  25.2289
 14.8753  25.0953
 14.8983  25.1805
 14.9213  25.1554
 14.9443  25.0676
 14.9673  24.95
 14.9903  24.9342
 15.0132  25.0588
 15.0363  25.026
 15.0593  25.0006
 15.0823  25.1167
 15.1052  25.2879
 15.1283  25.5725
 15.1513  26.3471
 15.1743  27.4969
 15.1973  28.5095
 15.2203  27.9256
 15.2433  26.6514
 15.2663  25.5429
 15.2892  25.0314
 15.3123  24.8988
 15.3353  24.8332
 15.3583  24.7971
 15.3812  24.7945
 15.4043  24.7728
 15.4273  24.798
 15.4503  24.7015
 15.4733  24.6453
 15.4963  24.5791
 15.5193  24.5185
 15.5423  24.4832
 15.5653  24.6289
 15.5883  24.741
 15.6113  24.6728
 15.6343  24.6443
 15.6572  24.6962
 15.6803  24.735
 15.7033  24.7654
 15.7263  24.6746
 15.7492  24.6171
 15.7723  24.6421
 15.7953  24.7222
 15.8183  24.7592
 15.8413  24.7166
 15.8643  24.7235
 15.8873  24.8175
 15.9103  24.8789
 15.9332  24.871
 15.9563  24.6958
 15.9793  24.6798
 16.0023  24.7071
 16.0253  24.7511
 16.0482  24.7827
 16.0713  24.7743
 16.0943  24.7681
 16.1172  24.8684
 16.1403  24.9471
 16.1633  25.1664
 16.1863  25.4808
 16.2093  26.1644
 16.2323  27.0502
 16.2553  27.6003
 16.2783  27.0638
 16.3012  25.9074
 16.3243  25.2453
 16.3472  24.9824
 16.3703  24.8285
 16.3933  24.8033
 16.4163  24.8971
 16.4393  24.8658
 16.4623  24.7981
 16.4853  24.7071
 16.5083  24.6525
 16.5312  24.5386
 16.5543  24.629
 16.5773  24.6745
 16.6002  24.6566
 16.6233  24.6222
 16.6463  24.5643
 16.6693  24.644
 16.6923  24.6682
 16.7153  24.6074
 16.7383  24.604
 16.7613  24.6113
 16.7843  24.5304
 16.8073  24.524
 16.8303  24.521
 16.8533  24.4942
 16.8763  24.46
 16.8992  24.3568
 16.9223  24.3772
 16.9453  24.3811
 16.9683  24.3588
 16.9913  24.4418
 17.0143  24.435
 17.0373  24.3631
 17.0603  24.2823
 17.0832  24.3496
 17.1063  24.3946
 17.1293  24.3251
 17.1522  24.2349
 17.1753  24.2639
 17.1983  24.2668
 17.2213  24.2013
 17.2443  24.2673
 17.2673  24.2733
 17.2903  24.2507
 17.3133  24.1535
 17.3362  24.1978
 17.3593  24.1891
 17.3823  24.0732
 17.4053  23.9968
 17.4283  24.0187
 17.4513  23.9751
 17.4743  24.0247
 17.4973  23.9923
 17.5203  23.9865
 17.5433  24.1084
 17.5663  24.0821
 17.5893  23.9782
 17.6123  23.9783
 17.6352  24.0612
 17.6583  24.0442
 17.6813  24.1014
 17.7042  24.0712
 17.7273  23.9717
 17.7503  23.8504
 17.7733  23.9105
 17.7963  24.0343
 17.8193  24.0151
 17.8423  23.8762
 17.8653  23.8835
 17.8882  23.8227
 17.9113  23.9156
 17.9343  24.0001
 17.9573  24.0203
 17.9803  24.1801
 18.0033  24.4975
 18.0263  24.897
 18.0493  25.5428
 18.0723  26.4149
 18.0953  28.0136
 18.1183  28.8675
 18.1413  26.9784
 18.1643  25.329
 18.1872  24.4233
 18.2103  24.1227
 18.2333  23.9621
 18.2563  23.9285
 18.2793  23.9561
 18.3023  23.925
 18.3253  23.7893
 18.3483  23.7364
 18.3712  23.7641
 18.3943  23.8279
 18.4173  23.8496
 18.4402  23.753
 18.4633  23.6607
 18.4863  23.6263
 18.5093  23.6041
 18.5323  23.5221
 18.5553  23.5101
 18.5783  23.6529
 18.6013  23.7597
 18.6242  23.6505
 18.6473  23.5289
 18.6703  23.437
 18.6933  23.569
 18.7163  23.6492
 18.7392  23.6602
 18.7623  23.5314
 18.7853  23.5029
 18.8083  23.5336
 18.8313  23.5405
 18.8543  23.5443
 18.8773  23.5703
 18.9003  23.5563
 18.9232  23.55
 18.9463  23.65
 18.9693  23.6267
 18.9922  23.5136
 19.0153  23.5969
 19.0383  23.6575
 19.0613  23.7433
 19.0843  23.7614
 19.1073  23.7027
 19.1303  23.697
 19.1533  23.7331
 19.1762  23.6994
 19.1993  23.6482
 19.2223  23.5749
 19.2453  23.6364
 19.2683  23.6466
 19.2913  23.6975
 19.3143  23.7645
 19.3373  23.7858
 19.3603  23.8261
 19.3833  23.7807
 19.4062  23.8048
 19.4293  23.7963
 19.4523  23.7338
 19.4752  23.7773
 19.4983  23.7718
 19.5213  23.8647
 19.5443  23.9586
 19.5673  24.0498
 19.5903  23.9894
 19.6133  24.0825
 19.6363  24.3746
 19.6593  25.1456
 19.6823  25.8595
 19.7053  26.3303
 19.7283  26.4754
 19.7513  26.1687
 19.7742  25.7492
 19.7973  26.1423
 19.8203  29.1257
 19.8433  33.0546
 19.8663  32.123
 19.8893  29.4332
 19.9123  26.5313
 19.9353  24.8895
 19.9582  24.3311
 19.9813  24.1488
 20.0043  24.0956
 20.0272  24.0576
 20.0503  24.057
 20.0733  23.991
 20.0963  23.9039
 20.1193  23.8633
 20.1423  23.842
 20.1653  23.9588
 20.1883  23.98
 20.2112  23.8287
 20.2343  23.8125
 20.2573  23.8547
 20.2803  23.8664
 20.3033  23.8042
 20.3263  23.7846
 20.3493  23.848
 20.3723  23.7553
 20.3953  23.7378
 20.4183  23.7988
 20.4413  23.7832
 20.4643  23.8105
 20.4873  23.8114
 20.5102  23.8067
 20.5333  23.7273
 20.5563  23.7601
 20.5792  23.8809
 20.6023  24.0344
 20.6253  24.1358
 20.6483  24.1024
 20.6713  24.0653
 20.6943  24.3877
 20.7173  25.0446
 20.7403  25.9948
 20.7632  26.8778
 20.7863  26.6839
 20.8093  25.57
 20.8323  24.669
 20.8553  24.2852
 20.8783  24.1743
 20.9013  24.1725
 20.9243  24.2289
 20.9473  24.4588
 20.9703  24.3022
 20.9933  24.1362
 21.0163  24.0608
 21.0393  24.0975
 21.0622  24.0872
 21.0853  24.1262
 21.1083  24.0323
 21.1313  24.054
 21.1543  23.9619
 21.1773  24.0329
 21.2003  24.077
 21.2233  24.0448
 21.2462  23.9928
 21.2693  24.0164
 21.2923  24.0711
 21.3152  24.0552
 21.3383  24.0324
 21.3613  24.1242
 21.3843  24.0622
 21.4073  24.0417
 21.4303  24.0974
 21.4533  24.0765
 21.4763  24.055
 21.4992  24.1211
 21.5223  24.1664
 21.5453  24.1618
 21.5683  24.0799
 21.5913  24.113
 21.6142  24.218
 21.6373  24.3221
 21.6603  24.2665
 21.6833  24.2024
 21.7063  24.2282
 21.7293  24.2795
 21.7523  24.2864
 21.7753  24.1941
 21.7982  24.1982
 21.8213  24.2619
 21.8443  24.2331
 21.8672  24.1844
 21.8903  24.2173
 21.9133  24.2402
 21.9363  24.2461
 21.9593  24.2423
 21.9823  24.2821
 22.0053  24.3017
 22.0283  24.388
 22.0512  24.4178
 22.0743  24.3824
 22.0973  24.311
 22.1203  24.3145
 22.1433  24.4239
 22.1663  24.4485
 22.1893  24.4251
 22.2123  24.4803
 22.2353  24.6147
 22.2583  24.5839
 22.2813  24.4923
 22.3043  24.615
 22.3273  24.5996
 22.3502  24.6246
 22.3733  24.6601
 22.3963  24.6916
 22.4193  24.6537
 22.4423  24.6927
 22.4653  24.8268
 22.4883  24.8684
 22.5113  24.9472
 22.5343  24.9229
 22.5573  24.9165
 22.5803  24.9033
 22.6033  24.9977
 22.6263  25.1251
 22.6493  25.0857
 22.6723  25.122
 22.6953  25.2607
 22.7183  25.298
 22.7413  25.2486
 22.7643  25.3033
 22.7873  25.4277
 22.8103  25.557
 22.8333  25.5989
 22.8563  25.5901
 22.8793  25.6887
 22.9022  25.7847
 22.9253  25.9644
 22.9483  26.0762
 22.9713  26.1407
 22.9943  26.3335