File: test-data-xrd/xrd-map-34-ID-E/Data_0095.chi
F:\20151113_APS_34IDE\\Brian\Particle1\OCV\Data_0095.tif
2-Theta Angle (Degrees)
Intensity
       2000
 0.01725  0.0000000E+00
 0.04025  0.0000000E+00
 0.06325  0.0000000E+00
 0.08625  0.0000000E+00
 0.10925  0.0000000E+00
 0.13225  0.0000000E+00
 0.15525  0.0000000E+00
 0.17825  0.0000000E+00
 0.20125  0.0000000E+00
 0.22425  0.0000000E+00
 0.24725  0.0000000E+00
 0.27025  0.0000000E+00
 0.29325  0.0000000E+00
 0.31625  0.0000000E+00
 0.33925  0.0000000E+00
 0.36225  0.0000000E+00
 0.38525  0.0000000E+00
 0.40825  0.0000000E+00
 0.43125  0.0000000E+00
 0.45425  0.0000000E+00
 0.47725  0.0000000E+00
 0.50025  0.0000000E+00
 0.52325  0.0000000E+00
 0.54625  0.0000000E+00
 0.56925  0.0000000E+00
 0.59225  0.0000000E+00
 0.61525  0.0000000E+00
 0.63825  0.0000000E+00
 0.66125  0.0000000E+00
 0.68425  0.0000000E+00
 0.70725  0.0000000E+00
 0.73025  0.0000000E+00
 0.75325  0.0000000E+00
 0.77625  0.0000000E+00
 0.79925  0.0000000E+00
 0.82225  0.0000000E+00
 0.84525  0.0000000E+00
 0.86825  0.0000000E+00
 0.89125  0.0000000E+00
 0.91425  0.0000000E+00
 0.93725  0.0000000E+00
 0.96025  0.0000000E+00
 0.98325  0.0000000E+00
 1.00625  0.0000000E+00
 1.02925  0.0000000E+00
 1.05225  0.0000000E+00
 1.07525  0.0000000E+00
 1.09825  0.0000000E+00
 1.12125  0.0000000E+00
 1.14425  0.0000000E+00
 1.16725  0.0000000E+00
 1.19025  0.0000000E+00
 1.21325  0.0000000E+00
 1.23625  0.0000000E+00
 1.25925  0.0000000E+00
 1.28225  0.0000000E+00
 1.30525  0.0000000E+00
 1.32825  0.0000000E+00
 1.35125  0.0000000E+00
 1.37425  0.0000000E+00
 1.39725  0.0000000E+00
 1.42025  0.0000000E+00
 1.44325  0.0000000E+00
 1.46625  0.0000000E+00
 1.48925  0.0000000E+00
 1.51225  0.0000000E+00
 1.53525  0.0000000E+00
 1.55825  0.0000000E+00
 1.58125  0.0000000E+00
 1.60425  0.0000000E+00
 1.62725  0.0000000E+00
 1.65025  0.0000000E+00
 1.67325  0.0000000E+00
 1.69625  0.0000000E+00
 1.71925  0.0000000E+00
 1.74225  0.0000000E+00
 1.76525  0.0000000E+00
 1.78825  0.0000000E+00
 1.81125  0.0000000E+00
 1.83425  0.0000000E+00
 1.85725  0.0000000E+00
 1.88025  0.0000000E+00
 1.90325  0.0000000E+00
 1.92625  0.0000000E+00
 1.94925  0.0000000E+00
 1.97225  0.0000000E+00
 1.99525  0.0000000E+00
 2.01825  0.0000000E+00
 2.04125  0.0000000E+00
 2.06425  0.0000000E+00
 2.08725  0.0000000E+00
 2.11025  0.0000000E+00
 2.13325  0.0000000E+00
 2.15625  0.0000000E+00
 2.17925  0.0000000E+00
 2.20225  0.0000000E+00
 2.22525  0.0000000E+00
 2.24825  0.0000000E+00
 2.27125  0.0000000E+00
 2.29425  0.0000000E+00
 2.31725  0.0000000E+00
 2.34025  0.0000000E+00
 2.36325  0.0000000E+00
 2.38625  0.0000000E+00
 2.40925  0.0000000E+00
 2.43225  0.0000000E+00
 2.45525  0.0000000E+00
 2.47825  0.0000000E+00
 2.50125  0.0000000E+00
 2.52425  0.0000000E+00
 2.54725  0.0000000E+00
 2.57025  0.0000000E+00
 2.59325  0.0000000E+00
 2.61625  0.0000000E+00
 2.63925  0.0000000E+00
 2.66225  0.0000000E+00
 2.68525  0.0000000E+00
 2.70825  0.0000000E+00
 2.73125  0.0000000E+00
 2.75425  0.0000000E+00
 2.77725  0.0000000E+00
 2.80025  0.0000000E+00
 2.82325  36.4337
 2.84625  35.1744
 2.86925  36.163
 2.89225  36.8826
 2.91525  36.8727
 2.93825  36.9558
 2.96125  36.9809
 2.98425  36.0268
 3.00725  35.9284
 3.03025  35.764
 3.05325  35.8024
 3.07625  35.7591
 3.09925  36.1605
 3.12225  36.4531
 3.14525  35.9236
 3.16825  35.5842
 3.19125  35.0678
 3.21425  34.8874
 3.23725  34.3735
 3.26025  33.9678
 3.28325  33.8016
 3.30625  33.8394
 3.32925  33.7879
 3.35225  34.1125
 3.37525  35.1009
 3.39825  35.0072
 3.42125  34.9471
 3.44425  35.0365
 3.46725  34.931
 3.49025  34.2997
 3.51325  33.7629
 3.53625  33.8051
 3.55925  34.0498
 3.58225  33.7573
 3.60525  33.4728
 3.62825  33.4861
 3.65125  33.5144
 3.67425  33.2832
 3.69725  32.6874
 3.72025  33.0631
 3.74325  33.3753
 3.76625  33.4258
 3.78925  33.3309
 3.81225  33.1116
 3.83525  33.0609
 3.85825  33.1178
 3.88125  33.1282
 3.90425  32.6803
 3.92725  32.304
 3.95025  32.2634
 3.97325  32.3692
 3.99625  32.5995
 4.01925  32.6964
 4.04225  32.6657
 4.06525  32.7997
 4.08825  32.5078
 4.11125  32.3185
 4.13425  32.6836
 4.15725  32.7597
 4.18025  32.2585
 4.20325  31.9007
 4.22625  31.915
 4.24925  32.0759
 4.27225  32.071
 4.29525  32.0296
 4.31825  32.0048
 4.34125  32.0844
 4.36425  32.2936
 4.38725  32.4337
 4.41025  32.6168
 4.43325  32.4287
 4.45625  32.285
 4.47925  32.553
 4.50225  32.8673
 4.52525  32.9257
 4.54825  32.5772
 4.57125  32.6121
 4.59425  32.7901
 4.61725  32.8207
 4.64025  32.7707
 4.66325  32.9569
 4.68625  32.9284
 4.70925  33.0634
 4.73225  33.042
 4.75525  32.9812
 4.77825  32.8725
 4.80125  32.5545
 4.82425  32.5357
 4.84725  32.6591
 4.87025  32.9198
 4.89325  32.8126
 4.91625  33.0662
 4.93925  33.3195
 4.96225  33.4159
 4.98525  33.3352
 5.00825  33.4116
 5.03125  33.3044
 5.05425  33.2807
 5.07725  33.2827
 5.10025  33.5044
 5.12325  33.6441
 5.14625  33.7196
 5.16925  33.7439
 5.19225  34.0793
 5.21525  34.2462
 5.23825  34.212
 5.26125  34.0176
 5.28425  33.8709
 5.30725  34.0517
 5.33025  34.2206
 5.35325  34.3299
 5.37625  34.4419
 5.39925  34.4104
 5.42225  34.2693
 5.44525  34.4461
 5.46825  34.7041
 5.49125  34.7996
 5.51425  34.8879
 5.53725  34.99
 5.56025  34.9627
 5.58325  35.1333
 5.60625  35.2058
 5.62925  35.328
 5.65225  35.6616
 5.67525  35.9511
 5.69825  35.812
 5.72125  35.7942
 5.74425  35.865
 5.76725  35.9527
 5.79025  35.954
 5.81325  35.9855
 5.83625  36.212
 5.85925  36.2495
 5.88225  36.4979
 5.90525  37.2691
 5.92825  38.9624
 5.95125  43.7762
 5.97425  50.0198
 5.99725  51.941
 6.02025  47.339
 6.04325  41.3956
 6.06625  38.529
 6.08925  37.509
 6.11225  37.2526
 6.13525  37.1484
 6.15825  36.9958
 6.18125  37.1188
 6.20425  37.039
 6.22725  37.2348
 6.25025  37.4181
 6.27325  37.6047
 6.29625  37.7557
 6.31925  37.7345
 6.34225  38.0385
 6.36525  38.3451
 6.38825  38.6123
 6.41125  38.6784
 6.43425  38.8119
 6.45725  38.9273
 6.48025  39.0025
 6.50325  39.1278
 6.52625  39.4526
 6.54925  39.6071
 6.57225  39.6208
 6.59525  39.7457
 6.61825  39.9103
 6.64125  40.1343
 6.66425  40.2396
 6.68725  40.321
 6.71025  40.419
 6.73325  40.4985
 6.75625  40.8146
 6.77925  41.0966
 6.80225  41.3668
 6.82525  41.6462
 6.84825  41.8954
 6.87125  41.9244
 6.89425  41.9392
 6.91725  41.9733
 6.94025  42.0292
 6.96325  42.0881
 6.98625  42.4192
 7.00925  42.7936
 7.03225  43.0253
 7.05525  43.1044
 7.07825  43.2392
 7.10125  43.3933
 7.12425  43.3675
 7.14725  43.3638
 7.17025  43.4005
 7.19325  43.6059
 7.21625  43.7556
 7.23925  43.8133
 7.26225  43.9189
 7.28525  43.9299
 7.30825  43.9007
 7.33125  44.0371
 7.35425  44.2488
 7.37725  44.1597
 7.40025  44.0401
 7.42325  44.1671
 7.44625  44.2902
 7.46925  44.3808
 7.49225  44.5679
 7.51525  44.6432
 7.53825  44.4485
 7.56125  44.2375
 7.58425  44.2279
 7.60725  44.472
 7.63025  44.5338
 7.65325  44.6637
 7.67625  44.5234
 7.69925  44.2076
 7.72225  44.2714
 7.74525  44.3804
 7.76825  44.494
 7.79125  44.4386
 7.81425  44.4713
 7.83725  44.3439
 7.86025  44.1783
 7.88325  44.0592
 7.90625  43.9734
 7.92925  43.9559
 7.95225  43.8596
 7.97525  43.7389
 7.99825  43.8404
 8.02125  43.745
 8.04425  43.5932
 8.06725  43.1822
 8.09025  42.98
 8.11325  42.856
 8.13625  42.3932
 8.15925  42.1078
 8.18225  41.961
 8.20525  41.8231
 8.22825  41.642
 8.25125  41.414
 8.27425  40.9697
 8.29725  40.5507
 8.32025  40.2388
 8.34325  40.023
 8.36625  39.8593
 8.38925  39.6005
 8.41225  39.4967
 8.43525  39.1851
 8.45825  38.7414
 8.48125  38.3776
 8.50425  37.9953
 8.52725  37.7821
 8.55025  37.4824
 8.57325  37.1212
 8.59625  36.8146
 8.61925  36.4014
 8.64225  35.9244
 8.66525  35.4968
 8.68825  35.1758
 8.71125  34.9193
 8.73425  34.5581
 8.75725  34.0237
 8.78025  33.613
 8.80325  33.3232
 8.82625  33.2317
 8.84925  32.9267
 8.87225  32.6035
 8.89525  32.2383
 8.91825  31.8707
 8.94125  31.49
 8.96425  31.2544
 8.98725  31.052
 9.01025  30.6559
 9.03325  30.3005
 9.05625  29.9427
 9.07925  29.7331
 9.10225  29.5376
 9.12525  29.4102
 9.14825  29.2811
 9.17125  28.9365
 9.19425  28.6097
 9.21725  28.3745
 9.24025  28.1515
 9.26325  27.9514
 9.28625  27.7459
 9.30925  27.5876
 9.33225  27.3851
 9.35525  27.2446
 9.37825  27.1119
 9.40125  26.9425
 9.42425  26.672
 9.44725  26.5778
 9.47025  26.537
 9.49325  26.4633
 9.51625  26.2995
 9.53925  26.1987
 9.56225  26.1207
 9.58525  25.8836
 9.60825  25.7504
 9.63125  25.7534
 9.65425  25.6564
 9.67725  25.4718
 9.70025  25.2581
 9.72325  25.2336
 9.74625  25.185
 9.76925  25.1421
 9.79225  25.1318
 9.81525  25.0622
 9.83825  24.952
 9.86125  24.8262
 9.88425  24.7462
 9.90725  24.7533
 9.93025  24.8063
 9.95325  24.9822
 9.97625  25.1472
 9.99925  24.8963
 10.0222  24.543
 10.0453  24.3093
 10.0683  24.0413
 10.0913  23.9056
 10.1143  23.934
 10.1373  24.0542
 10.1603  24.1028
 10.1832  23.9789
 10.2063  23.8929
 10.2293  23.8644
 10.2523  23.7037
 10.2752  23.6123
 10.2982  23.6152
 10.3213  23.6573
 10.3443  23.6894
 10.3673  23.575
 10.3902  23.5253
 10.4133  23.5317
 10.4363  23.3686
 10.4593  23.2492
 10.4823  23.2949
 10.5053  23.3507
 10.5283  23.3468
 10.5512  23.3463
 10.5742  23.1702
 10.5973  22.9821
 10.6203  23.0463
 10.6433  23.0576
 10.6662  23.0513
 10.6893  22.9506
 10.7123  23.0283
 10.7353  23.0267
 10.7583  22.8933
 10.7813  22.9004
 10.8043  22.9185
 10.8272  22.8806
 10.8503  22.7429
 10.8733  22.682
 10.8963  22.5992
 10.9192  22.6699
 10.9422  22.797
 10.9653  22.7373
 10.9883  22.6697
 11.0113  22.5877
 11.0343  22.6671
 11.0573  22.631
 11.0803  22.5516
 11.1033  22.5024
 11.1263  22.5488
 11.1493  22.5292
 11.1723  22.5634
 11.1953  22.5331
 11.2182  22.5113
 11.2413  22.5068
 11.2643  22.5048
 11.2873  22.5086
 11.3102  22.5272
 11.3333  22.5532
 11.3563  22.4122
 11.3793  22.4289
 11.4023  22.6095
 11.4253  22.7307
 11.4483  22.6792
 11.4713  22.677
 11.4942  22.8173
 11.5173  23.0299
 11.5403  23.7127
 11.5633  25.2773
 11.5862  26.8968
 11.6093  27.0668
 11.6323  25.6921
 11.6553  24.1302
 11.6783  23.2058
 11.7013  22.7358
 11.7243  22.5891
 11.7473  22.5102
 11.7703  22.4605
 11.7933  22.3813
 11.8163  22.4464
 11.8393  22.3991
 11.8622  22.328
 11.8853  22.3489
 11.9083  22.4682
 11.9313  22.7378
 11.9543  23.1635
 11.9773  23.4331
 12.0003  23.4161
 12.0233  23.2992
 12.0463  23.4764
 12.0693  24.1504
 12.0923  24.6391
 12.1153  24.3811
 12.1382  23.7089
 12.1613  23.0683
 12.1843  22.7133
 12.2073  22.5503
 12.2302  22.3886
 12.2533  22.453
 12.2763  22.4508
 12.2993  22.4343
 12.3223  22.4655
 12.3453  22.5107
 12.3683  22.5272
 12.3913  22.584
 12.4142  22.569
 12.4373  22.7066
 12.4603  22.7827
 12.4833  22.8227
 12.5062  22.7516
 12.5292  22.7172
 12.5523  22.7313
 12.5753  22.6822
 12.5983  22.7415
 12.6212  22.8293
 12.6443  22.813
 12.6673  22.6625
 12.6903  22.7117
 12.7133  22.9103
 12.7363  22.9973
 12.7593  22.9883
 12.7822  23.0153
 12.8052  23.0794
 12.8283  23.2576
 12.8513  23.3876
 12.8742  23.4087
 12.8972  23.4699
 12.9203  23.6067
 12.9433  23.8387
 12.9663  23.9907
 12.9893  23.972
 13.0123  24.0501
 13.0353  24.2603
 13.0582  24.4433
 13.0813  24.5779
 13.1043  24.7679
 13.1273  25.0607
 13.1502  25.3751
 13.1732  25.702
 13.1963  26.0423
 13.2193  26.459
 13.2423  26.5446
 13.2652  26.6018
 13.2883  26.7588
 13.3113  27.0902
 13.3343  27.4614
 13.3573  27.7356
 13.3803  28.0191
 13.4033  28.3293
 13.4262  28.4598
 13.4492  28.6184
 13.4723  28.9353
 13.4953  29.2577
 13.5183  29.4617
 13.5412  29.6931
 13.5643  29.8545
 13.5873  29.97
 13.6103  30.0583
 13.6333  30.0573
 13.6563  29.9959
 13.6793  29.9065
 13.7022  29.9517
 13.7253  29.9671
 13.7483  29.9687
 13.7713  29.8999
 13.7942  29.9215
 13.8172  30.0723
 13.8403  30.3787
 13.8633  31.2469
 13.8863  33.7547
 13.9093  40.6398
 13.9323  53.7526
 13.9553  66.0126
 13.9783  64.156
 14.0013  48.6689
 14.0243  35.7311
 14.0473  30.8013
 14.0703  29.316
 14.0932  28.6264
 14.1163  28.1271
 14.1393  27.8451
 14.1623  27.6381
 14.1852  27.3912
 14.2083  27.1474
 14.2313  27.0095
 14.2543  26.7782
 14.2773  26.6
 14.3003  26.5198
 14.3233  26.3878
 14.3463  26.2121
 14.3692  26.1336
 14.3923  26.1567
 14.4153  26.1638
 14.4383  26.1144
 14.4612  25.91
 14.4843  25.7337
 14.5073  25.6979
 14.5303  25.6901
 14.5533  25.7246
 14.5763  25.602
 14.5993  25.5183
 14.6223  25.5674
 14.6453  25.4568
 14.6683  25.3989
 14.6913  25.4103
 14.7143  25.3716
 14.7372  25.244
 14.7603  25.1228
 14.7833  24.9968
 14.8063  24.9632
 14.8293  25.0396
 14.8523  25.114
 14.8753  25.0507
 14.8983  25.05
 14.9213  25.0932
 14.9443  25.003
 14.9673  24.8552
 14.9903  24.8314
 15.0132  24.9685
 15.0363  24.9954
 15.0593  24.9485
 15.0823  24.9908
 15.1052  25.0597
 15.1283  25.253
 15.1513  25.8505
 15.1743  26.8533
 15.1973  27.4048
 15.2203  27.0721
 15.2433  25.9992
 15.2663  25.3049
 15.2892  25.0105
 15.3123  24.8134
 15.3353  24.6918
 15.3583  24.7224
 15.3812  24.7294
 15.4043  24.6766
 15.4273  24.6864
 15.4503  24.7103
 15.4733  24.579
 15.4963  24.5004
 15.5193  24.5012
 15.5423  24.4883
 15.5653  24.5498
 15.5883  24.6453
 15.6113  24.6271
 15.6343  24.5621
 15.6572  24.6056
 15.6803  24.7206
 15.7033  24.8237
 15.7263  24.7744
 15.7492  24.6133
 15.7723  24.6057
 15.7953  24.6142
 15.8183  24.6585
 15.8413  24.5428
 15.8643  24.5004
 15.8873  24.5713
 15.9103  24.6459
 15.9332  24.6841
 15.9563  24.6326
 15.9793  24.6422
 16.0023  24.6399
 16.0253  24.6513
 16.0482  24.7161
 16.0713  24.7297
 16.0943  24.8365
 16.1172  24.9554
 16.1403  24.8908
 16.1633  24.9407
 16.1863  25.0897
 16.2093  25.3043
 16.2323  25.4435
 16.2553  25.6072
 16.2783  25.648
 16.3012  25.3157
 16.3243  25.0276
 16.3472  24.7725
 16.3703  24.6535
 16.3933  24.7313
 16.4163  24.8004
 16.4393  24.7298
 16.4623  24.659
 16.4853  24.7206
 16.5083  24.8574
 16.5312  24.7634
 16.5543  24.7438
 16.5773  24.6674
 16.6002  24.6572
 16.6233  24.5435
 16.6463  24.5236
 16.6693  24.61
 16.6923  24.6023
 16.7153  24.6425
 16.7383  24.6162
 16.7613  24.5886
 16.7843  24.5366
 16.8073  24.5517
 16.8303  24.5235
 16.8533  24.4872
 16.8763  24.4727
 16.8992  24.394
 16.9223  24.4246
 16.9453  24.4132
 16.9683  24.2956
 16.9913  24.2052
 17.0143  24.1908
 17.0373  24.1787
 17.0603  24.1442
 17.0832  24.1695
 17.1063  24.2456
 17.1293  24.2826
 17.1522  24.2971
 17.1753  24.3028
 17.1983  24.2785
 17.2213  24.1943
 17.2443  24.1509
 17.2673  24.1021
 17.2903  24.1111
 17.3133  24.1756
 17.3362  24.2456
 17.3593  24.1534
 17.3823  24.1402
 17.4053  24.0162
 17.4283  23.9838
 17.4513  23.9973
 17.4743  23.9975
 17.4973  24.0369
 17.5203  23.9401
 17.5433  23.9298
 17.5663  23.9565
 17.5893  23.9536
 17.6123  23.9253
 17.6352  23.8623
 17.6583  23.7815
 17.6813  23.8803
 17.7042  23.9193
 17.7273  23.9001
 17.7503  23.8992
 17.7733  23.9436
 17.7963  24.1139
 17.8193  24.0032
 17.8423  24.0226
 17.8653  24.0138
 17.8882  23.923
 17.9113  23.8827
 17.9343  23.9938
 17.9573  24.0365
 17.9803  24.1237
 18.0033  24.4742
 18.0263  24.6709
 18.0493  24.8795
 18.0723  25.3843
 18.0953  26.2869
 18.1183  26.4816
 18.1413  25.8261
 18.1643  24.8861
 18.1872  24.1577
 18.2103  23.8876
 18.2333  23.7772
 18.2563  23.7228
 18.2793  23.6723
 18.3023  23.6897
 18.3253  23.7311
 18.3483  23.7491
 18.3712  23.7771
 18.3943  23.7912
 18.4173  23.7299
 18.4402  23.6813
 18.4633  23.7018
 18.4863  23.7906
 18.5093  23.6756
 18.5323  23.5989
 18.5553  23.5782
 18.5783  23.546
 18.6013  23.584
 18.6242  23.5828
 18.6473  23.5697
 18.6703  23.5262
 18.6933  23.5641
 18.7163  23.5436
 18.7392  23.5427
 18.7623  23.5192
 18.7853  23.5058
 18.8083  23.5418
 18.8313  23.5823
 18.8543  23.5403
 18.8773  23.5901
 18.9003  23.5666
 18.9232  23.619
 18.9463  23.6512
 18.9693  23.5378
 18.9922  23.5113
 19.0153  23.5403
 19.0383  23.5423
 19.0613  23.5633
 19.0843  23.6495
 19.1073  23.5809
 19.1303  23.5897
 19.1533  23.6111
 19.1762  23.4876
 19.1993  23.5818
 19.2223  23.6169
 19.2453  23.5046
 19.2683  23.6179
 19.2913  23.6124
 19.3143  23.6759
 19.3373  23.7358
 19.3603  23.7107
 19.3833  23.6535
 19.4062  23.7039
 19.4293  23.7375
 19.4523  23.8967
 19.4752  23.9085
 19.4983  23.7973
 19.5213  23.7226
 19.5443  23.8641
 19.5673  23.9746
 19.5903  24.0322
 19.6133  24.1357
 19.6363  24.458
 19.6593  25.2693
 19.6823  27.0741
 19.7053  29.3962
 19.7283  29.84
 19.7513  28.0432
 19.7742  26.3918
 19.7973  26.1009
 19.8203  27.0144
 19.8433  28.3238
 19.8663  28.8932
 19.8893  28.2363
 19.9123  26.5622
 19.9353  25.0043
 19.9582  24.3598
 19.9813  24.1889
 20.0043  24.0726
 20.0272  24.0138
 20.0503  24.0086
 20.0733  23.8892
 20.0963  23.888
 20.1193  23.9178
 20.1423  23.882
 20.1653  23.8256
 20.1883  23.7828
 20.2112  23.8116
 20.2343  23.9194
 20.2573  23.9446
 20.2803  23.8973
 20.3033  23.7843
 20.3263  23.6867
 20.3493  23.7056
 20.3723  23.796
 20.3953  23.8391
 20.4183  23.8818
 20.4413  23.8309
 20.4643  23.8532
 20.4873  23.8948
 20.5102  23.8813
 20.5333  23.7949
 20.5563  23.821
 20.5792  23.8871
 20.6023  24.034
 20.6253  24.103
 20.6483  24.1988
 20.6713  24.4192
 20.6943  25.0758
 20.7173  26.4899
 20.7403  27.5647
 20.7632  27.4113
 20.7863  26.5297
 20.8093  25.612
 20.8323  24.8033
 20.8553  24.3235
 20.8783  24.1195
 20.9013  24.0791
 20.9243  24.0421
 20.9473  23.9818
 20.9703  23.9624
 20.9933  23.9546
 21.0163  23.94
 21.0393  23.9245
 21.0622  23.9562
 21.0853  24.0156
 21.1083  24.0235
 21.1313  24.0686
 21.1543  23.9275
 21.1773  23.9989
 21.2003  24.0458
 21.2233  23.8636
 21.2462  23.8188
 21.2693  23.8251
 21.2923  23.8697
 21.3152  23.9112
 21.3383  23.9173
 21.3613  23.9366
 21.3843  23.9517
 21.4073  23.9467
 21.4303  24.0787
 21.4533  24.1467
 21.4763  24.1568
 21.4992  24.3173
 21.5223  24.4032
 21.5453  24.2301
 21.5683  24.0692
 21.5913  24.0824
 21.6142  24.1024
 21.6373  24.0767
 21.6603  24.0405
 21.6833  24.0796
 21.7063  24.1082
 21.7293  24.1259
 21.7523  24.0898
 21.7753  24.0361
 21.7982  24.0905
 21.8213  24.1702
 21.8443  24.1812
 21.8672  24.2122
 21.8903  24.2172
 21.9133  24.2357
 21.9363  24.1972
 21.9593  24.2395
 21.9823  24.2389
 22.0053  24.2521
 22.0283  24.2713
 22.0512  24.2756
 22.0743  24.2566
 22.0973  24.3264
 22.1203  24.3086
 22.1433  24.2947
 22.1663  24.3191
 22.1893  24.3007
 22.2123  24.3693
 22.2353  24.5414
 22.2583  24.6079
 22.2813  24.5468
 22.3043  24.5829
 22.3273  24.6193
 22.3502  24.6279
 22.3733  24.6675
 22.3963  24.6052
 22.4193  24.5607
 22.4423  24.5466
 22.4653  24.6322
 22.4883  24.6579
 22.5113  24.7349
 22.5343  24.7686
 22.5573  24.8169
 22.5803  24.8736
 22.6033  24.8697
 22.6263  24.9264
 22.6493  24.9515
 22.6723  25.0244
 22.6953  25.2002
 22.7183  25.2497
 22.7413  25.2916
 22.7643  25.2943
 22.7873  25.3123
 22.8103  25.4723
 22.8333  25.5693
 22.8563  25.6187
 22.8793  25.67
 22.9022  25.7299
 22.9253  25.902
 22.9483  26.0605
 22.9713  26.2651
 22.9943  26.463