File: test-data-xrd/xrd-map-34-ID-E/Data_0128.chi
F:\20151113_APS_34IDE\\Brian\Particle1\OCV\Data_0128.tif
2-Theta Angle (Degrees)
Intensity
       2000
 0.01725  0.0000000E+00
 0.04025  0.0000000E+00
 0.06325  0.0000000E+00
 0.08625  0.0000000E+00
 0.10925  0.0000000E+00
 0.13225  0.0000000E+00
 0.15525  0.0000000E+00
 0.17825  0.0000000E+00
 0.20125  0.0000000E+00
 0.22425  0.0000000E+00
 0.24725  0.0000000E+00
 0.27025  0.0000000E+00
 0.29325  0.0000000E+00
 0.31625  0.0000000E+00
 0.33925  0.0000000E+00
 0.36225  0.0000000E+00
 0.38525  0.0000000E+00
 0.40825  0.0000000E+00
 0.43125  0.0000000E+00
 0.45425  0.0000000E+00
 0.47725  0.0000000E+00
 0.50025  0.0000000E+00
 0.52325  0.0000000E+00
 0.54625  0.0000000E+00
 0.56925  0.0000000E+00
 0.59225  0.0000000E+00
 0.61525  0.0000000E+00
 0.63825  0.0000000E+00
 0.66125  0.0000000E+00
 0.68425  0.0000000E+00
 0.70725  0.0000000E+00
 0.73025  0.0000000E+00
 0.75325  0.0000000E+00
 0.77625  0.0000000E+00
 0.79925  0.0000000E+00
 0.82225  0.0000000E+00
 0.84525  0.0000000E+00
 0.86825  0.0000000E+00
 0.89125  0.0000000E+00
 0.91425  0.0000000E+00
 0.93725  0.0000000E+00
 0.96025  0.0000000E+00
 0.98325  0.0000000E+00
 1.00625  0.0000000E+00
 1.02925  0.0000000E+00
 1.05225  0.0000000E+00
 1.07525  0.0000000E+00
 1.09825  0.0000000E+00
 1.12125  0.0000000E+00
 1.14425  0.0000000E+00
 1.16725  0.0000000E+00
 1.19025  0.0000000E+00
 1.21325  0.0000000E+00
 1.23625  0.0000000E+00
 1.25925  0.0000000E+00
 1.28225  0.0000000E+00
 1.30525  0.0000000E+00
 1.32825  0.0000000E+00
 1.35125  0.0000000E+00
 1.37425  0.0000000E+00
 1.39725  0.0000000E+00
 1.42025  0.0000000E+00
 1.44325  0.0000000E+00
 1.46625  0.0000000E+00
 1.48925  0.0000000E+00
 1.51225  0.0000000E+00
 1.53525  0.0000000E+00
 1.55825  0.0000000E+00
 1.58125  0.0000000E+00
 1.60425  0.0000000E+00
 1.62725  0.0000000E+00
 1.65025  0.0000000E+00
 1.67325  0.0000000E+00
 1.69625  0.0000000E+00
 1.71925  0.0000000E+00
 1.74225  0.0000000E+00
 1.76525  0.0000000E+00
 1.78825  0.0000000E+00
 1.81125  0.0000000E+00
 1.83425  0.0000000E+00
 1.85725  0.0000000E+00
 1.88025  0.0000000E+00
 1.90325  0.0000000E+00
 1.92625  0.0000000E+00
 1.94925  0.0000000E+00
 1.97225  0.0000000E+00
 1.99525  0.0000000E+00
 2.01825  0.0000000E+00
 2.04125  0.0000000E+00
 2.06425  0.0000000E+00
 2.08725  0.0000000E+00
 2.11025  0.0000000E+00
 2.13325  0.0000000E+00
 2.15625  0.0000000E+00
 2.17925  0.0000000E+00
 2.20225  0.0000000E+00
 2.22525  0.0000000E+00
 2.24825  0.0000000E+00
 2.27125  0.0000000E+00
 2.29425  0.0000000E+00
 2.31725  0.0000000E+00
 2.34025  0.0000000E+00
 2.36325  0.0000000E+00
 2.38625  0.0000000E+00
 2.40925  0.0000000E+00
 2.43225  0.0000000E+00
 2.45525  0.0000000E+00
 2.47825  0.0000000E+00
 2.50125  0.0000000E+00
 2.52425  0.0000000E+00
 2.54725  0.0000000E+00
 2.57025  0.0000000E+00
 2.59325  0.0000000E+00
 2.61625  0.0000000E+00
 2.63925  0.0000000E+00
 2.66225  0.0000000E+00
 2.68525  0.0000000E+00
 2.70825  0.0000000E+00
 2.73125  0.0000000E+00
 2.75425  0.0000000E+00
 2.77725  0.0000000E+00
 2.80025  0.0000000E+00
 2.82325  35.7441
 2.84625  32.5648
 2.86925  33.2242
 2.89225  34.1847
 2.91525  35.5411
 2.93825  35.3278
 2.96125  35.2841
 2.98425  35.0811
 3.00725  35.1662
 3.03025  35.6076
 3.05325  35.3728
 3.07625  35.2971
 3.09925  35.0461
 3.12225  34.3331
 3.14525  34.5555
 3.16825  35.017
 3.19125  34.837
 3.21425  35.2028
 3.23725  35.5044
 3.26025  35.2957
 3.28325  34.5717
 3.30625  34.1715
 3.32925  34.0369
 3.35225  33.9623
 3.37525  33.9431
 3.39825  34.0439
 3.42125  34.3921
 3.44425  34.4052
 3.46725  34.3753
 3.49025  34.4174
 3.51325  33.9867
 3.53625  33.5598
 3.55925  33.4399
 3.58225  32.8891
 3.60525  32.3352
 3.62825  32.3897
 3.65125  32.7353
 3.67425  32.6054
 3.69725  32.4333
 3.72025  32.0419
 3.74325  32.3432
 3.76625  33.0541
 3.78925  33.2886
 3.81225  32.8585
 3.83525  32.9432
 3.85825  32.7246
 3.88125  32.9097
 3.90425  32.825
 3.92725  32.5498
 3.95025  32.4459
 3.97325  32.6444
 3.99625  32.6328
 4.01925  32.4511
 4.04225  32.1704
 4.06525  32.3721
 4.08825  32.3457
 4.11125  32.2442
 4.13425  32.2716
 4.15725  32.2316
 4.18025  31.9677
 4.20325  32.0094
 4.22625  32.0899
 4.24925  32.1277
 4.27225  32.2054
 4.29525  32.411
 4.31825  32.5134
 4.34125  32.2234
 4.36425  32.0328
 4.38725  32.0574
 4.41025  32.1927
 4.43325  32.3429
 4.45625  32.2818
 4.47925  32.0962
 4.50225  32.0223
 4.52525  32.1098
 4.54825  32.502
 4.57125  32.8668
 4.59425  32.8772
 4.61725  32.5902
 4.64025  32.3073
 4.66325  32.3698
 4.68625  32.3911
 4.70925  32.6689
 4.73225  32.5514
 4.75525  32.3321
 4.77825  32.6986
 4.80125  32.7933
 4.82425  32.5939
 4.84725  32.2978
 4.87025  32.3389
 4.89325  32.4143
 4.91625  32.7003
 4.93925  32.8021
 4.96225  32.847
 4.98525  32.7992
 5.00825  32.6959
 5.03125  32.6442
 5.05425  32.9288
 5.07725  33.1839
 5.10025  33.3672
 5.12325  33.4152
 5.14625  33.6129
 5.16925  33.63
 5.19225  33.5473
 5.21525  33.4574
 5.23825  33.4173
 5.26125  33.4909
 5.28425  33.8155
 5.30725  34.0751
 5.33025  34.2813
 5.35325  34.0373
 5.37625  34.0303
 5.39925  34.2241
 5.42225  34.2321
 5.44525  34.05
 5.46825  34.2437
 5.49125  34.3258
 5.51425  34.4425
 5.53725  34.6812
 5.56025  34.7606
 5.58325  34.879
 5.60625  35.0624
 5.62925  35.1008
 5.65225  35.2288
 5.67525  35.5454
 5.69825  35.6048
 5.72125  35.4698
 5.74425  35.4908
 5.76725  35.5274
 5.79025  35.5696
 5.81325  35.6479
 5.83625  35.8125
 5.85925  35.7269
 5.88225  35.8212
 5.90525  36.1349
 5.92825  36.7284
 5.95125  38.752
 5.97425  41.2959
 5.99725  42.3667
 6.02025  40.634
 6.04325  38.2641
 6.06625  36.9091
 6.08925  36.5143
 6.11225  36.5137
 6.13525  36.6133
 6.15825  36.8125
 6.18125  37.0026
 6.20425  37.1184
 6.22725  37.4633
 6.25025  37.5115
 6.27325  37.4943
 6.29625  37.5845
 6.31925  37.5091
 6.34225  37.628
 6.36525  37.7929
 6.38825  38.016
 6.41125  38.2789
 6.43425  38.3362
 6.45725  38.4036
 6.48025  38.5936
 6.50325  38.8756
 6.52625  39.0539
 6.54925  39.1383
 6.57225  39.1765
 6.59525  39.2827
 6.61825  39.3547
 6.64125  39.7128
 6.66425  40.0513
 6.68725  40.1473
 6.71025  40.1143
 6.73325  40.3789
 6.75625  40.6596
 6.77925  40.7199
 6.80225  40.8881
 6.82525  41.0877
 6.84825  41.1542
 6.87125  41.3729
 6.89425  41.5667
 6.91725  41.5417
 6.94025  41.7296
 6.96325  41.9175
 6.98625  42.178
 7.00925  42.2368
 7.03225  42.2726
 7.05525  42.2203
 7.07825  42.1679
 7.10125  42.3697
 7.12425  42.6781
 7.14725  42.7775
 7.17025  42.8304
 7.19325  42.9464
 7.21625  43.1763
 7.23925  43.3786
 7.26225  43.6118
 7.28525  43.7197
 7.30825  43.5979
 7.33125  43.5333
 7.35425  43.5552
 7.37725  43.7023
 7.40025  43.8433
 7.42325  44.1584
 7.44625  44.2465
 7.46925  44.1663
 7.49225  44.1861
 7.51525  44.2085
 7.53825  44.2881
 7.56125  44.4278
 7.58425  44.5635
 7.60725  44.5029
 7.63025  44.4888
 7.65325  44.5345
 7.67625  44.4656
 7.69925  44.3301
 7.72225  44.4074
 7.74525  44.3268
 7.76825  44.2343
 7.79125  44.2269
 7.81425  44.0056
 7.83725  43.8401
 7.86025  43.997
 7.88325  44.124
 7.90625  44.0555
 7.92925  44.2287
 7.95225  44.0792
 7.97525  43.6469
 7.99825  43.3844
 8.02125  43.2804
 8.04425  43.3025
 8.06725  43.0175
 8.09025  42.8901
 8.11325  42.9406
 8.13625  42.6357
 8.15925  42.567
 8.18225  42.3877
 8.20525  42.094
 8.22825  41.7431
 8.25125  41.5251
 8.27425  41.354
 8.29725  40.9133
 8.32025  40.4362
 8.34325  40.2462
 8.36625  40.2481
 8.38925  39.9109
 8.41225  39.4391
 8.43525  39.0167
 8.45825  38.7266
 8.48125  38.4311
 8.50425  38.1128
 8.52725  37.7006
 8.55025  37.2873
 8.57325  37.0409
 8.59625  36.7509
 8.61925  36.44
 8.64225  36.1056
 8.66525  35.5787
 8.68825  35.1823
 8.71125  34.8947
 8.73425  34.4733
 8.75725  34.0911
 8.78025  33.7997
 8.80325  33.4359
 8.82625  33.1011
 8.84925  32.7423
 8.87225  32.4422
 8.89525  32.1897
 8.91825  31.9336
 8.94125  31.4924
 8.96425  31.1734
 8.98725  30.8141
 9.01025  30.3626
 9.03325  30.1876
 9.05625  30.0964
 9.07925  29.9781
 9.10225  29.6339
 9.12525  29.3438
 9.14825  29.1578
 9.17125  28.9675
 9.19425  28.8256
 9.21725  28.6756
 9.24025  28.3266
 9.26325  28.0373
 9.28625  27.8742
 9.30925  27.5814
 9.33225  27.2549
 9.35525  27.1443
 9.37825  27.0938
 9.40125  26.9856
 9.42425  26.7377
 9.44725  26.5071
 9.47025  26.4954
 9.49325  26.4648
 9.51625  26.2893
 9.53925  26.1207
 9.56225  25.9335
 9.58525  25.8403
 9.60825  25.8889
 9.63125  25.7533
 9.65425  25.5983
 9.67725  25.4457
 9.70025  25.3373
 9.72325  25.3058
 9.74625  25.1917
 9.76925  25.0268
 9.79225  24.9417
 9.81525  24.8529
 9.83825  24.8509
 9.86125  24.7665
 9.88425  24.6188
 9.90725  24.5773
 9.93025  24.5573
 9.95325  24.4496
 9.97625  24.3718
 9.99925  24.282
 10.0222  24.1801
 10.0453  24.1756
 10.0683  24.1603
 10.0913  24.0524
 10.1143  23.8595
 10.1373  23.7355
 10.1603  23.8465
 10.1832  23.8666
 10.2063  23.8058
 10.2293  23.7832
 10.2523  23.6851
 10.2752  23.6389
 10.2982  23.6415
 10.3213  23.5337
 10.3443  23.4683
 10.3673  23.419
 10.3902  23.3913
 10.4133  23.4189
 10.4363  23.3414
 10.4593  23.2971
 10.4823  23.2581
 10.5053  23.1756
 10.5283  23.1246
 10.5512  22.9573
 10.5742  22.9443
 10.5973  22.8626
 10.6203  22.8525
 10.6433  22.8364
 10.6662  22.8856
 10.6893  22.8688
 10.7123  22.7514
 10.7353  22.694
 10.7583  22.7474
 10.7813  22.8534
 10.8043  22.8768
 10.8272  22.8448
 10.8503  22.7642
 10.8733  22.6025
 10.8963  22.4923
 10.9192  22.5316
 10.9422  22.6295
 10.9653  22.6554
 10.9883  22.639
 11.0113  22.5454
 11.0343  22.5308
 11.0573  22.4548
 11.0803  22.4031
 11.1033  22.4329
 11.1263  22.4448
 11.1493  22.4368
 11.1723  22.4052
 11.1953  22.3969
 11.2182  22.3374
 11.2413  22.2361
 11.2643  22.2742
 11.2873  22.2641
 11.3102  22.3995
 11.3333  22.5149
 11.3563  22.4634
 11.3793  22.4187
 11.4023  22.5335
 11.4253  22.6021
 11.4483  22.5535
 11.4713  22.5035
 11.4942  22.4733
 11.5173  22.4843
 11.5403  22.63
 11.5633  22.967
 11.5862  23.2937
 11.6093  23.3142
 11.6323  23.0228
 11.6553  22.7004
 11.6783  22.5041
 11.7013  22.3269
 11.7243  22.2526
 11.7473  22.304
 11.7703  22.2582
 11.7933  22.2113
 11.8163  22.3077
 11.8393  22.2596
 11.8622  22.1835
 11.8853  22.3135
 11.9083  22.3737
 11.9313  22.5684
 11.9543  22.903
 11.9773  23.1469
 12.0003  23.1029
 12.0233  22.9056
 12.0463  22.8387
 12.0693  22.8645
 12.0923  22.9766
 12.1153  22.9079
 12.1382  22.8218
 12.1613  22.5816
 12.1843  22.3854
 12.2073  22.3293
 12.2302  22.3381
 12.2533  22.3124
 12.2763  22.3268
 12.2993  22.3762
 12.3223  22.4366
 12.3453  22.4515
 12.3683  22.3669
 12.3913  22.2768
 12.4142  22.3303
 12.4373  22.4651
 12.4603  22.4455
 12.4833  22.3933
 12.5062  22.464
 12.5292  22.5455
 12.5523  22.6429
 12.5753  22.6617
 12.5983  22.6503
 12.6212  22.6413
 12.6443  22.5941
 12.6673  22.6195
 12.6903  22.6657
 12.7133  22.7475
 12.7363  22.8363
 12.7593  22.9049
 12.7822  23.0642
 12.8052  23.137
 12.8283  23.2311
 12.8513  23.3896
 12.8742  23.4253
 12.8972  23.401
 12.9203  23.4692
 12.9433  23.5467
 12.9663  23.6124
 12.9893  23.7543
 13.0123  23.8656
 13.0353  24.0124
 13.0582  24.0881
 13.0813  24.3484
 13.1043  24.6243
 13.1273  24.8649
 13.1502  25.0718
 13.1732  25.3132
 13.1963  25.4849
 13.2193  25.7911
 13.2423  26.1833
 13.2652  26.4429
 13.2883  26.7563
 13.3113  27.0264
 13.3343  27.2865
 13.3573  27.6398
 13.3803  27.9215
 13.4033  28.1577
 13.4262  28.3594
 13.4492  28.6206
 13.4723  28.8735
 13.4953  29.0761
 13.5183  29.1313
 13.5412  29.2111
 13.5643  29.3326
 13.5873  29.4022
 13.6103  29.4834
 13.6333  29.4629
 13.6563  29.4535
 13.6793  29.4986
 13.7022  29.4244
 13.7253  29.3678
 13.7483  29.2519
 13.7713  29.121
 13.7942  29.0519
 13.8172  28.9933
 13.8403  28.9166
 13.8633  28.9523
 13.8863  29.0822
 13.9093  29.6648
 13.9323  30.6452
 13.9553  31.2109
 13.9783  30.8622
 14.0013  29.8071
 14.0243  28.5247
 14.0473  27.8004
 14.0703  27.444
 14.0932  27.1728
 14.1163  27.0167
 14.1393  26.9835
 14.1623  26.8704
 14.1852  26.8347
 14.2083  26.6926
 14.2313  26.4902
 14.2543  26.3638
 14.2773  26.2635
 14.3003  26.066
 14.3233  25.9526
 14.3463  25.8742
 14.3692  25.9226
 14.3923  25.866
 14.4153  25.7915
 14.4383  25.815
 14.4612  25.7309
 14.4843  25.6237
 14.5073  25.5661
 14.5303  25.6048
 14.5533  25.5691
 14.5763  25.4368
 14.5993  25.2803
 14.6223  25.2947
 14.6453  25.2861
 14.6683  25.1806
 14.6913  25.1422
 14.7143  25.0901
 14.7372  25.0024
 14.7603  24.9728
 14.7833  24.9533
 14.8063  24.8816
 14.8293  24.7523
 14.8523  24.7257
 14.8753  24.7417
 14.8983  24.672
 14.9213  24.6597
 14.9443  24.6759
 14.9673  24.7237
 14.9903  24.7234
 15.0132  24.7423
 15.0363  24.7829
 15.0593  24.7228
 15.0823  24.6994
 15.1052  24.64
 15.1283  24.616
 15.1513  24.8049
 15.1743  24.9876
 15.1973  25.0284
 15.2203  24.9293
 15.2433  24.6755
 15.2663  24.5199
 15.2892  24.4626
 15.3123  24.3665
 15.3353  24.3475
 15.3583  24.3333
 15.3812  24.3382
 15.4043  24.3388
 15.4273  24.324
 15.4503  24.2754
 15.4733  24.2993
 15.4963  24.3546
 15.5193  24.3536
 15.5423  24.2912
 15.5653  24.3258
 15.5883  24.369
 15.6113  24.3105
 15.6343  24.3296
 15.6572  24.3227
 15.6803  24.2823
 15.7033  24.3437
 15.7263  24.3765
 15.7492  24.3204
 15.7723  24.3502
 15.7953  24.3675
 15.8183  24.4252
 15.8413  24.4177
 15.8643  24.3702
 15.8873  24.3801
 15.9103  24.3866
 15.9332  24.3797
 15.9563  24.3471
 15.9793  24.4342
 16.0023  24.5363
 16.0253  24.5594
 16.0482  24.5906
 16.0713  24.5776
 16.0943  24.5789
 16.1172  24.6852
 16.1403  24.6806
 16.1633  24.7763
 16.1863  24.9207
 16.2093  25.1374
 16.2323  25.4111
 16.2553  25.6862
 16.2783  25.5686
 16.3012  25.0469
 16.3243  24.6303
 16.3472  24.5098
 16.3703  24.5071
 16.3933  24.5051
 16.4163  24.4573
 16.4393  24.5512
 16.4623  24.5474
 16.4853  24.5724
 16.5083  24.5194
 16.5312  24.4103
 16.5543  24.4188
 16.5773  24.4998
 16.6002  24.5424
 16.6233  24.4632
 16.6463  24.4157
 16.6693  24.4572
 16.6923  24.4381
 16.7153  24.4137
 16.7383  24.3859
 16.7613  24.3556
 16.7843  24.3587
 16.8073  24.405
 16.8303  24.3303
 16.8533  24.188
 16.8763  24.1001
 16.8992  24.0809
 16.9223  24.1919
 16.9453  24.2675
 16.9683  24.2539
 16.9913  24.1161
 17.0143  24.0417
 17.0373  24.0493
 17.0603  24.018
 17.0832  24.0686
 17.1063  23.9957
 17.1293  24.026
 17.1522  24.0749
 17.1753  24.0485
 17.1983  24.1026
 17.2213  24.1092
 17.2443  24.0045
 17.2673  23.9198
 17.2903  23.9202
 17.3133  23.9339
 17.3362  23.8845
 17.3593  23.8306
 17.3823  23.8612
 17.4053  23.894
 17.4283  23.8201
 17.4513  23.8296
 17.4743  23.8862
 17.4973  23.8205
 17.5203  23.8107
 17.5433  23.7999
 17.5663  23.7677
 17.5893  23.6887
 17.6123  23.6504
 17.6352  23.639
 17.6583  23.5433
 17.6813  23.5919
 17.7042  23.614
 17.7273  23.5719
 17.7503  23.4553
 17.7733  23.4657
 17.7963  23.4636
 17.8193  23.5182
 17.8423  23.5567
 17.8653  23.607
 17.8882  23.5772
 17.9113  23.6269
 17.9343  23.5609
 17.9573  23.4554
 17.9803  23.4318
 18.0033  23.4918
 18.0263  23.5649
 18.0493  23.6621
 18.0723  23.7114
 18.0953  23.8313
 18.1183  23.7204
 18.1413  23.5736
 18.1643  23.5085
 18.1872  23.4445
 18.2103  23.4761
 18.2333  23.4808
 18.2563  23.43
 18.2793  23.4356
 18.3023  23.4398
 18.3253  23.4454
 18.3483  23.4337
 18.3712  23.4588
 18.3943  23.5086
 18.4173  23.5052
 18.4402  23.3954
 18.4633  23.3508
 18.4863  23.4028
 18.5093  23.4892
 18.5323  23.3299
 18.5553  23.2929
 18.5783  23.3899
 18.6013  23.408
 18.6242  23.2903
 18.6473  23.248
 18.6703  23.2719
 18.6933  23.331
 18.7163  23.2811
 18.7392  23.2871
 18.7623  23.3352
 18.7853  23.3591
 18.8083  23.3433
 18.8313  23.2854
 18.8543  23.2504
 18.8773  23.1859
 18.9003  23.2273
 18.9232  23.3321
 18.9463  23.4107
 18.9693  23.3369
 18.9922  23.2851
 19.0153  23.2393
 19.0383  23.2517
 19.0613  23.2843
 19.0843  23.2438
 19.1073  23.2496
 19.1303  23.2716
 19.1533  23.3333
 19.1762  23.3272
 19.1993  23.389
 19.2223  23.3469
 19.2453  23.225
 19.2683  23.1994
 19.2913  23.2389
 19.3143  23.2293
 19.3373  23.2213
 19.3603  23.1778
 19.3833  23.1563
 19.4062  23.1981
 19.4293  23.2045
 19.4523  23.281
 19.4752  23.3576
 19.4983  23.3221
 19.5213  23.2936
 19.5443  23.3431
 19.5673  23.3479
 19.5903  23.3393
 19.6133  23.4626
 19.6363  23.563
 19.6593  23.7188
 19.6823  23.9958
 19.7053  24.2562
 19.7283  24.2813
 19.7513  24.1273
 19.7742  23.9528
 19.7973  23.9162
 19.8203  24.0685
 19.8433  24.2524
 19.8663  24.1784
 19.8893  24.0214
 19.9123  23.8737
 19.9353  23.6947
 19.9582  23.542
 19.9813  23.5133
 20.0043  23.4904
 20.0272  23.4393
 20.0503  23.4749
 20.0733  23.515
 20.0963  23.5348
 20.1193  23.6075
 20.1423  23.5629
 20.1653  23.4575
 20.1883  23.415
 20.2112  23.3938
 20.2343  23.5605
 20.2573  23.5893
 20.2803  23.4804
 20.3033  23.3546
 20.3263  23.3776
 20.3493  23.3445
 20.3723  23.3649
 20.3953  23.365
 20.4183  23.4462
 20.4413  23.4853
 20.4643  23.4833
 20.4873  23.5228
 20.5102  23.4333
 20.5333  23.4809
 20.5563  23.6174
 20.5792  23.6373
 20.6023  23.6202
 20.6253  23.577
 20.6483  23.6123
 20.6713  23.6915
 20.6943  23.8565
 20.7173  24.1114
 20.7403  24.3363
 20.7632  24.3929
 20.7863  24.3108
 20.8093  24.0346
 20.8323  23.7116
 20.8553  23.6455
 20.8783  23.6006
 20.9013  23.5999
 20.9243  23.7278
 20.9473  23.8001
 20.9703  23.7604
 20.9933  23.7041
 21.0163  23.682
 21.0393  23.658
 21.0622  23.6724
 21.0853  23.6489
 21.1083  23.6687
 21.1313  23.7332
 21.1543  23.6901
 21.1773  23.7272
 21.2003  23.7366
 21.2233  23.7689
 21.2462  23.7542
 21.2693  23.7318
 21.2923  23.6627
 21.3152  23.5485
 21.3383  23.6095
 21.3613  23.6546
 21.3843  23.6619
 21.4073  23.6528
 21.4303  23.6668
 21.4533  23.6582
 21.4763  23.6994
 21.4992  23.6895
 21.5223  23.6765
 21.5453  23.7548
 21.5683  23.7549
 21.5913  23.7622
 21.6142  23.7737
 21.6373  23.6966
 21.6603  23.765
 21.6833  23.8139
 21.7063  23.7979
 21.7293  23.8076
 21.7523  23.8127
 21.7753  23.8077
 21.7982  23.9318
 21.8213  23.9483
 21.8443  23.9688
 21.8672  24.0403
 21.8903  23.999
 21.9133  24.003
 21.9363  23.9799
 21.9593  24.0059
 21.9823  23.919
 22.0053  23.8609
 22.0283  23.9832
 22.0512  24.0103
 22.0743  23.9966
 22.0973  24.1097
 22.1203  24.2113
 22.1433  24.1689
 22.1663  24.1872
 22.1893  24.1172
 22.2123  24.1405
 22.2353  24.1632
 22.2583  24.254
 22.2813  24.2399
 22.3043  24.2093
 22.3273  24.2687
 22.3502  24.3165
 22.3733  24.3704
 22.3963  24.321
 22.4193  24.3738
 22.4423  24.3979
 22.4653  24.3796
 22.4883  24.462
 22.5113  24.5653
 22.5343  24.5556
 22.5573  24.4981
 22.5803  24.5867
 22.6033  24.6756
 22.6263  24.6888
 22.6493  24.7236
 22.6723  24.8188
 22.6953  24.8501
 22.7183  24.8808
 22.7413  24.9504
 22.7643  25.0286
 22.7873  25.0346
 22.8103  25.1116
 22.8333  25.223
 22.8563  25.194
 22.8793  25.2619
 22.9022  25.3541
 22.9253  25.5373
 22.9483  25.6441
 22.9713  25.7997
 22.9943  25.9961