File: test-data-xrd/xrd-map-34-ID-E/Data_0120.chi
F:\20151113_APS_34IDE\\Brian\Particle1\OCV\Data_0120.tif
2-Theta Angle (Degrees)
Intensity
       2000
 0.01725  0.0000000E+00
 0.04025  0.0000000E+00
 0.06325  0.0000000E+00
 0.08625  0.0000000E+00
 0.10925  0.0000000E+00
 0.13225  0.0000000E+00
 0.15525  0.0000000E+00
 0.17825  0.0000000E+00
 0.20125  0.0000000E+00
 0.22425  0.0000000E+00
 0.24725  0.0000000E+00
 0.27025  0.0000000E+00
 0.29325  0.0000000E+00
 0.31625  0.0000000E+00
 0.33925  0.0000000E+00
 0.36225  0.0000000E+00
 0.38525  0.0000000E+00
 0.40825  0.0000000E+00
 0.43125  0.0000000E+00
 0.45425  0.0000000E+00
 0.47725  0.0000000E+00
 0.50025  0.0000000E+00
 0.52325  0.0000000E+00
 0.54625  0.0000000E+00
 0.56925  0.0000000E+00
 0.59225  0.0000000E+00
 0.61525  0.0000000E+00
 0.63825  0.0000000E+00
 0.66125  0.0000000E+00
 0.68425  0.0000000E+00
 0.70725  0.0000000E+00
 0.73025  0.0000000E+00
 0.75325  0.0000000E+00
 0.77625  0.0000000E+00
 0.79925  0.0000000E+00
 0.82225  0.0000000E+00
 0.84525  0.0000000E+00
 0.86825  0.0000000E+00
 0.89125  0.0000000E+00
 0.91425  0.0000000E+00
 0.93725  0.0000000E+00
 0.96025  0.0000000E+00
 0.98325  0.0000000E+00
 1.00625  0.0000000E+00
 1.02925  0.0000000E+00
 1.05225  0.0000000E+00
 1.07525  0.0000000E+00
 1.09825  0.0000000E+00
 1.12125  0.0000000E+00
 1.14425  0.0000000E+00
 1.16725  0.0000000E+00
 1.19025  0.0000000E+00
 1.21325  0.0000000E+00
 1.23625  0.0000000E+00
 1.25925  0.0000000E+00
 1.28225  0.0000000E+00
 1.30525  0.0000000E+00
 1.32825  0.0000000E+00
 1.35125  0.0000000E+00
 1.37425  0.0000000E+00
 1.39725  0.0000000E+00
 1.42025  0.0000000E+00
 1.44325  0.0000000E+00
 1.46625  0.0000000E+00
 1.48925  0.0000000E+00
 1.51225  0.0000000E+00
 1.53525  0.0000000E+00
 1.55825  0.0000000E+00
 1.58125  0.0000000E+00
 1.60425  0.0000000E+00
 1.62725  0.0000000E+00
 1.65025  0.0000000E+00
 1.67325  0.0000000E+00
 1.69625  0.0000000E+00
 1.71925  0.0000000E+00
 1.74225  0.0000000E+00
 1.76525  0.0000000E+00
 1.78825  0.0000000E+00
 1.81125  0.0000000E+00
 1.83425  0.0000000E+00
 1.85725  0.0000000E+00
 1.88025  0.0000000E+00
 1.90325  0.0000000E+00
 1.92625  0.0000000E+00
 1.94925  0.0000000E+00
 1.97225  0.0000000E+00
 1.99525  0.0000000E+00
 2.01825  0.0000000E+00
 2.04125  0.0000000E+00
 2.06425  0.0000000E+00
 2.08725  0.0000000E+00
 2.11025  0.0000000E+00
 2.13325  0.0000000E+00
 2.15625  0.0000000E+00
 2.17925  0.0000000E+00
 2.20225  0.0000000E+00
 2.22525  0.0000000E+00
 2.24825  0.0000000E+00
 2.27125  0.0000000E+00
 2.29425  0.0000000E+00
 2.31725  0.0000000E+00
 2.34025  0.0000000E+00
 2.36325  0.0000000E+00
 2.38625  0.0000000E+00
 2.40925  0.0000000E+00
 2.43225  0.0000000E+00
 2.45525  0.0000000E+00
 2.47825  0.0000000E+00
 2.50125  0.0000000E+00
 2.52425  0.0000000E+00
 2.54725  0.0000000E+00
 2.57025  0.0000000E+00
 2.59325  0.0000000E+00
 2.61625  0.0000000E+00
 2.63925  0.0000000E+00
 2.66225  0.0000000E+00
 2.68525  0.0000000E+00
 2.70825  0.0000000E+00
 2.73125  0.0000000E+00
 2.75425  0.0000000E+00
 2.77725  0.0000000E+00
 2.80025  0.0000000E+00
 2.82325  36.879
 2.84625  33.5338
 2.86925  34.7336
 2.89225  35.8415
 2.91525  36.203
 2.93825  36.3248
 2.96125  35.6367
 2.98425  35.6743
 3.00725  36.273
 3.03025  35.7485
 3.05325  34.6461
 3.07625  35.0218
 3.09925  35.2016
 3.12225  34.8461
 3.14525  34.9099
 3.16825  34.4679
 3.19125  33.6798
 3.21425  33.4091
 3.23725  33.6317
 3.26025  33.4182
 3.28325  33.4182
 3.30625  33.5166
 3.32925  34.1067
 3.35225  34.243
 3.37525  33.9212
 3.39825  33.6341
 3.42125  33.378
 3.44425  33.8714
 3.46725  34.4225
 3.49025  34.4953
 3.51325  33.9831
 3.53625  33.5808
 3.55925  33.343
 3.58225  33.2691
 3.60525  33.1593
 3.62825  33.1764
 3.65125  33.2171
 3.67425  33.189
 3.69725  33.041
 3.72025  33.016
 3.74325  33.4103
 3.76625  33.322
 3.78925  33.2937
 3.81225  33.0505
 3.83525  32.8572
 3.85825  32.632
 3.88125  32.5789
 3.90425  32.3979
 3.92725  32.464
 3.95025  32.7608
 3.97325  32.6492
 3.99625  32.5589
 4.01925  32.4343
 4.04225  32.3909
 4.06525  32.4647
 4.08825  32.3026
 4.11125  32.4341
 4.13425  32.5134
 4.15725  32.2658
 4.18025  31.8569
 4.20325  32.0493
 4.22625  32.2157
 4.24925  31.8547
 4.27225  31.7376
 4.29525  32.0567
 4.31825  32.2572
 4.34125  32.3135
 4.36425  32.5023
 4.38725  32.5777
 4.41025  32.4577
 4.43325  32.5821
 4.45625  32.3651
 4.47925  32.2154
 4.50225  32.1726
 4.52525  32.2658
 4.54825  32.1919
 4.57125  32.1794
 4.59425  32.4089
 4.61725  32.4626
 4.64025  32.5387
 4.66325  32.8864
 4.68625  32.9104
 4.70925  32.8542
 4.73225  32.6724
 4.75525  32.4081
 4.77825  32.4998
 4.80125  32.4684
 4.82425  32.5617
 4.84725  32.6206
 4.87025  32.6467
 4.89325  32.4021
 4.91625  32.4733
 4.93925  32.5799
 4.96225  32.5263
 4.98525  32.6628
 5.00825  32.916
 5.03125  33.3265
 5.05425  33.4292
 5.07725  33.457
 5.10025  33.5127
 5.12325  33.4326
 5.14625  33.6599
 5.16925  33.9582
 5.19225  34.0566
 5.21525  33.8954
 5.23825  33.83
 5.26125  33.8573
 5.28425  33.9127
 5.30725  33.9946
 5.33025  33.952
 5.35325  33.9027
 5.37625  34.0176
 5.39925  34.2233
 5.42225  34.2787
 5.44525  34.3291
 5.46825  34.6935
 5.49125  34.636
 5.51425  34.6185
 5.53725  34.6769
 5.56025  34.7528
 5.58325  34.7779
 5.60625  34.7878
 5.62925  34.8009
 5.65225  34.748
 5.67525  35.0261
 5.69825  35.0172
 5.72125  34.9561
 5.74425  34.9619
 5.76725  35.0817
 5.79025  35.3669
 5.81325  35.528
 5.83625  35.6709
 5.85925  35.5738
 5.88225  35.39
 5.90525  35.5189
 5.92825  35.9424
 5.95125  36.6881
 5.97425  37.2707
 5.99725  37.3972
 6.02025  36.7665
 6.04325  36.4842
 6.06625  36.2069
 6.08925  36.1469
 6.11225  36.0798
 6.13525  36.154
 6.15825  36.315
 6.18125  36.553
 6.20425  36.7557
 6.22725  36.9237
 6.25025  37.1093
 6.27325  37.2547
 6.29625  37.2738
 6.31925  37.157
 6.34225  37.2732
 6.36525  37.5573
 6.38825  37.8106
 6.41125  38.1283
 6.43425  38.3172
 6.45725  38.3893
 6.48025  38.3911
 6.50325  38.8149
 6.52625  39.0014
 6.54925  39.1083
 6.57225  39.2342
 6.59525  39.2692
 6.61825  39.364
 6.64125  39.6313
 6.66425  39.8798
 6.68725  39.8644
 6.71025  40.0166
 6.73325  40.2608
 6.75625  40.4832
 6.77925  40.7631
 6.80225  40.9449
 6.82525  41.2565
 6.84825  41.5889
 6.87125  41.6909
 6.89425  41.7542
 6.91725  41.5781
 6.94025  41.4969
 6.96325  41.4131
 6.98625  41.5964
 7.00925  41.6817
 7.03225  41.9466
 7.05525  42.2082
 7.07825  42.3346
 7.10125  42.4714
 7.12425  42.7639
 7.14725  42.8213
 7.17025  42.8747
 7.19325  43.0454
 7.21625  43.2254
 7.23925  43.2868
 7.26225  43.3726
 7.28525  43.4625
 7.30825  43.5168
 7.33125  43.6286
 7.35425  43.6784
 7.37725  43.632
 7.40025  43.6468
 7.42325  43.7601
 7.44625  43.647
 7.46925  43.4758
 7.49225  43.4421
 7.51525  43.6881
 7.53825  43.7086
 7.56125  43.7766
 7.58425  44.0266
 7.60725  44.1207
 7.63025  44.0392
 7.65325  43.9326
 7.67625  43.6852
 7.69925  43.5798
 7.72225  43.7591
 7.74525  43.8355
 7.76825  44.0624
 7.79125  44.1243
 7.81425  44.08
 7.83725  43.9589
 7.86025  43.9311
 7.88325  43.8116
 7.90625  43.7104
 7.92925  43.6264
 7.95225  43.3062
 7.97525  43.0194
 7.99825  42.8872
 8.02125  42.8116
 8.04425  42.8079
 8.06725  42.6019
 8.09025  42.4003
 8.11325  42.2315
 8.13625  42.0522
 8.15925  41.7715
 8.18225  41.5671
 8.20525  41.5396
 8.22825  41.3871
 8.25125  41.0011
 8.27425  40.5664
 8.29725  40.2648
 8.32025  40.1623
 8.34325  39.9479
 8.36625  39.556
 8.38925  39.1146
 8.41225  38.8437
 8.43525  38.5238
 8.45825  38.21
 8.48125  38.0466
 8.50425  37.7116
 8.52725  37.3935
 8.55025  37.0323
 8.57325  36.6574
 8.59625  36.3018
 8.61925  35.9408
 8.64225  35.5177
 8.66525  35.1883
 8.68825  34.7521
 8.71125  34.4106
 8.73425  34.1279
 8.75725  33.8139
 8.78025  33.5111
 8.80325  33.0655
 8.82625  32.8011
 8.84925  32.6711
 8.87225  32.3028
 8.89525  31.8357
 8.91825  31.4196
 8.94125  31.0776
 8.96425  30.7335
 8.98725  30.4868
 9.01025  30.2655
 9.03325  30.0748
 9.05625  29.8913
 9.07925  29.6637
 9.10225  29.3615
 9.12525  29.1741
 9.14825  28.9873
 9.17125  28.8617
 9.19425  28.5386
 9.21725  28.1949
 9.24025  27.8516
 9.26325  27.7104
 9.28625  27.5571
 9.30925  27.314
 9.33225  26.9933
 9.35525  26.7157
 9.37825  26.6311
 9.40125  26.6076
 9.42425  26.4271
 9.44725  26.3513
 9.47025  26.3196
 9.49325  26.2131
 9.51625  25.9703
 9.53925  25.919
 9.56225  25.7564
 9.58525  25.4749
 9.60825  25.3557
 9.63125  25.2268
 9.65425  24.9783
 9.67725  24.8846
 9.70025  24.8434
 9.72325  24.8617
 9.74625  24.7646
 9.76925  24.7016
 9.79225  24.6233
 9.81525  24.552
 9.83825  24.4847
 9.86125  24.41
 9.88425  24.2027
 9.90725  24.111
 9.93025  24.1011
 9.95325  24.185
 9.97625  24.1425
 9.99925  24.099
 10.0222  24.1377
 10.0453  24.0997
 10.0683  23.9103
 10.0913  23.7211
 10.1143  23.5764
 10.1373  23.5731
 10.1603  23.66
 10.1832  23.6156
 10.2063  23.4179
 10.2293  23.4047
 10.2523  23.3329
 10.2752  23.2008
 10.2982  23.1732
 10.3213  23.2258
 10.3443  23.2526
 10.3673  23.1793
 10.3902  23.1011
 10.4133  23.0784
 10.4363  22.9338
 10.4593  22.8818
 10.4823  22.9793
 10.5053  23.0081
 10.5283  22.8803
 10.5512  22.8672
 10.5742  22.9265
 10.5973  22.8671
 10.6203  22.7939
 10.6433  22.8373
 10.6662  22.7878
 10.6893  22.6405
 10.7123  22.6155
 10.7353  22.5801
 10.7583  22.6377
 10.7813  22.6942
 10.8043  22.5488
 10.8272  22.4366
 10.8503  22.4367
 10.8733  22.4138
 10.8963  22.3298
 10.9192  22.3884
 10.9422  22.4384
 10.9653  22.4292
 10.9883  22.4106
 11.0113  22.3172
 11.0343  22.2643
 11.0573  22.2612
 11.0803  22.2823
 11.1033  22.218
 11.1263  22.2372
 11.1493  22.1619
 11.1723  22.1309
 11.1953  22.1162
 11.2182  22.1595
 11.2413  22.1676
 11.2643  22.188
 11.2873  22.0675
 11.3102  21.9995
 11.3333  22.0507
 11.3563  21.9934
 11.3793  21.9657
 11.4023  22.0782
 11.4253  22.0636
 11.4483  22.0445
 11.4713  22.0659
 11.4942  22.0341
 11.5173  22.0236
 11.5403  22.1712
 11.5633  22.3664
 11.5862  22.568
 11.6093  22.5433
 11.6323  22.3982
 11.6553  22.2769
 11.6783  22.1422
 11.7013  21.9749
 11.7243  21.8115
 11.7473  21.8215
 11.7703  21.7689
 11.7933  21.7546
 11.8163  21.9454
 11.8393  22.0973
 11.8622  22.2146
 11.8853  22.1598
 11.9083  22.1219
 11.9313  22.1742
 11.9543  22.1996
 11.9773  22.1891
 12.0003  22.2501
 12.0233  22.1962
 12.0463  22.2545
 12.0693  22.5391
 12.0923  22.5931
 12.1153  22.3596
 12.1382  22.3262
 12.1613  22.3685
 12.1843  22.2957
 12.2073  22.0743
 12.2302  21.9747
 12.2533  21.8461
 12.2763  21.8908
 12.2993  22.0897
 12.3223  22.2237
 12.3453  22.1774
 12.3683  22.1527
 12.3913  22.1885
 12.4142  22.2039
 12.4373  22.2478
 12.4603  22.2623
 12.4833  22.2361
 12.5062  22.2135
 12.5292  22.29
 12.5523  22.3747
 12.5753  22.3813
 12.5983  22.4191
 12.6212  22.5556
 12.6443  22.5122
 12.6673  22.4831
 12.6903  22.5297
 12.7133  22.662
 12.7363  22.6851
 12.7593  22.6987
 12.7822  22.8119
 12.8052  22.8963
 12.8283  22.9236
 12.8513  22.8834
 12.8742  22.9327
 12.8972  23.0926
 12.9203  23.1374
 12.9433  23.2563
 12.9663  23.4107
 12.9893  23.5018
 13.0123  23.5077
 13.0353  23.6754
 13.0582  23.7922
 13.0813  23.9127
 13.1043  24.1905
 13.1273  24.4816
 13.1502  24.742
 13.1732  25.0346
 13.1963  25.3093
 13.2193  25.6351
 13.2423  25.9488
 13.2652  26.2029
 13.2883  26.511
 13.3113  26.8276
 13.3343  27.1173
 13.3573  27.4185
 13.3803  27.6628
 13.4033  28.0422
 13.4262  28.192
 13.4492  28.1973
 13.4723  28.3206
 13.4953  28.5782
 13.5183  28.879
 13.5412  28.9979
 13.5643  29.0998
 13.5873  29.1897
 13.6103  29.3056
 13.6333  29.3
 13.6563  29.2908
 13.6793  29.2903
 13.7022  29.1316
 13.7253  28.9891
 13.7483  28.8821
 13.7713  28.8022
 13.7942  28.7199
 13.8172  28.5533
 13.8403  28.4578
 13.8633  28.482
 13.8863  28.4673
 13.9093  28.5839
 13.9323  28.6731
 13.9553  28.7009
 13.9783  28.4301
 14.0013  27.9716
 14.0243  27.4829
 14.0473  27.1396
 14.0703  27.0524
 14.0932  26.9479
 14.1163  26.8931
 14.1393  26.8674
 14.1623  26.6498
 14.1852  26.372
 14.2083  26.2803
 14.2313  26.1177
 14.2543  25.9898
 14.2773  25.9139
 14.3003  25.87
 14.3233  25.8541
 14.3463  25.7776
 14.3692  25.8054
 14.3923  25.7081
 14.4153  25.5264
 14.4383  25.3513
 14.4612  25.272
 14.4843  25.201
 14.5073  25.2886
 14.5303  25.2678
 14.5533  25.198
 14.5763  25.2345
 14.5993  25.1155
 14.6223  25.0783
 14.6453  24.9748
 14.6683  24.8204
 14.6913  24.7371
 14.7143  24.761
 14.7372  24.7445
 14.7603  24.6837
 14.7833  24.74
 14.8063  24.6822
 14.8293  24.5977
 14.8523  24.5573
 14.8753  24.4736
 14.8983  24.4556
 14.9213  24.3884
 14.9443  24.3959
 14.9673  24.419
 14.9903  24.4947
 15.0132  24.5254
 15.0363  24.603
 15.0593  24.5798
 15.0823  24.4432
 15.1052  24.417
 15.1283  24.3706
 15.1513  24.4002
 15.1743  24.4944
 15.1973  24.4671
 15.2203  24.4765
 15.2433  24.4266
 15.2663  24.2541
 15.2892  24.2431
 15.3123  24.2689
 15.3353  24.1876
 15.3583  24.1391
 15.3812  24.1793
 15.4043  24.1443
 15.4273  24.1781
 15.4503  24.0831
 15.4733  24.0206
 15.4963  24.0349
 15.5193  24.0456
 15.5423  24.022
 15.5653  24.0416
 15.5883  24.0525
 15.6113  24.104
 15.6343  24.0566
 15.6572  24.1038
 15.6803  24.1892
 15.7033  24.2082
 15.7263  24.1929
 15.7492  24.182
 15.7723  24.2177
 15.7953  24.1971
 15.8183  24.2451
 15.8413  24.1986
 15.8643  24.2018
 15.8873  24.2974
 15.9103  24.3699
 15.9332  24.4176
 15.9563  24.2958
 15.9793  24.1885
 16.0023  24.2111
 16.0253  24.3524
 16.0482  24.441
 16.0713  24.4252
 16.0943  24.3318
 16.1172  24.4264
 16.1403  24.5035
 16.1633  24.5213
 16.1863  24.5829
 16.2093  24.6822
 16.2323  24.7007
 16.2553  24.7916
 16.2783  24.8603
 16.3012  24.6789
 16.3243  24.5155
 16.3472  24.3624
 16.3703  24.2515
 16.3933  24.278
 16.4163  24.4061
 16.4393  24.368
 16.4623  24.3292
 16.4853  24.2089
 16.5083  24.2939
 16.5312  24.4225
 16.5543  24.3941
 16.5773  24.4251
 16.6002  24.3698
 16.6233  24.2588
 16.6463  24.2773
 16.6693  24.3456
 16.6923  24.3044
 16.7153  24.1923
 16.7383  24.1716
 16.7613  24.1455
 16.7843  24.1848
 16.8073  24.1585
 16.8303  24.1217
 16.8533  24.1883
 16.8763  24.2046
 16.8992  24.1625
 16.9223  24.1411
 16.9453  24.1178
 16.9683  23.9211
 16.9913  23.9066
 17.0143  23.8331
 17.0373  23.8649
 17.0603  23.8343
 17.0832  23.8583
 17.1063  23.8631
 17.1293  23.8733
 17.1522  23.8239
 17.1753  23.7778
 17.1983  23.8971
 17.2213  23.8358
 17.2443  23.702
 17.2673  23.5865
 17.2903  23.5729
 17.3133  23.6399
 17.3362  23.7655
 17.3593  23.7524
 17.3823  23.6631
 17.4053  23.5826
 17.4283  23.55
 17.4513  23.5001
 17.4743  23.5997
 17.4973  23.626
 17.5203  23.5956
 17.5433  23.6299
 17.5663  23.565
 17.5893  23.4779
 17.6123  23.5356
 17.6352  23.582
 17.6583  23.4712
 17.6813  23.4842
 17.7042  23.4933
 17.7273  23.5118
 17.7503  23.4841
 17.7733  23.4281
 17.7963  23.4582
 17.8193  23.4054
 17.8423  23.4103
 17.8653  23.3339
 17.8882  23.2936
 17.9113  23.3167
 17.9343  23.3085
 17.9573  23.2709
 17.9803  23.2756
 18.0033  23.2882
 18.0263  23.3874
 18.0493  23.3794
 18.0723  23.39
 18.0953  23.4654
 18.1183  23.5131
 18.1413  23.4824
 18.1643  23.3294
 18.1872  23.232
 18.2103  23.1877
 18.2333  23.1289
 18.2563  23.1333
 18.2793  23.1567
 18.3023  23.1437
 18.3253  23.1466
 18.3483  23.2781
 18.3712  23.2581
 18.3943  23.1996
 18.4173  23.2233
 18.4402  23.2358
 18.4633  23.2807
 18.4863  23.2914
 18.5093  23.208
 18.5323  23.1417
 18.5553  23.0624
 18.5783  23.0879
 18.6013  23.194
 18.6242  23.1485
 18.6473  23.0975
 18.6703  23.0967
 18.6933  23.173
 18.7163  23.0901
 18.7392  23.0392
 18.7623  23.0849
 18.7853  23.0594
 18.8083  23.0421
 18.8313  23.0665
 18.8543  23.0018
 18.8773  23.0115
 18.9003  22.9998
 18.9232  22.9923
 18.9463  23.0734
 18.9693  22.9589
 18.9922  22.9033
 19.0153  22.9633
 19.0383  23.0638
 19.0613  23.1808
 19.0843  23.1382
 19.1073  23.0155
 19.1303  22.9551
 19.1533  23.0603
 19.1762  23.0997
 19.1993  23.2085
 19.2223  23.2007
 19.2453  23.1975
 19.2683  23.1989
 19.2913  23.1475
 19.3143  23.2512
 19.3373  23.2056
 19.3603  23.2028
 19.3833  23.1281
 19.4062  23.1204
 19.4293  23.1312
 19.4523  23.0786
 19.4752  23.0469
 19.4983  23.0535
 19.5213  23.0919
 19.5443  23.2158
 19.5673  23.2183
 19.5903  23.2623
 19.6133  23.2459
 19.6363  23.3066
 19.6593  23.391
 19.6823  23.4908
 19.7053  23.6207
 19.7283  23.6411
 19.7513  23.5213
 19.7742  23.4169
 19.7973  23.4223
 19.8203  23.3737
 19.8433  23.4995
 19.8663  23.5548
 19.8893  23.4968
 19.9123  23.4764
 19.9353  23.3866
 19.9582  23.2751
 19.9813  23.2317
 20.0043  23.2946
 20.0272  23.2418
 20.0503  23.2021
 20.0733  23.1941
 20.0963  23.3261
 20.1193  23.3586
 20.1423  23.2801
 20.1653  23.3289
 20.1883  23.41
 20.2112  23.3582
 20.2343  23.337
 20.2573  23.2621
 20.2803  23.256
 20.3033  23.1774
 20.3263  23.1127
 20.3493  23.1848
 20.3723  23.2185
 20.3953  23.1779
 20.4183  23.3063
 20.4413  23.3699
 20.4643  23.313
 20.4873  23.3474
 20.5102  23.3187
 20.5333  23.2999
 20.5563  23.389
 20.5792  23.3683
 20.6023  23.4005
 20.6253  23.4431
 20.6483  23.39
 20.6713  23.3784
 20.6943  23.4097
 20.7173  23.4865
 20.7403  23.585
 20.7632  23.7539
 20.7863  23.768
 20.8093  23.5877
 20.8323  23.4895
 20.8553  23.4506
 20.8783  23.4221
 20.9013  23.456
 20.9243  23.5794
 20.9473  23.5827
 20.9703  23.5796
 20.9933  23.5546
 21.0163  23.4094
 21.0393  23.3774
 21.0622  23.4545
 21.0853  23.5934
 21.1083  23.6449
 21.1313  23.6838
 21.1543  23.6054
 21.1773  23.6368
 21.2003  23.5757
 21.2233  23.5367
 21.2462  23.5766
 21.2693  23.5981
 21.2923  23.5206
 21.3152  23.4424
 21.3383  23.5185
 21.3613  23.7169
 21.3843  23.8024
 21.4073  23.8736
 21.4303  23.8455
 21.4533  23.7293
 21.4763  23.7282
 21.4992  23.6903
 21.5223  23.6512
 21.5453  23.639
 21.5683  23.6438
 21.5913  23.8129
 21.6142  23.7724
 21.6373  23.7368
 21.6603  23.798
 21.6833  23.879
 21.7063  23.7956
 21.7293  23.808
 21.7523  23.7787
 21.7753  23.7443
 21.7982  23.7819
 21.8213  23.7712
 21.8443  23.8434
 21.8672  23.8295
 21.8903  23.7147
 21.9133  23.7428
 21.9363  23.7658
 21.9593  23.7425
 21.9823  23.743
 22.0053  23.786
 22.0283  23.7984
 22.0512  23.9013
 22.0743  23.9568
 22.0973  23.9809
 22.1203  24.0766
 22.1433  24.1374
 22.1663  24.1665
 22.1893  24.0356
 22.2123  23.9934
 22.2353  24.0531
 22.2583  24.0903
 22.2813  24.071
 22.3043  24.147
 22.3273  24.1273
 22.3502  24.0658
 22.3733  24.0929
 22.3963  24.1117
 22.4193  24.1377
 22.4423  24.2163
 22.4653  24.314
 22.4883  24.384
 22.5113  24.5053
 22.5343  24.4948
 22.5573  24.4521
 22.5803  24.479
 22.6033  24.4212
 22.6263  24.6459
 22.6493  24.7384
 22.6723  24.861
 22.6953  24.9898
 22.7183  24.9315
 22.7413  24.8379
 22.7643  24.8364
 22.7873  24.9114
 22.8103  24.9981
 22.8333  25.131
 22.8563  25.1672
 22.8793  25.1687
 22.9022  25.3007
 22.9253  25.4229
 22.9483  25.5181
 22.9713  25.7146
 22.9943  25.9305