File: test-data-xrd/xrd-map-34-ID-E/Data_0048.chi
F:\20151113_APS_34IDE\\Brian\Particle1\OCV\Data_0048.tif
2-Theta Angle (Degrees)
Intensity
       2000
 0.01725  0.0000000E+00
 0.04025  0.0000000E+00
 0.06325  0.0000000E+00
 0.08625  0.0000000E+00
 0.10925  0.0000000E+00
 0.13225  0.0000000E+00
 0.15525  0.0000000E+00
 0.17825  0.0000000E+00
 0.20125  0.0000000E+00
 0.22425  0.0000000E+00
 0.24725  0.0000000E+00
 0.27025  0.0000000E+00
 0.29325  0.0000000E+00
 0.31625  0.0000000E+00
 0.33925  0.0000000E+00
 0.36225  0.0000000E+00
 0.38525  0.0000000E+00
 0.40825  0.0000000E+00
 0.43125  0.0000000E+00
 0.45425  0.0000000E+00
 0.47725  0.0000000E+00
 0.50025  0.0000000E+00
 0.52325  0.0000000E+00
 0.54625  0.0000000E+00
 0.56925  0.0000000E+00
 0.59225  0.0000000E+00
 0.61525  0.0000000E+00
 0.63825  0.0000000E+00
 0.66125  0.0000000E+00
 0.68425  0.0000000E+00
 0.70725  0.0000000E+00
 0.73025  0.0000000E+00
 0.75325  0.0000000E+00
 0.77625  0.0000000E+00
 0.79925  0.0000000E+00
 0.82225  0.0000000E+00
 0.84525  0.0000000E+00
 0.86825  0.0000000E+00
 0.89125  0.0000000E+00
 0.91425  0.0000000E+00
 0.93725  0.0000000E+00
 0.96025  0.0000000E+00
 0.98325  0.0000000E+00
 1.00625  0.0000000E+00
 1.02925  0.0000000E+00
 1.05225  0.0000000E+00
 1.07525  0.0000000E+00
 1.09825  0.0000000E+00
 1.12125  0.0000000E+00
 1.14425  0.0000000E+00
 1.16725  0.0000000E+00
 1.19025  0.0000000E+00
 1.21325  0.0000000E+00
 1.23625  0.0000000E+00
 1.25925  0.0000000E+00
 1.28225  0.0000000E+00
 1.30525  0.0000000E+00
 1.32825  0.0000000E+00
 1.35125  0.0000000E+00
 1.37425  0.0000000E+00
 1.39725  0.0000000E+00
 1.42025  0.0000000E+00
 1.44325  0.0000000E+00
 1.46625  0.0000000E+00
 1.48925  0.0000000E+00
 1.51225  0.0000000E+00
 1.53525  0.0000000E+00
 1.55825  0.0000000E+00
 1.58125  0.0000000E+00
 1.60425  0.0000000E+00
 1.62725  0.0000000E+00
 1.65025  0.0000000E+00
 1.67325  0.0000000E+00
 1.69625  0.0000000E+00
 1.71925  0.0000000E+00
 1.74225  0.0000000E+00
 1.76525  0.0000000E+00
 1.78825  0.0000000E+00
 1.81125  0.0000000E+00
 1.83425  0.0000000E+00
 1.85725  0.0000000E+00
 1.88025  0.0000000E+00
 1.90325  0.0000000E+00
 1.92625  0.0000000E+00
 1.94925  0.0000000E+00
 1.97225  0.0000000E+00
 1.99525  0.0000000E+00
 2.01825  0.0000000E+00
 2.04125  0.0000000E+00
 2.06425  0.0000000E+00
 2.08725  0.0000000E+00
 2.11025  0.0000000E+00
 2.13325  0.0000000E+00
 2.15625  0.0000000E+00
 2.17925  0.0000000E+00
 2.20225  0.0000000E+00
 2.22525  0.0000000E+00
 2.24825  0.0000000E+00
 2.27125  0.0000000E+00
 2.29425  0.0000000E+00
 2.31725  0.0000000E+00
 2.34025  0.0000000E+00
 2.36325  0.0000000E+00
 2.38625  0.0000000E+00
 2.40925  0.0000000E+00
 2.43225  0.0000000E+00
 2.45525  0.0000000E+00
 2.47825  0.0000000E+00
 2.50125  0.0000000E+00
 2.52425  0.0000000E+00
 2.54725  0.0000000E+00
 2.57025  0.0000000E+00
 2.59325  0.0000000E+00
 2.61625  0.0000000E+00
 2.63925  0.0000000E+00
 2.66225  0.0000000E+00
 2.68525  0.0000000E+00
 2.70825  0.0000000E+00
 2.73125  0.0000000E+00
 2.75425  0.0000000E+00
 2.77725  0.0000000E+00
 2.80025  0.0000000E+00
 2.82325  35.9344
 2.84625  35.3521
 2.86925  35.9158
 2.89225  35.1501
 2.91525  34.6809
 2.93825  34.611
 2.96125  35.0853
 2.98425  34.8055
 3.00725  35.5182
 3.03025  36.5077
 3.05325  35.6002
 3.07625  35.1001
 3.09925  35.125
 3.12225  35.2949
 3.14525  35.4414
 3.16825  35.4104
 3.19125  35.0994
 3.21425  35.1116
 3.23725  35.496
 3.26025  35.8021
 3.28325  35.3265
 3.30625  34.7227
 3.32925  34.9911
 3.35225  34.6495
 3.37525  34.7889
 3.39825  34.4828
 3.42125  33.8558
 3.44425  33.5429
 3.46725  33.2666
 3.49025  33.3223
 3.51325  33.0138
 3.53625  33.1577
 3.55925  33.035
 3.58225  32.5189
 3.60525  32.2827
 3.62825  32.2139
 3.65125  32.2967
 3.67425  32.5207
 3.69725  32.7598
 3.72025  32.6648
 3.74325  33.0411
 3.76625  33.1197
 3.78925  32.6779
 3.81225  32.3571
 3.83525  32.2629
 3.85825  31.9772
 3.88125  32.0756
 3.90425  32.1675
 3.92725  32.5655
 3.95025  32.8347
 3.97325  32.8796
 3.99625  32.8454
 4.01925  32.4484
 4.04225  32.2168
 4.06525  32.2406
 4.08825  32.2892
 4.11125  32.2589
 4.13425  32.2131
 4.15725  32.4202
 4.18025  32.27
 4.20325  32.0219
 4.22625  31.813
 4.24925  31.958
 4.27225  31.9615
 4.29525  31.7583
 4.31825  31.6576
 4.34125  31.9281
 4.36425  32.3508
 4.38725  32.4738
 4.41025  32.826
 4.43325  33.7474
 4.45625  33.673
 4.47925  32.7689
 4.50225  32.5754
 4.52525  32.8047
 4.54825  32.6685
 4.57125  32.6219
 4.59425  32.5993
 4.61725  32.6152
 4.64025  32.7264
 4.66325  32.8864
 4.68625  32.6702
 4.70925  32.4896
 4.73225  32.3507
 4.75525  32.4214
 4.77825  32.5674
 4.80125  32.6298
 4.82425  32.8326
 4.84725  32.7897
 4.87025  32.668
 4.89325  32.4427
 4.91625  32.5676
 4.93925  32.5698
 4.96225  32.4478
 4.98525  32.4232
 5.00825  32.814
 5.03125  33.1766
 5.05425  33.4826
 5.07725  33.5502
 5.10025  33.6036
 5.12325  33.6062
 5.14625  33.6755
 5.16925  33.7342
 5.19225  33.945
 5.21525  33.8699
 5.23825  33.8779
 5.26125  33.7625
 5.28425  33.8765
 5.30725  34.2887
 5.33025  34.338
 5.35325  34.3012
 5.37625  34.3513
 5.39925  34.5257
 5.42225  34.6812
 5.44525  34.7325
 5.46825  34.9651
 5.49125  34.8817
 5.51425  34.6863
 5.53725  34.6781
 5.56025  34.7346
 5.58325  34.95
 5.60625  35.1384
 5.62925  35.2082
 5.65225  35.2087
 5.67525  35.2062
 5.69825  35.3389
 5.72125  35.5984
 5.74425  35.8709
 5.76725  35.993
 5.79025  35.9654
 5.81325  36.1824
 5.83625  36.4912
 5.85925  36.685
 5.88225  37.3466
 5.90525  39.1614
 5.92825  43.7569
 5.95125  54.6085
 5.97425  67.2456
 5.99725  68.3236
 6.02025  56.0734
 6.04325  44.402
 6.06625  39.9328
 6.08925  38.391
 6.11225  37.6574
 6.13525  37.271
 6.15825  37.0651
 6.18125  37.2435
 6.20425  37.3249
 6.22725  37.3149
 6.25025  37.1814
 6.27325  37.3249
 6.29625  37.5611
 6.31925  37.6803
 6.34225  37.8041
 6.36525  37.8186
 6.38825  38.0023
 6.41125  38.1479
 6.43425  38.0984
 6.45725  38.343
 6.48025  38.7469
 6.50325  39.0087
 6.52625  39.2069
 6.54925  39.0881
 6.57225  39.295
 6.59525  39.6443
 6.61825  39.7688
 6.64125  39.7906
 6.66425  40.0223
 6.68725  40.2729
 6.71025  40.3112
 6.73325  40.5256
 6.75625  40.6885
 6.77925  40.9104
 6.80225  41.2559
 6.82525  41.5653
 6.84825  41.6079
 6.87125  41.4872
 6.89425  41.4964
 6.91725  41.6277
 6.94025  41.8981
 6.96325  42.0886
 6.98625  42.1736
 7.00925  42.3329
 7.03225  42.6038
 7.05525  42.6397
 7.07825  42.7714
 7.10125  42.761
 7.12425  42.7274
 7.14725  43.0079
 7.17025  43.3329
 7.19325  43.5399
 7.21625  43.4945
 7.23925  43.4142
 7.26225  43.432
 7.28525  43.5739
 7.30825  43.6969
 7.33125  43.8623
 7.35425  44.3642
 7.37725  45.4481
 7.40025  45.7719
 7.42325  45.1271
 7.44625  44.4519
 7.46925  44.3745
 7.49225  44.322
 7.51525  44.3186
 7.53825  44.4488
 7.56125  44.3206
 7.58425  44.3328
 7.60725  44.3955
 7.63025  44.2337
 7.65325  44.0993
 7.67625  43.9271
 7.69925  43.9253
 7.72225  44.0055
 7.74525  44.1139
 7.76825  44.0269
 7.79125  44.0206
 7.81425  44.0996
 7.83725  44.315
 7.86025  44.1852
 7.88325  43.8123
 7.90625  43.8297
 7.92925  43.7917
 7.95225  43.5835
 7.97525  43.4584
 7.99825  43.4276
 8.02125  43.3006
 8.04425  43.3128
 8.06725  43.2716
 8.09025  43.1878
 8.11325  43.0376
 8.13625  42.4908
 8.15925  41.9755
 8.18225  41.809
 8.20525  41.7073
 8.22825  41.4823
 8.25125  41.2266
 8.27425  41.0542
 8.29725  40.7919
 8.32025  40.4586
 8.34325  40.1474
 8.36625  39.8982
 8.38925  39.592
 8.41225  39.1636
 8.43525  38.7455
 8.45825  38.438
 8.48125  38.2337
 8.50425  37.9327
 8.52725  37.5873
 8.55025  36.9898
 8.57325  36.562
 8.59625  36.22
 8.61925  36.1882
 8.64225  35.9491
 8.66525  35.5387
 8.68825  35.1575
 8.71125  34.824
 8.73425  34.2967
 8.75725  33.8017
 8.78025  33.4814
 8.80325  33.1942
 8.82625  33.0089
 8.84925  32.8729
 8.87225  32.6764
 8.89525  32.3471
 8.91825  31.8656
 8.94125  31.4849
 8.96425  31.1994
 8.98725  30.9703
 9.01025  30.6968
 9.03325  30.479
 9.05625  30.1995
 9.07925  29.9969
 9.10225  29.6833
 9.12525  29.5225
 9.14825  29.3595
 9.17125  29.1894
 9.19425  29.0628
 9.21725  28.8115
 9.24025  28.4437
 9.26325  28.237
 9.28625  28.0118
 9.30925  27.7125
 9.33225  27.4595
 9.35525  27.3315
 9.37825  27.2256
 9.40125  27.1221
 9.42425  26.937
 9.44725  26.813
 9.47025  26.8157
 9.49325  26.7544
 9.51625  26.5196
 9.53925  26.2432
 9.56225  26.1466
 9.58525  26.0014
 9.60825  25.9245
 9.63125  25.9414
 9.65425  25.902
 9.67725  25.694
 9.70025  25.4805
 9.72325  25.4803
 9.74625  25.4422
 9.76925  25.2844
 9.79225  25.1696
 9.81525  25.0715
 9.83825  24.9705
 9.86125  24.8857
 9.88425  24.7158
 9.90725  24.6027
 9.93025  24.5335
 9.95325  24.4132
 9.97625  24.3849
 9.99925  24.3149
 10.0222  24.239
 10.0453  24.2327
 10.0683  24.281
 10.0913  24.2306
 10.1143  24.1063
 10.1373  23.9729
 10.1603  24.0881
 10.1832  24.0487
 10.2063  23.9582
 10.2293  23.9923
 10.2523  23.853
 10.2752  23.719
 10.2982  23.6283
 10.3213  23.5892
 10.3443  23.6761
 10.3673  23.64
 10.3902  23.5398
 10.4133  23.4431
 10.4363  23.3365
 10.4593  23.2809
 10.4823  23.2858
 10.5053  23.3546
 10.5283  23.3265
 10.5512  23.3217
 10.5742  23.2294
 10.5973  23.0422
 10.6203  23.1361
 10.6433  23.2564
 10.6662  23.2717
 10.6893  23.061
 10.7123  23.0023
 10.7353  23.0748
 10.7583  23.1392
 10.7813  22.9578
 10.8043  22.8102
 10.8272  22.6592
 10.8503  22.7273
 10.8733  22.7988
 10.8963  22.7462
 10.9192  22.7197
 10.9422  22.7214
 10.9653  22.7584
 10.9883  22.7958
 11.0113  22.7938
 11.0343  22.6854
 11.0573  22.583
 11.0803  22.6865
 11.1033  22.729
 11.1263  22.7135
 11.1493  22.7741
 11.1723  22.7465
 11.1953  22.8055
 11.2182  22.6419
 11.2413  22.6076
 11.2643  22.6613
 11.2873  22.6771
 11.3102  22.6808
 11.3333  22.828
 11.3563  22.8491
 11.3793  22.9227
 11.4023  23.0522
 11.4253  23.1612
 11.4483  23.2402
 11.4713  23.2382
 11.4942  23.2851
 11.5173  23.813
 11.5403  25.6857
 11.5633  28.0684
 11.5862  29.1984
 11.6093  28.47
 11.6323  26.4905
 11.6553  24.6924
 11.6783  23.6348
 11.7013  23.1577
 11.7243  22.8965
 11.7473  22.7196
 11.7703  22.6018
 11.7933  22.5673
 11.8163  22.6287
 11.8393  22.7049
 11.8622  22.7264
 11.8853  22.6926
 11.9083  22.8628
 11.9313  23.1003
 11.9543  23.7179
 11.9773  24.7854
 12.0003  25.5895
 12.0233  25.007
 12.0463  24.2693
 12.0693  24.5324
 12.0923  26.3151
 12.1153  27.0294
 12.1382  26.0115
 12.1613  24.4115
 12.1843  23.4549
 12.2073  23.0124
 12.2302  22.8255
 12.2533  22.7475
 12.2763  22.7009
 12.2993  22.6845
 12.3223  22.7446
 12.3453  22.7184
 12.3683  22.735
 12.3913  22.7305
 12.4142  22.6601
 12.4373  22.6309
 12.4603  22.6852
 12.4833  22.7787
 12.5062  22.8061
 12.5292  22.8289
 12.5523  22.9284
 12.5753  22.9733
 12.5983  22.9111
 12.6212  22.8892
 12.6443  22.8976
 12.6673  22.9678
 12.6903  23.0048
 12.7133  23.0027
 12.7363  23.0837
 12.7593  23.1927
 12.7822  23.2912
 12.8052  23.369
 12.8283  23.4583
 12.8513  23.5982
 12.8742  23.7017
 12.8972  23.7594
 12.9203  23.8933
 12.9433  24.073
 12.9663  24.1037
 12.9893  24.0919
 13.0123  24.2236
 13.0353  24.3661
 13.0582  24.4945
 13.0813  24.6793
 13.1043  24.9526
 13.1273  25.2598
 13.1502  25.3631
 13.1732  25.5775
 13.1963  25.8138
 13.2193  26.1143
 13.2423  26.4349
 13.2652  26.6918
 13.2883  26.9285
 13.3113  27.1984
 13.3343  27.5847
 13.3573  27.9445
 13.3803  28.0627
 13.4033  28.2698
 13.4262  28.5427
 13.4492  28.7622
 13.4723  29.0718
 13.4953  29.3667
 13.5183  29.6037
 13.5412  29.6754
 13.5643  29.8087
 13.5873  29.9532
 13.6103  29.9274
 13.6333  29.9407
 13.6563  29.9595
 13.6793  29.9905
 13.7022  29.9191
 13.7253  29.9404
 13.7483  30.1
 13.7713  30.2016
 13.7942  30.204
 13.8172  30.0958
 13.8403  30.2676
 13.8633  31.0339
 13.8863  33.1894
 13.9093  39.1235
 13.9323  50.7621
 13.9553  57.922
 13.9783  53.7561
 14.0013  43.0495
 14.0243  34.8066
 14.0473  30.6868
 14.0703  29.1968
 14.0932  28.5918
 14.1163  28.1231
 14.1393  27.8138
 14.1623  27.5853
 14.1852  27.3696
 14.2083  27.1816
 14.2313  26.9636
 14.2543  26.7807
 14.2773  26.6088
 14.3003  26.5197
 14.3233  26.4507
 14.3463  26.528
 14.3692  26.5212
 14.3923  26.3521
 14.4153  26.1651
 14.4383  26.1291
 14.4612  26.0623
 14.4843  25.8211
 14.5073  25.7642
 14.5303  25.8626
 14.5533  25.8625
 14.5763  25.8199
 14.5993  25.6649
 14.6223  25.4877
 14.6453  25.517
 14.6683  25.5164
 14.6913  25.5749
 14.7143  25.5087
 14.7372  25.3075
 14.7603  25.1551
 14.7833  25.1952
 14.8063  25.1618
 14.8293  25.1359
 14.8523  25.1722
 14.8753  25.1626
 14.8983  25.1813
 14.9213  25.1324
 14.9443  25.0698
 14.9673  25.0381
 14.9903  25.014
 15.0132  25.0538
 15.0363  25.0856
 15.0593  25.1347
 15.0823  25.1678
 15.1052  25.326
 15.1283  26.005
 15.1513  27.246
 15.1743  28.2712
 15.1973  28.2592
 15.2203  27.5811
 15.2433  26.6953
 15.2663  25.8333
 15.2892  25.3582
 15.3123  25.0998
 15.3353  24.9576
 15.3583  24.9244
 15.3812  24.8761
 15.4043  24.8738
 15.4273  24.7674
 15.4503  24.7133
 15.4733  24.6246
 15.4963  24.6115
 15.5193  24.6511
 15.5423  24.6026
 15.5653  24.6368
 15.5883  24.6105
 15.6113  24.5967
 15.6343  24.7064
 15.6572  24.6803
 15.6803  24.6997
 15.7033  24.7356
 15.7263  24.7472
 15.7492  24.711
 15.7723  24.7463
 15.7953  24.6941
 15.8183  24.8494
 15.8413  24.8688
 15.8643  24.7642
 15.8873  24.7503
 15.9103  24.8682
 15.9332  24.8259
 15.9563  24.7108
 15.9793  24.71
 16.0023  24.8099
 16.0253  24.9335
 16.0482  25.0161
 16.0713  25.0119
 16.0943  24.9862
 16.1172  25.0107
 16.1403  25.037
 16.1633  25.2253
 16.1863  25.4315
 16.2093  25.6522
 16.2323  26.0089
 16.2553  26.416
 16.2783  26.3435
 16.3012  25.6352
 16.3243  25.1138
 16.3472  24.9197
 16.3703  24.746
 16.3933  24.7014
 16.4163  24.8543
 16.4393  24.9062
 16.4623  24.7995
 16.4853  24.7791
 16.5083  24.833
 16.5312  24.8054
 16.5543  24.8335
 16.5773  24.7898
 16.6002  24.7349
 16.6233  24.6637
 16.6463  24.68
 16.6693  24.6827
 16.6923  24.6079
 16.7153  24.6196
 16.7383  24.7537
 16.7613  24.6503
 16.7843  24.5743
 16.8073  24.5687
 16.8303  24.5772
 16.8533  24.566
 16.8763  24.5533
 16.8992  24.5682
 16.9223  24.5512
 16.9453  24.5117
 16.9683  24.4194
 16.9913  24.4622
 17.0143  24.4952
 17.0373  24.4823
 17.0603  24.3872
 17.0832  24.3714
 17.1063  24.4296
 17.1293  24.3819
 17.1522  24.238
 17.1753  24.2844
 17.1983  24.3454
 17.2213  24.3534
 17.2443  24.2826
 17.2673  24.1741
 17.2903  24.2158
 17.3133  24.2088
 17.3362  24.2382
 17.3593  24.1999
 17.3823  24.2115
 17.4053  24.0755
 17.4283  24.0846
 17.4513  24.1145
 17.4743  24.1924
 17.4973  24.2184
 17.5203  24.1335
 17.5433  24.1189
 17.5663  24.0926
 17.5893  24.0675
 17.6123  24.139
 17.6352  24.2096
 17.6583  24.1085
 17.6813  24.0172
 17.7042  24.0484
 17.7273  24.071
 17.7503  24.0525
 17.7733  24.0453
 17.7963  24.0873
 17.8193  24.029
 17.8423  24.0526
 17.8653  24.1062
 17.8882  24.036
 17.9113  23.951
 17.9343  24.0253
 17.9573  24.2809
 17.9803  24.6136
 18.0033  25.2991
 18.0263  26.1604
 18.0493  27.2988
 18.0723  28.5329
 18.0953  29.4916
 18.1183  29.6129
 18.1413  28.7296
 18.1643  26.9565
 18.1872  25.3057
 18.2103  24.4885
 18.2333  24.1115
 18.2563  24.0005
 18.2793  23.9985
 18.3023  23.928
 18.3253  23.8287
 18.3483  23.8006
 18.3712  23.8193
 18.3943  23.8441
 18.4173  23.887
 18.4402  23.8651
 18.4633  23.845
 18.4863  23.8093
 18.5093  23.7678
 18.5323  23.7615
 18.5553  23.7686
 18.5783  23.7956
 18.6013  23.8666
 18.6242  23.7716
 18.6473  23.7877
 18.6703  23.7808
 18.6933  23.7509
 18.7163  23.8314
 18.7392  23.8376
 18.7623  23.7862
 18.7853  23.7662
 18.8083  23.8164
 18.8313  23.7966
 18.8543  23.6949
 18.8773  23.5811
 18.9003  23.5751
 18.9232  23.6317
 18.9463  23.8086
 18.9693  23.7853
 18.9922  23.7506
 19.0153  23.8566
 19.0383  23.7515
 19.0613  23.7066
 19.0843  23.7038
 19.1073  24.2535
 19.1303  24.0195
 19.1533  23.9292
 19.1762  23.743
 19.1993  23.7094
 19.2223  23.733
 19.2453  23.8077
 19.2683  23.8651
 19.2913  23.855
 19.3143  23.9156
 19.3373  23.8788
 19.3603  23.8988
 19.3833  23.9098
 19.4062  23.9539
 19.4293  23.9112
 19.4523  23.9436
 19.4752  24.0874
 19.4983  24.1035
 19.5213  24.0692
 19.5443  24.1807
 19.5673  24.2949
 19.5903  24.5515
 19.6133  24.9391
 19.6363  25.6107
 19.6593  26.8718
 19.6823  29.5378
 19.7053  34.6406
 19.7283  37.3988
 19.7513  35.2221
 19.7742  31.1663
 19.7973  29.7115
 19.8203  33.5239
 19.8433  37.9921
 19.8663  38.2642
 19.8893  33.5557
 19.9123  29.0888
 19.9353  26.3709
 19.9582  25.2737
 19.9813  24.7215
 20.0043  24.5136
 20.0272  24.3906
 20.0503  24.3574
 20.0733  24.2723
 20.0963  24.2433
 20.1193  24.1982
 20.1423  24.0588
 20.1653  23.9806
 20.1883  23.9308
 20.2112  23.9223
 20.2343  24.0033
 20.2573  24.0327
 20.2803  23.9717
 20.3033  23.9363
 20.3263  23.9308
 20.3493  24.0137
 20.3723  23.9277
 20.3953  23.9006
 20.4183  23.9239
 20.4413  23.9447
 20.4643  23.8882
 20.4873  23.8944
 20.5102  23.9636
 20.5333  23.9472
 20.5563  23.9503
 20.5792  23.9643
 20.6023  24.0691
 20.6253  24.0892
 20.6483  24.1528
 20.6713  24.189
 20.6943  24.5187
 20.7173  25.1007
 20.7403  25.8008
 20.7632  26.2753
 20.7863  26.1507
 20.8093  25.5348
 20.8323  24.8017
 20.8553  24.3527
 20.8783  24.2481
 20.9013  24.2113
 20.9243  24.2136
 20.9473  24.209
 20.9703  24.1202
 20.9933  24.0573
 21.0163  24.058
 21.0393  24.0775
 21.0622  24.0958
 21.0853  24.1274
 21.1083  24.0743
 21.1313  24.0431
 21.1543  23.9935
 21.1773  24.0782
 21.2003  24.1589
 21.2233  24.1554
 21.2462  24.0549
 21.2693  23.9973
 21.2923  24.0498
 21.3152  24.0194
 21.3383  24.1273
 21.3613  24.1669
 21.3843  24.1462
 21.4073  24.093
 21.4303  24.1035
 21.4533  24.0942
 21.4763  24.153
 21.4992  24.2441
 21.5223  24.2933
 21.5453  24.3221
 21.5683  24.2351
 21.5913  24.2714
 21.6142  24.2477
 21.6373  24.2473
 21.6603  24.2704
 21.6833  24.3244
 21.7063  24.3125
 21.7293  24.4161
 21.7523  24.4071
 21.7753  24.3769
 21.7982  24.3891
 21.8213  24.3893
 21.8443  24.3487
 21.8672  24.3581
 21.8903  24.3898
 21.9133  24.4166
 21.9363  24.3467
 21.9593  24.4733
 21.9823  24.5349
 22.0053  24.4636
 22.0283  24.4197
 22.0512  24.4033
 22.0743  24.4338
 22.0973  24.4919
 22.1203  24.5454
 22.1433  24.5134
 22.1663  24.4931
 22.1893  24.5648
 22.2123  24.6267
 22.2353  24.742
 22.2583  24.6934
 22.2813  24.6054
 22.3043  24.6956
 22.3273  24.7394
 22.3502  24.7974
 22.3733  24.7175
 22.3963  24.664
 22.4193  24.6287
 22.4423  24.806
 22.4653  24.9028
 22.4883  24.8634
 22.5113  24.9652
 22.5343  24.9968
 22.5573  25.0566
 22.5803  25.0368
 22.6033  25.0506
 22.6263  25.1336
 22.6493  25.1202
 22.6723  25.1991
 22.6953  25.3901
 22.7183  25.4617
 22.7413  25.5154
 22.7643  25.4561
 22.7873  25.3805
 22.8103  25.4236
 22.8333  25.5417
 22.8563  25.7066
 22.8793  25.8023
 22.9022  25.8696
 22.9253  26.1501
 22.9483  26.3123
 22.9713  26.4865
 22.9943  26.6391