File: test-data-xrd/xrd-map-34-ID-E/Data_0130.chi
F:\20151113_APS_34IDE\\Brian\Particle1\OCV\Data_0130.tif
2-Theta Angle (Degrees)
Intensity
       2000
 0.01725  0.0000000E+00
 0.04025  0.0000000E+00
 0.06325  0.0000000E+00
 0.08625  0.0000000E+00
 0.10925  0.0000000E+00
 0.13225  0.0000000E+00
 0.15525  0.0000000E+00
 0.17825  0.0000000E+00
 0.20125  0.0000000E+00
 0.22425  0.0000000E+00
 0.24725  0.0000000E+00
 0.27025  0.0000000E+00
 0.29325  0.0000000E+00
 0.31625  0.0000000E+00
 0.33925  0.0000000E+00
 0.36225  0.0000000E+00
 0.38525  0.0000000E+00
 0.40825  0.0000000E+00
 0.43125  0.0000000E+00
 0.45425  0.0000000E+00
 0.47725  0.0000000E+00
 0.50025  0.0000000E+00
 0.52325  0.0000000E+00
 0.54625  0.0000000E+00
 0.56925  0.0000000E+00
 0.59225  0.0000000E+00
 0.61525  0.0000000E+00
 0.63825  0.0000000E+00
 0.66125  0.0000000E+00
 0.68425  0.0000000E+00
 0.70725  0.0000000E+00
 0.73025  0.0000000E+00
 0.75325  0.0000000E+00
 0.77625  0.0000000E+00
 0.79925  0.0000000E+00
 0.82225  0.0000000E+00
 0.84525  0.0000000E+00
 0.86825  0.0000000E+00
 0.89125  0.0000000E+00
 0.91425  0.0000000E+00
 0.93725  0.0000000E+00
 0.96025  0.0000000E+00
 0.98325  0.0000000E+00
 1.00625  0.0000000E+00
 1.02925  0.0000000E+00
 1.05225  0.0000000E+00
 1.07525  0.0000000E+00
 1.09825  0.0000000E+00
 1.12125  0.0000000E+00
 1.14425  0.0000000E+00
 1.16725  0.0000000E+00
 1.19025  0.0000000E+00
 1.21325  0.0000000E+00
 1.23625  0.0000000E+00
 1.25925  0.0000000E+00
 1.28225  0.0000000E+00
 1.30525  0.0000000E+00
 1.32825  0.0000000E+00
 1.35125  0.0000000E+00
 1.37425  0.0000000E+00
 1.39725  0.0000000E+00
 1.42025  0.0000000E+00
 1.44325  0.0000000E+00
 1.46625  0.0000000E+00
 1.48925  0.0000000E+00
 1.51225  0.0000000E+00
 1.53525  0.0000000E+00
 1.55825  0.0000000E+00
 1.58125  0.0000000E+00
 1.60425  0.0000000E+00
 1.62725  0.0000000E+00
 1.65025  0.0000000E+00
 1.67325  0.0000000E+00
 1.69625  0.0000000E+00
 1.71925  0.0000000E+00
 1.74225  0.0000000E+00
 1.76525  0.0000000E+00
 1.78825  0.0000000E+00
 1.81125  0.0000000E+00
 1.83425  0.0000000E+00
 1.85725  0.0000000E+00
 1.88025  0.0000000E+00
 1.90325  0.0000000E+00
 1.92625  0.0000000E+00
 1.94925  0.0000000E+00
 1.97225  0.0000000E+00
 1.99525  0.0000000E+00
 2.01825  0.0000000E+00
 2.04125  0.0000000E+00
 2.06425  0.0000000E+00
 2.08725  0.0000000E+00
 2.11025  0.0000000E+00
 2.13325  0.0000000E+00
 2.15625  0.0000000E+00
 2.17925  0.0000000E+00
 2.20225  0.0000000E+00
 2.22525  0.0000000E+00
 2.24825  0.0000000E+00
 2.27125  0.0000000E+00
 2.29425  0.0000000E+00
 2.31725  0.0000000E+00
 2.34025  0.0000000E+00
 2.36325  0.0000000E+00
 2.38625  0.0000000E+00
 2.40925  0.0000000E+00
 2.43225  0.0000000E+00
 2.45525  0.0000000E+00
 2.47825  0.0000000E+00
 2.50125  0.0000000E+00
 2.52425  0.0000000E+00
 2.54725  0.0000000E+00
 2.57025  0.0000000E+00
 2.59325  0.0000000E+00
 2.61625  0.0000000E+00
 2.63925  0.0000000E+00
 2.66225  0.0000000E+00
 2.68525  0.0000000E+00
 2.70825  0.0000000E+00
 2.73125  0.0000000E+00
 2.75425  0.0000000E+00
 2.77725  0.0000000E+00
 2.80025  0.0000000E+00
 2.82325  34.1746
 2.84625  34.8341
 2.86925  35.1576
 2.89225  36.6853
 2.91525  36.688
 2.93825  36.0642
 2.96125  35.7888
 2.98425  36.1667
 3.00725  36.6877
 3.03025  36.6065
 3.05325  36.174
 3.07625  35.5283
 3.09925  35.5188
 3.12225  35.2059
 3.14525  35.0095
 3.16825  35.2579
 3.19125  35.1394
 3.21425  34.8101
 3.23725  34.7907
 3.26025  34.5038
 3.28325  33.8364
 3.30625  34.201
 3.32925  34.4669
 3.35225  34.7195
 3.37525  35.1543
 3.39825  34.8956
 3.42125  34.5667
 3.44425  34.6208
 3.46725  34.951
 3.49025  35.0257
 3.51325  34.7724
 3.53625  34.4913
 3.55925  34.1511
 3.58225  33.5529
 3.60525  32.9956
 3.62825  32.8723
 3.65125  32.9458
 3.67425  33.0151
 3.69725  32.8596
 3.72025  32.9042
 3.74325  33.2151
 3.76625  33.5231
 3.78925  33.0138
 3.81225  32.8139
 3.83525  32.9352
 3.85825  33.1334
 3.88125  33.2313
 3.90425  33.1059
 3.92725  33.0006
 3.95025  33.2314
 3.97325  33.0652
 3.99625  32.9666
 4.01925  32.9936
 4.04225  32.9523
 4.06525  32.7392
 4.08825  32.3915
 4.11125  32.182
 4.13425  32.2012
 4.15725  32.1695
 4.18025  32.0261
 4.20325  32.0667
 4.22625  32.1681
 4.24925  32.2637
 4.27225  32.4887
 4.29525  32.4938
 4.31825  32.3684
 4.34125  32.2308
 4.36425  32.34
 4.38725  32.3025
 4.41025  32.5679
 4.43325  32.6898
 4.45625  32.4749
 4.47925  32.4927
 4.50225  32.6385
 4.52525  32.7638
 4.54825  32.8253
 4.57125  32.4921
 4.59425  32.3513
 4.61725  32.4799
 4.64025  32.6971
 4.66325  32.8947
 4.68625  32.9061
 4.70925  32.9776
 4.73225  33.0503
 4.75525  32.7777
 4.77825  32.7425
 4.80125  32.5546
 4.82425  32.3799
 4.84725  32.4984
 4.87025  32.6419
 4.89325  32.6307
 4.91625  32.5325
 4.93925  32.3181
 4.96225  32.4308
 4.98525  32.7202
 5.00825  32.9873
 5.03125  33.1846
 5.05425  33.2608
 5.07725  33.3
 5.10025  33.3185
 5.12325  33.5794
 5.14625  33.857
 5.16925  34.0719
 5.19225  34.0542
 5.21525  33.9789
 5.23825  33.7703
 5.26125  33.568
 5.28425  33.6413
 5.30725  33.9521
 5.33025  34.1543
 5.35325  34.2045
 5.37625  34.2582
 5.39925  34.3773
 5.42225  34.2897
 5.44525  34.1622
 5.46825  34.2249
 5.49125  34.4006
 5.51425  34.6155
 5.53725  34.7848
 5.56025  35.0667
 5.58325  35.3207
 5.60625  35.151
 5.62925  35.075
 5.65225  35.2254
 5.67525  35.3619
 5.69825  35.4824
 5.72125  35.3927
 5.74425  35.3908
 5.76725  35.3465
 5.79025  35.468
 5.81325  35.4079
 5.83625  35.5306
 5.85925  35.4694
 5.88225  35.4552
 5.90525  35.7287
 5.92825  35.9241
 5.95125  36.4519
 5.97425  36.9649
 5.99725  37.1444
 6.02025  36.8067
 6.04325  36.2615
 6.06625  36.1129
 6.08925  36.1208
 6.11225  36.1318
 6.13525  36.2019
 6.15825  36.4997
 6.18125  36.6916
 6.20425  36.6324
 6.22725  36.8673
 6.25025  36.9477
 6.27325  37.2289
 6.29625  37.475
 6.31925  37.5522
 6.34225  37.7762
 6.36525  37.8412
 6.38825  38.0353
 6.41125  38.225
 6.43425  38.2828
 6.45725  38.2607
 6.48025  38.2845
 6.50325  38.6632
 6.52625  39.1699
 6.54925  39.3251
 6.57225  39.325
 6.59525  39.4167
 6.61825  39.703
 6.64125  39.7933
 6.66425  39.8301
 6.68725  39.9057
 6.71025  40.2359
 6.73325  40.6193
 6.75625  40.6895
 6.77925  40.8764
 6.80225  40.9731
 6.82525  41.1541
 6.84825  41.1006
 6.87125  41.3304
 6.89425  41.5594
 6.91725  41.6331
 6.94025  41.7214
 6.96325  41.9157
 6.98625  42.1175
 7.00925  42.5157
 7.03225  42.7009
 7.05525  42.6787
 7.07825  42.7409
 7.10125  42.9204
 7.12425  43.0288
 7.14725  43.1499
 7.17025  43.2546
 7.19325  43.2463
 7.21625  43.1844
 7.23925  43.213
 7.26225  43.4271
 7.28525  43.5241
 7.30825  43.5515
 7.33125  43.8222
 7.35425  43.8777
 7.37725  43.9976
 7.40025  43.8891
 7.42325  43.9748
 7.44625  44.1052
 7.46925  44.166
 7.49225  44.1456
 7.51525  44.2008
 7.53825  44.2102
 7.56125  44.3139
 7.58425  44.4327
 7.60725  44.4777
 7.63025  44.562
 7.65325  44.4294
 7.67625  44.0955
 7.69925  43.9096
 7.72225  43.9615
 7.74525  44.0272
 7.76825  44.0723
 7.79125  44.0467
 7.81425  44.0612
 7.83725  44.0263
 7.86025  44.1013
 7.88325  44.0231
 7.90625  43.9758
 7.92925  43.9436
 7.95225  43.8519
 7.97525  43.5602
 7.99825  43.3256
 8.02125  43.1331
 8.04425  43.0628
 8.06725  42.9044
 8.09025  42.7919
 8.11325  42.7011
 8.13625  42.4318
 8.15925  42.1247
 8.18225  41.9633
 8.20525  41.7267
 8.22825  41.388
 8.25125  41.1213
 8.27425  40.8131
 8.29725  40.5685
 8.32025  40.3881
 8.34325  40.292
 8.36625  40.2527
 8.38925  39.8204
 8.41225  39.2964
 8.43525  38.8137
 8.45825  38.4306
 8.48125  38.0042
 8.50425  37.6971
 8.52725  37.4034
 8.55025  37.063
 8.57325  36.7912
 8.59625  36.5385
 8.61925  36.1932
 8.64225  35.8447
 8.66525  35.3915
 8.68825  35.1232
 8.71125  34.8476
 8.73425  34.4497
 8.75725  33.8981
 8.78025  33.5287
 8.80325  33.2559
 8.82625  33.0111
 8.84925  32.6078
 8.87225  32.3289
 8.89525  31.9524
 8.91825  31.6525
 8.94125  31.4586
 8.96425  31.2909
 8.98725  30.8933
 9.01025  30.3695
 9.03325  29.9977
 9.05625  29.76
 9.07925  29.5259
 9.10225  29.3497
 9.12525  29.1403
 9.14825  28.9268
 9.17125  28.7016
 9.19425  28.4553
 9.21725  28.1967
 9.24025  27.8967
 9.26325  27.7008
 9.28625  27.599
 9.30925  27.4295
 9.33225  27.28
 9.35525  27.1055
 9.37825  27.0203
 9.40125  26.711
 9.42425  26.4424
 9.44725  26.3369
 9.47025  26.4329
 9.49325  26.4236
 9.51625  26.282
 9.53925  25.9851
 9.56225  25.7663
 9.58525  25.5414
 9.60825  25.4501
 9.63125  25.4045
 9.65425  25.3622
 9.67725  25.2717
 9.70025  25.2248
 9.72325  25.0599
 9.74625  24.7934
 9.76925  24.7079
 9.79225  24.6779
 9.81525  24.6619
 9.83825  24.5133
 9.86125  24.4505
 9.88425  24.4661
 9.90725  24.3829
 9.93025  24.272
 9.95325  24.1435
 9.97625  24.0907
 9.99925  24.069
 10.0222  24.0859
 10.0453  24.0847
 10.0683  23.9214
 10.0913  23.7415
 10.1143  23.6261
 10.1373  23.585
 10.1603  23.6461
 10.1832  23.6292
 10.2063  23.5976
 10.2293  23.5915
 10.2523  23.4285
 10.2752  23.4232
 10.2982  23.4662
 10.3213  23.4338
 10.3443  23.2217
 10.3673  23.0783
 10.3902  23.2096
 10.4133  23.2177
 10.4363  23.0332
 10.4593  22.9119
 10.4823  22.9273
 10.5053  22.87
 10.5283  22.7881
 10.5512  22.7589
 10.5742  22.8086
 10.5973  22.8613
 10.6203  22.8399
 10.6433  22.7562
 10.6662  22.7382
 10.6893  22.659
 10.7123  22.6995
 10.7353  22.6687
 10.7583  22.6297
 10.7813  22.5818
 10.8043  22.5586
 10.8272  22.5517
 10.8503  22.5397
 10.8733  22.4865
 10.8963  22.4354
 10.9192  22.4634
 10.9422  22.4021
 10.9653  22.4132
 10.9883  22.3168
 11.0113  22.341
 11.0343  22.3628
 11.0573  22.2119
 11.0803  22.1793
 11.1033  22.2884
 11.1263  22.3331
 11.1493  22.2985
 11.1723  22.3134
 11.1953  22.1423
 11.2182  22.1253
 11.2413  22.1795
 11.2643  22.2454
 11.2873  22.1801
 11.3102  22.1801
 11.3333  22.2545
 11.3563  22.2817
 11.3793  22.2808
 11.4023  22.4117
 11.4253  22.3665
 11.4483  22.3202
 11.4713  22.3657
 11.4942  22.4096
 11.5173  22.455
 11.5403  22.6038
 11.5633  22.7475
 11.5862  22.8535
 11.6093  22.7719
 11.6323  22.5789
 11.6553  22.3032
 11.6783  22.1376
 11.7013  22.0503
 11.7243  22.0198
 11.7473  22.0348
 11.7703  21.9943
 11.7933  22.0617
 11.8163  22.1864
 11.8393  22.1642
 11.8622  22.0171
 11.8853  21.963
 11.9083  21.9689
 11.9313  22.0328
 11.9543  22.1745
 11.9773  22.2685
 12.0003  22.2757
 12.0233  22.2613
 12.0463  22.3353
 12.0693  22.4605
 12.0923  22.5048
 12.1153  22.466
 12.1382  22.3913
 12.1613  22.3598
 12.1843  22.3143
 12.2073  22.1727
 12.2302  22.0086
 12.2533  22.0743
 12.2763  22.1836
 12.2993  22.1967
 12.3223  22.2071
 12.3453  22.2789
 12.3683  22.3518
 12.3913  22.3776
 12.4142  22.3121
 12.4373  22.2596
 12.4603  22.2283
 12.4833  22.3472
 12.5062  22.3391
 12.5292  22.2526
 12.5523  22.3071
 12.5753  22.417
 12.5983  22.445
 12.6212  22.4509
 12.6443  22.4737
 12.6673  22.4531
 12.6903  22.5892
 12.7133  22.6964
 12.7363  22.7461
 12.7593  22.6699
 12.7822  22.7764
 12.8052  22.8928
 12.8283  22.9089
 12.8513  22.9391
 12.8742  23.1099
 12.8972  23.2129
 12.9203  23.3502
 12.9433  23.4364
 12.9663  23.5769
 12.9893  23.6934
 13.0123  23.6826
 13.0353  23.8114
 13.0582  23.9965
 13.0813  24.1803
 13.1043  24.4127
 13.1273  24.7052
 13.1502  24.9755
 13.1732  25.1753
 13.1963  25.386
 13.2193  25.7109
 13.2423  26.1857
 13.2652  26.3617
 13.2883  26.6214
 13.3113  26.8371
 13.3343  27.1111
 13.3573  27.3029
 13.3803  27.5726
 13.4033  27.851
 13.4262  28.0771
 13.4492  28.2315
 13.4723  28.495
 13.4953  28.7385
 13.5183  28.9704
 13.5412  29.1753
 13.5643  29.3332
 13.5873  29.4112
 13.6103  29.5555
 13.6333  29.6419
 13.6563  29.5243
 13.6793  29.4255
 13.7022  29.3508
 13.7253  29.1831
 13.7483  28.9556
 13.7713  28.703
 13.7942  28.6568
 13.8172  28.5754
 13.8403  28.5803
 13.8633  28.645
 13.8863  28.6594
 13.9093  28.7525
 13.9323  28.9805
 13.9553  29.0335
 13.9783  28.8571
 14.0013  28.2981
 14.0243  27.7791
 14.0473  27.3895
 14.0703  27.2194
 14.0932  26.9981
 14.1163  26.8049
 14.1393  26.6655
 14.1623  26.5671
 14.1852  26.4762
 14.2083  26.3272
 14.2313  26.1888
 14.2543  26.0748
 14.2773  25.9726
 14.3003  25.8647
 14.3233  25.6855
 14.3463  25.7157
 14.3692  25.713
 14.3923  25.6087
 14.4153  25.5669
 14.4383  25.4916
 14.4612  25.3745
 14.4843  25.3434
 14.5073  25.3487
 14.5303  25.3318
 14.5533  25.2681
 14.5763  25.1594
 14.5993  25.0856
 14.6223  25.0943
 14.6453  25.0092
 14.6683  24.8984
 14.6913  24.9361
 14.7143  24.9882
 14.7372  24.8136
 14.7603  24.7022
 14.7833  24.7191
 14.8063  24.7044
 14.8293  24.6131
 14.8523  24.584
 14.8753  24.5113
 14.8983  24.5571
 14.9213  24.5806
 14.9443  24.551
 14.9673  24.4871
 14.9903  24.4328
 15.0132  24.3986
 15.0363  24.4022
 15.0593  24.4733
 15.0823  24.5287
 15.1052  24.4691
 15.1283  24.3903
 15.1513  24.4829
 15.1743  24.5001
 15.1973  24.4194
 15.2203  24.4939
 15.2433  24.4669
 15.2663  24.3806
 15.2892  24.2975
 15.3123  24.2699
 15.3353  24.3029
 15.3583  24.2578
 15.3812  24.2235
 15.4043  24.279
 15.4273  24.2914
 15.4503  24.2836
 15.4733  24.1574
 15.4963  24.1957
 15.5193  24.2263
 15.5423  24.1937
 15.5653  24.2559
 15.5883  24.3245
 15.6113  24.3096
 15.6343  24.201
 15.6572  24.2042
 15.6803  24.2317
 15.7033  24.3236
 15.7263  24.3532
 15.7492  24.3084
 15.7723  24.3956
 15.7953  24.3379
 15.8183  24.3106
 15.8413  24.2635
 15.8643  24.3833
 15.8873  24.3095
 15.9103  24.2665
 15.9332  24.2752
 15.9563  24.2295
 15.9793  24.3431
 16.0023  24.4519
 16.0253  24.4531
 16.0482  24.473
 16.0713  24.4799
 16.0943  24.4091
 16.1172  24.483
 16.1403  24.5414
 16.1633  24.5613
 16.1863  24.6917
 16.2093  24.7927
 16.2323  25.0184
 16.2553  25.201
 16.2783  25.2066
 16.3012  24.9304
 16.3243  24.6528
 16.3472  24.5855
 16.3703  24.4835
 16.3933  24.4067
 16.4163  24.4694
 16.4393  24.3953
 16.4623  24.4229
 16.4853  24.4284
 16.5083  24.4402
 16.5312  24.4191
 16.5543  24.3892
 16.5773  24.3894
 16.6002  24.4258
 16.6233  24.3694
 16.6463  24.3798
 16.6693  24.432
 16.6923  24.3768
 16.7153  24.2964
 16.7383  24.268
 16.7613  24.268
 16.7843  24.2985
 16.8073  24.1699
 16.8303  24.1387
 16.8533  24.1808
 16.8763  24.1949
 16.8992  24.1503
 16.9223  24.0601
 16.9453  23.9848
 16.9683  23.9819
 16.9913  23.9622
 17.0143  23.953
 17.0373  24.008
 17.0603  23.8957
 17.0832  23.8835
 17.1063  23.8813
 17.1293  23.8082
 17.1522  23.7854
 17.1753  23.813
 17.1983  23.8729
 17.2213  23.8228
 17.2443  23.808
 17.2673  23.7754
 17.2903  23.6911
 17.3133  23.7909
 17.3362  23.8997
 17.3593  23.9088
 17.3823  23.7819
 17.4053  23.6705
 17.4283  23.5786
 17.4513  23.6259
 17.4743  23.6697
 17.4973  23.6182
 17.5203  23.4818
 17.5433  23.5446
 17.5663  23.6006
 17.5893  23.5691
 17.6123  23.5147
 17.6352  23.4441
 17.6583  23.3853
 17.6813  23.3868
 17.7042  23.4995
 17.7273  23.5743
 17.7503  23.5227
 17.7733  23.5248
 17.7963  23.5319
 17.8193  23.4397
 17.8423  23.2905
 17.8653  23.2008
 17.8882  23.2485
 17.9113  23.3987
 17.9343  23.3861
 17.9573  23.4061
 17.9803  23.4038
 18.0033  23.4023
 18.0263  23.4531
 18.0493  23.4495
 18.0723  23.4117
 18.0953  23.4603
 18.1183  23.5194
 18.1413  23.461
 18.1643  23.3055
 18.1872  23.2306
 18.2103  23.237
 18.2333  23.2824
 18.2563  23.3333
 18.2793  23.3042
 18.3023  23.2436
 18.3253  23.3141
 18.3483  23.3184
 18.3712  23.2808
 18.3943  23.2582
 18.4173  23.2597
 18.4402  23.2289
 18.4633  23.1578
 18.4863  23.2226
 18.5093  23.2586
 18.5323  23.1813
 18.5553  23.1166
 18.5783  23.1843
 18.6013  23.3339
 18.6242  23.2251
 18.6473  23.1285
 18.6703  23.1895
 18.6933  23.3099
 18.7163  23.251
 18.7392  23.1619
 18.7623  23.1606
 18.7853  23.1972
 18.8083  23.2723
 18.8313  23.2839
 18.8543  23.2174
 18.8773  23.1655
 18.9003  23.1205
 18.9232  23.1778
 18.9463  23.3132
 18.9693  23.2466
 18.9922  23.1957
 19.0153  23.1678
 19.0383  23.2629
 19.0613  23.1843
 19.0843  23.1498
 19.1073  23.1151
 19.1303  23.1454
 19.1533  23.1628
 19.1762  23.1085
 19.1993  23.1345
 19.2223  23.19
 19.2453  23.1762
 19.2683  23.2572
 19.2913  23.2652
 19.3143  23.2415
 19.3373  23.2115
 19.3603  23.1909
 19.3833  23.1736
 19.4062  23.1841
 19.4293  23.276
 19.4523  23.2643
 19.4752  23.2661
 19.4983  23.2223
 19.5213  23.1948
 19.5443  23.2296
 19.5673  23.2085
 19.5903  23.2968
 19.6133  23.3286
 19.6363  23.2737
 19.6593  23.2738
 19.6823  23.3489
 19.7053  23.527
 19.7283  23.5444
 19.7513  23.4851
 19.7742  23.4693
 19.7973  23.5089
 19.8203  23.5549
 19.8433  23.6707
 19.8663  23.7101
 19.8893  23.6381
 19.9123  23.5116
 19.9353  23.3319
 19.9582  23.2771
 19.9813  23.3422
 20.0043  23.3911
 20.0272  23.3478
 20.0503  23.3893
 20.0733  23.3606
 20.0963  23.4375
 20.1193  23.4275
 20.1423  23.3066
 20.1653  23.238
 20.1883  23.298
 20.2112  23.2758
 20.2343  23.3678
 20.2573  23.4106
 20.2803  23.3431
 20.3033  23.3279
 20.3263  23.3409
 20.3493  23.337
 20.3723  23.3858
 20.3953  23.3644
 20.4183  23.399
 20.4413  23.3453
 20.4643  23.3454
 20.4873  23.2719
 20.5102  23.3151
 20.5333  23.2924
 20.5563  23.3917
 20.5792  23.4799
 20.6023  23.5089
 20.6253  23.5057
 20.6483  23.4422
 20.6713  23.3377
 20.6943  23.4646
 20.7173  23.6881
 20.7403  23.7955
 20.7632  23.8467
 20.7863  23.7483
 20.8093  23.5928
 20.8323  23.5098
 20.8553  23.5661
 20.8783  23.6416
 20.9013  23.6188
 20.9243  23.5808
 20.9473  23.6249
 20.9703  23.5812
 20.9933  23.5105
 21.0163  23.4788
 21.0393  23.5036
 21.0622  23.5358
 21.0853  23.5666
 21.1083  23.6381
 21.1313  23.6147
 21.1543  23.5259
 21.1773  23.5765
 21.2003  23.6252
 21.2233  23.6351
 21.2462  23.6648
 21.2693  23.6876
 21.2923  23.6359
 21.3152  23.5324
 21.3383  23.558
 21.3613  23.4619
 21.3843  23.5363
 21.4073  23.5866
 21.4303  23.6123
 21.4533  23.5769
 21.4763  23.6578
 21.4992  23.6751
 21.5223  23.682
 21.5453  23.6496
 21.5683  23.6412
 21.5913  23.7174
 21.6142  23.773
 21.6373  23.7656
 21.6603  23.7209
 21.6833  23.7156
 21.7063  23.7624
 21.7293  23.7497
 21.7523  23.7634
 21.7753  23.7962
 21.7982  23.8717
 21.8213  23.934
 21.8443  23.8151
 21.8672  23.8172
 21.8903  23.8191
 21.9133  23.8881
 21.9363  23.8646
 21.9593  23.8015
 21.9823  23.8469
 22.0053  23.8517
 22.0283  23.8881
 22.0512  23.8729
 22.0743  23.8165
 22.0973  23.8664
 22.1203  23.9152
 22.1433  23.967
 22.1663  23.9389
 22.1893  23.8851
 22.2123  23.9075
 22.2353  24.0277
 22.2583  24.0794
 22.2813  24.0695
 22.3043  24.2428
 22.3273  24.2813
 22.3502  24.2184
 22.3733  24.2254
 22.3963  24.166
 22.4193  24.0579
 22.4423  24.1626
 22.4653  24.2829
 22.4883  24.2653
 22.5113  24.3636
 22.5343  24.5042
 22.5573  24.4714
 22.5803  24.4783
 22.6033  24.5732
 22.6263  24.6533
 22.6493  24.7059
 22.6723  24.7798
 22.6953  24.8651
 22.7183  24.8716
 22.7413  24.8686
 22.7643  24.898
 22.7873  24.9059
 22.8103  24.9708
 22.8333  25.0208
 22.8563  25.0936
 22.8793  25.1859
 22.9022  25.2739
 22.9253  25.3852
 22.9483  25.4687
 22.9713  25.6302
 22.9943  25.7024