File: test-data-xrd/xrd-map-34-ID-E/Data_0053.chi
F:\20151113_APS_34IDE\\Brian\Particle1\OCV\Data_0053.tif
2-Theta Angle (Degrees)
Intensity
       2000
 0.01725  0.0000000E+00
 0.04025  0.0000000E+00
 0.06325  0.0000000E+00
 0.08625  0.0000000E+00
 0.10925  0.0000000E+00
 0.13225  0.0000000E+00
 0.15525  0.0000000E+00
 0.17825  0.0000000E+00
 0.20125  0.0000000E+00
 0.22425  0.0000000E+00
 0.24725  0.0000000E+00
 0.27025  0.0000000E+00
 0.29325  0.0000000E+00
 0.31625  0.0000000E+00
 0.33925  0.0000000E+00
 0.36225  0.0000000E+00
 0.38525  0.0000000E+00
 0.40825  0.0000000E+00
 0.43125  0.0000000E+00
 0.45425  0.0000000E+00
 0.47725  0.0000000E+00
 0.50025  0.0000000E+00
 0.52325  0.0000000E+00
 0.54625  0.0000000E+00
 0.56925  0.0000000E+00
 0.59225  0.0000000E+00
 0.61525  0.0000000E+00
 0.63825  0.0000000E+00
 0.66125  0.0000000E+00
 0.68425  0.0000000E+00
 0.70725  0.0000000E+00
 0.73025  0.0000000E+00
 0.75325  0.0000000E+00
 0.77625  0.0000000E+00
 0.79925  0.0000000E+00
 0.82225  0.0000000E+00
 0.84525  0.0000000E+00
 0.86825  0.0000000E+00
 0.89125  0.0000000E+00
 0.91425  0.0000000E+00
 0.93725  0.0000000E+00
 0.96025  0.0000000E+00
 0.98325  0.0000000E+00
 1.00625  0.0000000E+00
 1.02925  0.0000000E+00
 1.05225  0.0000000E+00
 1.07525  0.0000000E+00
 1.09825  0.0000000E+00
 1.12125  0.0000000E+00
 1.14425  0.0000000E+00
 1.16725  0.0000000E+00
 1.19025  0.0000000E+00
 1.21325  0.0000000E+00
 1.23625  0.0000000E+00
 1.25925  0.0000000E+00
 1.28225  0.0000000E+00
 1.30525  0.0000000E+00
 1.32825  0.0000000E+00
 1.35125  0.0000000E+00
 1.37425  0.0000000E+00
 1.39725  0.0000000E+00
 1.42025  0.0000000E+00
 1.44325  0.0000000E+00
 1.46625  0.0000000E+00
 1.48925  0.0000000E+00
 1.51225  0.0000000E+00
 1.53525  0.0000000E+00
 1.55825  0.0000000E+00
 1.58125  0.0000000E+00
 1.60425  0.0000000E+00
 1.62725  0.0000000E+00
 1.65025  0.0000000E+00
 1.67325  0.0000000E+00
 1.69625  0.0000000E+00
 1.71925  0.0000000E+00
 1.74225  0.0000000E+00
 1.76525  0.0000000E+00
 1.78825  0.0000000E+00
 1.81125  0.0000000E+00
 1.83425  0.0000000E+00
 1.85725  0.0000000E+00
 1.88025  0.0000000E+00
 1.90325  0.0000000E+00
 1.92625  0.0000000E+00
 1.94925  0.0000000E+00
 1.97225  0.0000000E+00
 1.99525  0.0000000E+00
 2.01825  0.0000000E+00
 2.04125  0.0000000E+00
 2.06425  0.0000000E+00
 2.08725  0.0000000E+00
 2.11025  0.0000000E+00
 2.13325  0.0000000E+00
 2.15625  0.0000000E+00
 2.17925  0.0000000E+00
 2.20225  0.0000000E+00
 2.22525  0.0000000E+00
 2.24825  0.0000000E+00
 2.27125  0.0000000E+00
 2.29425  0.0000000E+00
 2.31725  0.0000000E+00
 2.34025  0.0000000E+00
 2.36325  0.0000000E+00
 2.38625  0.0000000E+00
 2.40925  0.0000000E+00
 2.43225  0.0000000E+00
 2.45525  0.0000000E+00
 2.47825  0.0000000E+00
 2.50125  0.0000000E+00
 2.52425  0.0000000E+00
 2.54725  0.0000000E+00
 2.57025  0.0000000E+00
 2.59325  0.0000000E+00
 2.61625  0.0000000E+00
 2.63925  0.0000000E+00
 2.66225  0.0000000E+00
 2.68525  0.0000000E+00
 2.70825  0.0000000E+00
 2.73125  0.0000000E+00
 2.75425  0.0000000E+00
 2.77725  0.0000000E+00
 2.80025  0.0000000E+00
 2.82325  34.7402
 2.84625  36.3164
 2.86925  35.3517
 2.89225  33.9535
 2.91525  35.0346
 2.93825  36.9044
 2.96125  36.9721
 2.98425  37.0697
 3.00725  36.5168
 3.03025  36.2308
 3.05325  35.9123
 3.07625  35.8751
 3.09925  36.0318
 3.12225  35.6401
 3.14525  36.3709
 3.16825  36.4571
 3.19125  36.0219
 3.21425  36.2475
 3.23725  36.2977
 3.26025  36.0255
 3.28325  35.0698
 3.30625  34.834
 3.32925  35.351
 3.35225  35.6833
 3.37525  35.2272
 3.39825  34.7766
 3.42125  34.2871
 3.44425  34.2241
 3.46725  34.2194
 3.49025  34.1766
 3.51325  34.0729
 3.53625  33.6982
 3.55925  33.6929
 3.58225  33.7037
 3.60525  33.7207
 3.62825  33.804
 3.65125  33.8181
 3.67425  33.3557
 3.69725  33.0317
 3.72025  33.0643
 3.74325  33.2614
 3.76625  32.9484
 3.78925  32.6194
 3.81225  32.6124
 3.83525  32.8082
 3.85825  32.8792
 3.88125  32.9836
 3.90425  32.6409
 3.92725  32.3325
 3.95025  32.5375
 3.97325  32.8842
 3.99625  32.6626
 4.01925  32.3408
 4.04225  32.1541
 4.06525  32.2024
 4.08825  31.9282
 4.11125  32.0057
 4.13425  32.05
 4.15725  32.1734
 4.18025  31.9761
 4.20325  32.0448
 4.22625  32.3507
 4.24925  32.2538
 4.27225  32.1135
 4.29525  32.1071
 4.31825  32.2042
 4.34125  32.4818
 4.36425  32.6949
 4.38725  32.8864
 4.41025  32.7718
 4.43325  32.525
 4.45625  32.4676
 4.47925  32.5187
 4.50225  32.474
 4.52525  32.592
 4.54825  32.6846
 4.57125  32.6419
 4.59425  32.5992
 4.61725  32.7901
 4.64025  32.6431
 4.66325  32.6072
 4.68625  32.3677
 4.70925  32.3235
 4.73225  32.3417
 4.75525  32.5335
 4.77825  32.5953
 4.80125  32.4529
 4.82425  32.349
 4.84725  32.5518
 4.87025  33.0158
 4.89325  33.189
 4.91625  33.0656
 4.93925  32.9385
 4.96225  32.9636
 4.98525  33.1211
 5.00825  33.346
 5.03125  33.3093
 5.05425  33.1503
 5.07725  33.2165
 5.10025  33.2277
 5.12325  33.0874
 5.14625  33.1992
 5.16925  33.5918
 5.19225  33.804
 5.21525  33.657
 5.23825  33.6911
 5.26125  33.8321
 5.28425  33.7821
 5.30725  33.8634
 5.33025  34.0897
 5.35325  34.2276
 5.37625  34.27
 5.39925  34.4275
 5.42225  34.3018
 5.44525  34.1635
 5.46825  34.5106
 5.49125  34.458
 5.51425  34.5667
 5.53725  34.7998
 5.56025  34.9737
 5.58325  35.0915
 5.60625  35.0576
 5.62925  34.9753
 5.65225  34.978
 5.67525  35.2966
 5.69825  35.1059
 5.72125  35.0187
 5.74425  35.0975
 5.76725  35.1565
 5.79025  35.3409
 5.81325  35.6337
 5.83625  35.9745
 5.85925  36.2806
 5.88225  36.7337
 5.90525  37.7633
 5.92825  39.4323
 5.95125  44.2031
 5.97425  50.2273
 5.99725  53.4806
 6.02025  48.1675
 6.04325  41.2577
 6.06625  38.3296
 6.08925  37.452
 6.11225  37.2498
 6.13525  37.1762
 6.15825  37.1067
 6.18125  37.1004
 6.20425  37.0283
 6.22725  37.1803
 6.25025  37.3314
 6.27325  37.6532
 6.29625  37.6806
 6.31925  37.8203
 6.34225  37.9084
 6.36525  38.047
 6.38825  38.2113
 6.41125  38.4379
 6.43425  38.6692
 6.45725  38.7011
 6.48025  38.841
 6.50325  39.046
 6.52625  39.1943
 6.54925  39.3833
 6.57225  39.42
 6.59525  39.5234
 6.61825  39.5624
 6.64125  39.6545
 6.66425  39.854
 6.68725  40.0571
 6.71025  40.1745
 6.73325  40.3813
 6.75625  40.7184
 6.77925  40.957
 6.80225  41.0931
 6.82525  41.322
 6.84825  41.4075
 6.87125  41.6478
 6.89425  41.763
 6.91725  42.126
 6.94025  42.3521
 6.96325  42.2835
 6.98625  42.2361
 7.00925  42.5478
 7.03225  42.6892
 7.05525  42.5251
 7.07825  42.3867
 7.10125  42.4961
 7.12425  42.6248
 7.14725  42.6932
 7.17025  42.8249
 7.19325  43.0269
 7.21625  43.1041
 7.23925  43.2699
 7.26225  43.3384
 7.28525  43.4376
 7.30825  43.5721
 7.33125  43.5743
 7.35425  43.7201
 7.37725  43.9044
 7.40025  43.9916
 7.42325  43.9996
 7.44625  43.9592
 7.46925  44.2177
 7.49225  44.4817
 7.51525  44.353
 7.53825  44.2161
 7.56125  44.2408
 7.58425  44.4681
 7.60725  44.3853
 7.63025  44.3258
 7.65325  44.2829
 7.67625  44.1321
 7.69925  43.9729
 7.72225  43.9933
 7.74525  43.8887
 7.76825  43.9053
 7.79125  44.1529
 7.81425  44.1788
 7.83725  44.0265
 7.86025  44.0292
 7.88325  43.9926
 7.90625  44.0793
 7.92925  43.9079
 7.95225  43.7744
 7.97525  43.5642
 7.99825  43.3521
 8.02125  43.1787
 8.04425  43.0954
 8.06725  43.1049
 8.09025  43.0352
 8.11325  43.121
 8.13625  42.7065
 8.15925  42.2093
 8.18225  41.9384
 8.20525  41.8449
 8.22825  41.6153
 8.25125  41.4032
 8.27425  41.1749
 8.29725  40.9168
 8.32025  40.6682
 8.34325  40.4979
 8.36625  40.3987
 8.38925  40.0405
 8.41225  39.4672
 8.43525  39.0665
 8.45825  38.7391
 8.48125  38.2808
 8.50425  37.7204
 8.52725  37.4126
 8.55025  37.1442
 8.57325  36.9312
 8.59625  36.583
 8.61925  36.2497
 8.64225  35.812
 8.66525  35.4523
 8.68825  35.1842
 8.71125  34.7573
 8.73425  34.2314
 8.75725  33.8811
 8.78025  33.5422
 8.80325  33.155
 8.82625  32.8304
 8.84925  32.5926
 8.87225  32.3775
 8.89525  32.2518
 8.91825  31.9589
 8.94125  31.5816
 8.96425  31.2135
 8.98725  30.9207
 9.01025  30.488
 9.03325  30.2393
 9.05625  30.0726
 9.07925  29.9959
 9.10225  29.6177
 9.12525  29.3689
 9.14825  29.1526
 9.17125  28.8807
 9.19425  28.6724
 9.21725  28.4609
 9.24025  28.3546
 9.26325  28.1541
 9.28625  27.8852
 9.30925  27.7206
 9.33225  27.5664
 9.35525  27.3073
 9.37825  27.1065
 9.40125  26.9222
 9.42425  26.8413
 9.44725  26.651
 9.47025  26.4309
 9.49325  26.2981
 9.51625  26.1672
 9.53925  26.0833
 9.56225  25.9267
 9.58525  25.6711
 9.60825  25.6088
 9.63125  25.5487
 9.65425  25.5179
 9.67725  25.3334
 9.70025  25.1616
 9.72325  25.2791
 9.74625  25.3241
 9.76925  25.1869
 9.79225  24.974
 9.81525  24.8505
 9.83825  24.7586
 9.86125  24.6915
 9.88425  24.6602
 9.90725  24.5551
 9.93025  24.4067
 9.95325  24.3122
 9.97625  24.3441
 9.99925  24.3413
 10.0222  24.181
 10.0453  24.0482
 10.0683  23.9859
 10.0913  23.9544
 10.1143  23.7968
 10.1373  23.8001
 10.1603  23.7463
 10.1832  23.7176
 10.2063  23.6882
 10.2293  23.6333
 10.2523  23.4929
 10.2752  23.4312
 10.2982  23.496
 10.3213  23.5076
 10.3443  23.5618
 10.3673  23.419
 10.3902  23.3476
 10.4133  23.3191
 10.4363  23.3354
 10.4593  23.3242
 10.4823  23.2287
 10.5053  23.1025
 10.5283  23.1271
 10.5512  23.0721
 10.5742  23.0534
 10.5973  22.8601
 10.6203  22.8282
 10.6433  22.8826
 10.6662  23.0244
 10.6893  23.1028
 10.7123  22.975
 10.7353  22.943
 10.7583  22.8838
 10.7813  22.8225
 10.8043  22.6317
 10.8272  22.6107
 10.8503  22.6583
 10.8733  22.7177
 10.8963  22.6451
 10.9192  22.5802
 10.9422  22.5242
 10.9653  22.5397
 10.9883  22.5773
 11.0113  22.6642
 11.0343  22.7142
 11.0573  22.6423
 11.0803  22.515
 11.1033  22.4791
 11.1263  22.5928
 11.1493  22.5732
 11.1723  22.4666
 11.1953  22.4001
 11.2182  22.4043
 11.2413  22.4683
 11.2643  22.5051
 11.2873  22.5636
 11.3102  22.7548
 11.3333  22.9272
 11.3563  22.8241
 11.3793  22.8698
 11.4023  23.0573
 11.4253  23.1797
 11.4483  23.1377
 11.4713  23.1863
 11.4942  23.4575
 11.5173  24.4527
 11.5403  27.6786
 11.5633  34.3314
 11.5862  40.0437
 11.6093  39.5373
 11.6323  33.6395
 11.6553  27.2955
 11.6783  24.5221
 11.7013  23.3654
 11.7243  22.9733
 11.7473  22.8959
 11.7703  22.8039
 11.7933  22.6843
 11.8163  22.6678
 11.8393  22.6951
 11.8622  22.551
 11.8853  22.4918
 11.9083  22.5534
 11.9313  22.7006
 11.9543  22.9625
 11.9773  23.2287
 12.0003  23.3652
 12.0233  23.3306
 12.0463  23.6215
 12.0693  24.2381
 12.0923  24.8283
 12.1153  25.489
 12.1382  24.6821
 12.1613  23.7625
 12.1843  22.8739
 12.2073  22.4949
 12.2302  22.4362
 12.2533  22.4996
 12.2763  22.4657
 12.2993  22.4678
 12.3223  22.5366
 12.3453  22.5239
 12.3683  22.4193
 12.3913  22.3645
 12.4142  22.4595
 12.4373  22.6642
 12.4603  22.7094
 12.4833  22.7289
 12.5062  22.589
 12.5292  22.4615
 12.5523  22.6291
 12.5753  22.6902
 12.5983  22.6837
 12.6212  22.7699
 12.6443  22.686
 12.6673  22.669
 12.6903  22.6857
 12.7133  22.8096
 12.7363  22.9384
 12.7593  23.059
 12.7822  23.0134
 12.8052  23.0421
 12.8283  23.1451
 12.8513  23.2667
 12.8742  23.4039
 12.8972  23.456
 12.9203  23.5532
 12.9433  23.6636
 12.9663  23.7442
 12.9893  23.8326
 13.0123  23.9163
 13.0353  24.05
 13.0582  24.2767
 13.0813  24.3751
 13.1043  24.6833
 13.1273  24.9788
 13.1502  25.2257
 13.1732  25.3702
 13.1963  25.5059
 13.2193  25.758
 13.2423  26.0265
 13.2652  26.2663
 13.2883  26.5753
 13.3113  26.8658
 13.3343  27.2846
 13.3573  27.7262
 13.3803  28.0677
 13.4033  28.2496
 13.4262  28.3984
 13.4492  28.6963
 13.4723  28.9891
 13.4953  29.2595
 13.5183  29.4035
 13.5412  29.4645
 13.5643  29.5465
 13.5873  29.6241
 13.6103  29.7379
 13.6333  29.8358
 13.6563  29.8647
 13.6793  29.8582
 13.7022  29.6504
 13.7253  29.5305
 13.7483  29.6669
 13.7713  29.7551
 13.7942  29.7798
 13.8172  29.8174
 13.8403  30.3052
 13.8633  31.9239
 13.8863  35.3088
 13.9093  39.406
 13.9323  41.7974
 13.9553  38.7801
 13.9783  35.1431
 14.0013  31.9555
 14.0243  29.8371
 14.0473  28.8363
 14.0703  28.2945
 14.0932  27.9788
 14.1163  27.6473
 14.1393  27.3051
 14.1623  27.0371
 14.1852  26.8878
 14.2083  26.8311
 14.2313  26.6524
 14.2543  26.5406
 14.2773  26.4056
 14.3003  26.2909
 14.3233  26.256
 14.3463  26.1374
 14.3692  26.04
 14.3923  25.9396
 14.4153  25.9427
 14.4383  25.8936
 14.4612  25.8402
 14.4843  25.7135
 14.5073  25.7548
 14.5303  25.6731
 14.5533  25.4422
 14.5763  25.2994
 14.5993  25.2869
 14.6223  25.2739
 14.6453  25.2529
 14.6683  25.1864
 14.6913  25.189
 14.7143  25.1322
 14.7372  25.1152
 14.7603  25.0621
 14.7833  25.0676
 14.8063  25.0105
 14.8293  24.9749
 14.8523  24.9194
 14.8753  24.8414
 14.8983  24.8397
 14.9213  24.7805
 14.9443  24.7736
 14.9673  24.8004
 14.9903  24.8023
 15.0132  24.8681
 15.0363  24.8575
 15.0593  24.8554
 15.0823  24.8605
 15.1052  24.9419
 15.1283  25.2266
 15.1513  25.7848
 15.1743  26.6954
 15.1973  27.1413
 15.2203  26.6498
 15.2433  25.6188
 15.2663  24.9847
 15.2892  24.8035
 15.3123  24.739
 15.3353  24.6276
 15.3583  24.5502
 15.3812  24.4914
 15.4043  24.5034
 15.4273  24.4893
 15.4503  24.5049
 15.4733  24.4393
 15.4963  24.4341
 15.5193  24.5274
 15.5423  24.5907
 15.5653  24.6368
 15.5883  24.5744
 15.6113  24.4694
 15.6343  24.4512
 15.6572  24.4393
 15.6803  24.5202
 15.7033  24.5711
 15.7263  24.6238
 15.7492  24.5421
 15.7723  24.5058
 15.7953  24.546
 15.8183  24.5818
 15.8413  24.4702
 15.8643  24.4318
 15.8873  24.5286
 15.9103  24.5256
 15.9332  24.5149
 15.9563  24.464
 15.9793  24.5444
 16.0023  24.6613
 16.0253  24.6519
 16.0482  24.5939
 16.0713  24.5691
 16.0943  24.5951
 16.1172  24.6993
 16.1403  24.688
 16.1633  24.7305
 16.1863  24.8319
 16.2093  24.9491
 16.2323  25.1034
 16.2553  25.2351
 16.2783  25.3003
 16.3012  25.0701
 16.3243  24.867
 16.3472  24.7033
 16.3703  24.5562
 16.3933  24.5944
 16.4163  24.667
 16.4393  24.6654
 16.4623  24.6431
 16.4853  24.6401
 16.5083  24.6536
 16.5312  24.6445
 16.5543  24.6544
 16.5773  24.5976
 16.6002  24.6189
 16.6233  24.5616
 16.6463  24.4735
 16.6693  24.5056
 16.6923  24.4883
 16.7153  24.4106
 16.7383  24.4503
 16.7613  24.4824
 16.7843  24.5201
 16.8073  24.4974
 16.8303  24.3734
 16.8533  24.3058
 16.8763  24.2913
 16.8992  24.2964
 16.9223  24.3714
 16.9453  24.3794
 16.9683  24.4019
 16.9913  24.5401
 17.0143  24.506
 17.0373  24.2697
 17.0603  24.0607
 17.0832  24.0562
 17.1063  24.0749
 17.1293  24.0376
 17.1522  24.0888
 17.1753  24.0844
 17.1983  24.1315
 17.2213  24.142
 17.2443  24.1541
 17.2673  24.0566
 17.2903  24.0182
 17.3133  23.9869
 17.3362  24.0365
 17.3593  24.0158
 17.3823  23.9458
 17.4053  23.8471
 17.4283  23.8933
 17.4513  23.9588
 17.4743  23.949
 17.4973  23.8638
 17.5203  23.8293
 17.5433  23.8922
 17.5663  23.9333
 17.5893  23.8621
 17.6123  23.9132
 17.6352  23.8965
 17.6583  23.7444
 17.6813  23.8238
 17.7042  23.9408
 17.7273  23.9024
 17.7503  23.88
 17.7733  23.8235
 17.7963  23.827
 17.8193  23.7708
 17.8423  23.7849
 17.8653  23.8138
 17.8882  23.7862
 17.9113  23.7966
 17.9343  23.8191
 17.9573  23.7526
 17.9803  23.9115
 18.0033  24.1973
 18.0263  24.3814
 18.0493  24.5632
 18.0723  24.7598
 18.0953  24.8255
 18.1183  24.7324
 18.1413  24.4442
 18.1643  24.0995
 18.1872  23.8769
 18.2103  23.7226
 18.2333  23.6876
 18.2563  23.7573
 18.2793  23.7481
 18.3023  23.7326
 18.3253  23.6584
 18.3483  23.6514
 18.3712  23.5829
 18.3943  23.5902
 18.4173  23.6535
 18.4402  23.5298
 18.4633  23.4623
 18.4863  23.4791
 18.5093  23.5064
 18.5323  23.4716
 18.5553  23.4515
 18.5783  23.5569
 18.6013  23.5408
 18.6242  23.5682
 18.6473  23.5539
 18.6703  23.523
 18.6933  23.5023
 18.7163  23.4186
 18.7392  23.3912
 18.7623  23.4661
 18.7853  23.5628
 18.8083  23.5867
 18.8313  23.4982
 18.8543  23.3709
 18.8773  23.4216
 18.9003  23.4328
 18.9232  23.4529
 18.9463  23.5402
 18.9693  23.466
 18.9922  23.4384
 19.0153  23.3455
 19.0383  23.3824
 19.0613  23.3906
 19.0843  23.4981
 19.1073  23.5204
 19.1303  23.5962
 19.1533  23.67
 19.1762  23.5453
 19.1993  23.5295
 19.2223  23.5109
 19.2453  23.4896
 19.2683  23.5582
 19.2913  23.4889
 19.3143  23.5147
 19.3373  23.6037
 19.3603  23.6949
 19.3833  23.6775
 19.4062  23.5529
 19.4293  23.4873
 19.4523  23.5358
 19.4752  23.6527
 19.4983  23.748
 19.5213  23.7497
 19.5443  23.7879
 19.5673  23.7411
 19.5903  23.7943
 19.6133  23.8204
 19.6363  23.9954
 19.6593  24.4464
 19.6823  24.9979
 19.7053  25.404
 19.7283  25.5615
 19.7513  25.4017
 19.7742  25.1529
 19.7973  25.1538
 19.8203  25.3876
 19.8433  25.8613
 19.8663  25.9411
 19.8893  25.5039
 19.9123  24.7442
 19.9353  24.171
 19.9582  23.9374
 19.9813  23.9337
 20.0043  23.9115
 20.0272  23.8288
 20.0503  23.7696
 20.0733  23.7093
 20.0963  23.723
 20.1193  23.8568
 20.1423  23.8407
 20.1653  23.7859
 20.1883  23.7515
 20.2112  23.7918
 20.2343  23.811
 20.2573  23.7495
 20.2803  23.7232
 20.3033  23.6694
 20.3263  23.688
 20.3493  23.7649
 20.3723  23.8222
 20.3953  23.8796
 20.4183  23.9123
 20.4413  23.8411
 20.4643  23.6432
 20.4873  23.6045
 20.5102  23.617
 20.5333  23.6544
 20.5563  23.7829
 20.5792  23.8172
 20.6023  23.9435
 20.6253  24.0386
 20.6483  24.1498
 20.6713  24.2918
 20.6943  24.6636
 20.7173  25.3819
 20.7403  25.9395
 20.7632  26.1262
 20.7863  25.6989
 20.8093  25.0468
 20.8323  24.5821
 20.8553  24.2941
 20.8783  24.0535
 20.9013  24.0746
 20.9243  24.0644
 20.9473  24.0241
 20.9703  23.8809
 20.9933  23.8642
 21.0163  23.8425
 21.0393  23.8222
 21.0622  23.8498
 21.0853  23.8578
 21.1083  23.8723
 21.1313  23.9574
 21.1543  23.8128
 21.1773  23.809
 21.2003  23.8305
 21.2233  23.8291
 21.2462  23.9102
 21.2693  23.9251
 21.2923  23.8366
 21.3152  23.8059
 21.3383  23.8028
 21.3613  23.8811
 21.3843  23.9821
 21.4073  24.1157
 21.4303  23.986
 21.4533  23.926
 21.4763  23.9064
 21.4992  23.9211
 21.5223  23.9366
 21.5453  23.9853
 21.5683  24.0098
 21.5913  24.0392
 21.6142  23.9803
 21.6373  23.9069
 21.6603  23.98
 21.6833  24.0345
 21.7063  24.0973
 21.7293  24.0481
 21.7523  24.0251
 21.7753  24.0571
 21.7982  24.1108
 21.8213  24.1189
 21.8443  24.0796
 21.8672  24.1501
 21.8903  24.1187
 21.9133  24.1801
 21.9363  24.1715
 21.9593  24.173
 21.9823  24.2135
 22.0053  24.3126
 22.0283  24.3177
 22.0512  24.3702
 22.0743  24.3726
 22.0973  24.3461
 22.1203  24.3582
 22.1433  24.3827
 22.1663  24.2796
 22.1893  24.2135
 22.2123  24.2854
 22.2353  24.3832
 22.2583  24.3491
 22.2813  24.4128
 22.3043  24.5107
 22.3273  24.4827
 22.3502  24.4955
 22.3733  24.515
 22.3963  24.49
 22.4193  24.4284
 22.4423  24.5463
 22.4653  24.6482
 22.4883  24.6927
 22.5113  24.752
 22.5343  24.8457
 22.5573  24.7948
 22.5803  24.7859
 22.6033  24.7449
 22.6263  24.913
 22.6493  24.8739
 22.6723  24.9015
 22.6953  25.0315
 22.7183  25.0481
 22.7413  25.1643
 22.7643  25.2167
 22.7873  25.2327
 22.8103  25.3921
 22.8333  25.4819
 22.8563  25.5415
 22.8793  25.6337
 22.9022  25.7061
 22.9253  25.9063
 22.9483  26.0551
 22.9713  26.1958
 22.9943  26.511