File: test-data-xrd/xrd-map-34-ID-E/Data_0109.chi
F:\20151113_APS_34IDE\\Brian\Particle1\OCV\Data_0109.tif
2-Theta Angle (Degrees)
Intensity
       2000
 0.01725  0.0000000E+00
 0.04025  0.0000000E+00
 0.06325  0.0000000E+00
 0.08625  0.0000000E+00
 0.10925  0.0000000E+00
 0.13225  0.0000000E+00
 0.15525  0.0000000E+00
 0.17825  0.0000000E+00
 0.20125  0.0000000E+00
 0.22425  0.0000000E+00
 0.24725  0.0000000E+00
 0.27025  0.0000000E+00
 0.29325  0.0000000E+00
 0.31625  0.0000000E+00
 0.33925  0.0000000E+00
 0.36225  0.0000000E+00
 0.38525  0.0000000E+00
 0.40825  0.0000000E+00
 0.43125  0.0000000E+00
 0.45425  0.0000000E+00
 0.47725  0.0000000E+00
 0.50025  0.0000000E+00
 0.52325  0.0000000E+00
 0.54625  0.0000000E+00
 0.56925  0.0000000E+00
 0.59225  0.0000000E+00
 0.61525  0.0000000E+00
 0.63825  0.0000000E+00
 0.66125  0.0000000E+00
 0.68425  0.0000000E+00
 0.70725  0.0000000E+00
 0.73025  0.0000000E+00
 0.75325  0.0000000E+00
 0.77625  0.0000000E+00
 0.79925  0.0000000E+00
 0.82225  0.0000000E+00
 0.84525  0.0000000E+00
 0.86825  0.0000000E+00
 0.89125  0.0000000E+00
 0.91425  0.0000000E+00
 0.93725  0.0000000E+00
 0.96025  0.0000000E+00
 0.98325  0.0000000E+00
 1.00625  0.0000000E+00
 1.02925  0.0000000E+00
 1.05225  0.0000000E+00
 1.07525  0.0000000E+00
 1.09825  0.0000000E+00
 1.12125  0.0000000E+00
 1.14425  0.0000000E+00
 1.16725  0.0000000E+00
 1.19025  0.0000000E+00
 1.21325  0.0000000E+00
 1.23625  0.0000000E+00
 1.25925  0.0000000E+00
 1.28225  0.0000000E+00
 1.30525  0.0000000E+00
 1.32825  0.0000000E+00
 1.35125  0.0000000E+00
 1.37425  0.0000000E+00
 1.39725  0.0000000E+00
 1.42025  0.0000000E+00
 1.44325  0.0000000E+00
 1.46625  0.0000000E+00
 1.48925  0.0000000E+00
 1.51225  0.0000000E+00
 1.53525  0.0000000E+00
 1.55825  0.0000000E+00
 1.58125  0.0000000E+00
 1.60425  0.0000000E+00
 1.62725  0.0000000E+00
 1.65025  0.0000000E+00
 1.67325  0.0000000E+00
 1.69625  0.0000000E+00
 1.71925  0.0000000E+00
 1.74225  0.0000000E+00
 1.76525  0.0000000E+00
 1.78825  0.0000000E+00
 1.81125  0.0000000E+00
 1.83425  0.0000000E+00
 1.85725  0.0000000E+00
 1.88025  0.0000000E+00
 1.90325  0.0000000E+00
 1.92625  0.0000000E+00
 1.94925  0.0000000E+00
 1.97225  0.0000000E+00
 1.99525  0.0000000E+00
 2.01825  0.0000000E+00
 2.04125  0.0000000E+00
 2.06425  0.0000000E+00
 2.08725  0.0000000E+00
 2.11025  0.0000000E+00
 2.13325  0.0000000E+00
 2.15625  0.0000000E+00
 2.17925  0.0000000E+00
 2.20225  0.0000000E+00
 2.22525  0.0000000E+00
 2.24825  0.0000000E+00
 2.27125  0.0000000E+00
 2.29425  0.0000000E+00
 2.31725  0.0000000E+00
 2.34025  0.0000000E+00
 2.36325  0.0000000E+00
 2.38625  0.0000000E+00
 2.40925  0.0000000E+00
 2.43225  0.0000000E+00
 2.45525  0.0000000E+00
 2.47825  0.0000000E+00
 2.50125  0.0000000E+00
 2.52425  0.0000000E+00
 2.54725  0.0000000E+00
 2.57025  0.0000000E+00
 2.59325  0.0000000E+00
 2.61625  0.0000000E+00
 2.63925  0.0000000E+00
 2.66225  0.0000000E+00
 2.68525  0.0000000E+00
 2.70825  0.0000000E+00
 2.73125  0.0000000E+00
 2.75425  0.0000000E+00
 2.77725  0.0000000E+00
 2.80025  0.0000000E+00
 2.82325  37.2922
 2.84625  36.0418
 2.86925  34.3621
 2.89225  35.0144
 2.91525  36.0987
 2.93825  35.7197
 2.96125  35.4835
 2.98425  35.8953
 3.00725  36.5114
 3.03025  36.7164
 3.05325  36.1888
 3.07625  36.0191
 3.09925  35.9767
 3.12225  35.425
 3.14525  35.1748
 3.16825  35.2477
 3.19125  35.4277
 3.21425  35.0404
 3.23725  35.032
 3.26025  35.0665
 3.28325  34.7604
 3.30625  34.9347
 3.32925  34.6316
 3.35225  34.0836
 3.37525  34.1509
 3.39825  34.2812
 3.42125  34.4116
 3.44425  35.1113
 3.46725  35.4595
 3.49025  35.2974
 3.51325  34.667
 3.53625  33.9296
 3.55925  33.5395
 3.58225  33.2826
 3.60525  33.2754
 3.62825  33.2141
 3.65125  33.4424
 3.67425  33.6034
 3.69725  33.4634
 3.72025  33.1676
 3.74325  32.9126
 3.76625  32.8826
 3.78925  32.6458
 3.81225  32.5341
 3.83525  32.451
 3.85825  32.5559
 3.88125  32.8761
 3.90425  32.9816
 3.92725  32.8547
 3.95025  32.6941
 3.97325  32.9921
 3.99625  33.1316
 4.01925  32.7488
 4.04225  32.1759
 4.06525  32.0317
 4.08825  31.9891
 4.11125  32.3561
 4.13425  32.3267
 4.15725  32.2567
 4.18025  31.7476
 4.20325  31.6614
 4.22625  31.6894
 4.24925  31.7977
 4.27225  31.8769
 4.29525  32.0019
 4.31825  31.9661
 4.34125  31.9265
 4.36425  31.816
 4.38725  32.0754
 4.41025  32.2583
 4.43325  32.2064
 4.45625  32.1064
 4.47925  32.2403
 4.50225  32.4222
 4.52525  32.6781
 4.54825  32.6378
 4.57125  32.5223
 4.59425  32.6141
 4.61725  32.6773
 4.64025  32.445
 4.66325  32.3997
 4.68625  32.3977
 4.70925  32.6073
 4.73225  32.6983
 4.75525  32.7431
 4.77825  32.7444
 4.80125  32.6832
 4.82425  32.5991
 4.84725  32.6432
 4.87025  32.8497
 4.89325  32.8145
 4.91625  32.8012
 4.93925  32.7648
 4.96225  32.6817
 4.98525  32.6949
 5.00825  32.9067
 5.03125  33.0513
 5.05425  33.2158
 5.07725  33.5291
 5.10025  33.7599
 5.12325  33.6478
 5.14625  33.7063
 5.16925  33.7375
 5.19225  33.5884
 5.21525  33.7093
 5.23825  33.8603
 5.26125  33.6479
 5.28425  33.4956
 5.30725  33.785
 5.33025  33.9822
 5.35325  34.0627
 5.37625  34.269
 5.39925  34.4952
 5.42225  34.4166
 5.44525  34.355
 5.46825  34.3607
 5.49125  34.3545
 5.51425  34.5561
 5.53725  34.8282
 5.56025  34.9544
 5.58325  34.8442
 5.60625  35.0602
 5.62925  34.9687
 5.65225  34.9538
 5.67525  35.052
 5.69825  35.0463
 5.72125  35.1152
 5.74425  35.2919
 5.76725  35.1857
 5.79025  35.2598
 5.81325  35.2228
 5.83625  35.255
 5.85925  35.4825
 5.88225  35.8112
 5.90525  36.0233
 5.92825  36.1984
 5.95125  36.9805
 5.97425  37.9272
 5.99725  38.0919
 6.02025  37.364
 6.04325  36.7376
 6.06625  36.5167
 6.08925  36.4886
 6.11225  36.6065
 6.13525  36.616
 6.15825  36.5602
 6.18125  36.6744
 6.20425  36.8241
 6.22725  37.0705
 6.25025  37.1889
 6.27325  37.3399
 6.29625  37.434
 6.31925  37.5309
 6.34225  37.8478
 6.36525  37.9421
 6.38825  38.0223
 6.41125  38.0476
 6.43425  38.2931
 6.45725  38.5042
 6.48025  38.6246
 6.50325  38.7306
 6.52625  38.8871
 6.54925  39.0983
 6.57225  39.2373
 6.59525  39.2261
 6.61825  39.3124
 6.64125  39.6345
 6.66425  39.9225
 6.68725  39.9719
 6.71025  39.9791
 6.73325  40.0577
 6.75625  40.3394
 6.77925  40.6574
 6.80225  40.9622
 6.82525  41.175
 6.84825  41.3787
 6.87125  41.3848
 6.89425  41.4781
 6.91725  41.723
 6.94025  41.8778
 6.96325  41.8283
 6.98625  41.9701
 7.00925  42.2453
 7.03225  42.5023
 7.05525  42.3998
 7.07825  42.3514
 7.10125  42.4016
 7.12425  42.5763
 7.14725  42.7681
 7.17025  42.7862
 7.19325  42.8811
 7.21625  43.0035
 7.23925  43.1971
 7.26225  43.39
 7.28525  43.6039
 7.30825  43.6876
 7.33125  43.4757
 7.35425  43.4874
 7.37725  43.657
 7.40025  43.9104
 7.42325  44.0136
 7.44625  44.1762
 7.46925  44.2403
 7.49225  44.3096
 7.51525  44.2261
 7.53825  44.031
 7.56125  44.0557
 7.58425  44.033
 7.60725  43.9156
 7.63025  43.9628
 7.65325  44.1096
 7.67625  44.0023
 7.69925  43.9689
 7.72225  44.0998
 7.74525  44.0661
 7.76825  44.1179
 7.79125  44.0956
 7.81425  44.0201
 7.83725  43.7833
 7.86025  43.6812
 7.88325  43.6418
 7.90625  43.6597
 7.92925  43.6094
 7.95225  43.5986
 7.97525  43.5825
 7.99825  43.5735
 8.02125  43.2181
 8.04425  42.9442
 8.06725  42.7544
 8.09025  42.6055
 8.11325  42.6223
 8.13625  42.4315
 8.15925  42.1834
 8.18225  41.9859
 8.20525  41.8192
 8.22825  41.5876
 8.25125  41.3804
 8.27425  40.9616
 8.29725  40.6515
 8.32025  40.4013
 8.34325  40.0815
 8.36625  39.8573
 8.38925  39.6226
 8.41225  39.3401
 8.43525  39.0339
 8.45825  38.5893
 8.48125  38.0687
 8.50425  37.6144
 8.52725  37.3343
 8.55025  36.9818
 8.57325  36.5926
 8.59625  36.21
 8.61925  36.0603
 8.64225  35.8215
 8.66525  35.4212
 8.68825  35.1247
 8.71125  34.7696
 8.73425  34.3287
 8.75725  33.9069
 8.78025  33.5704
 8.80325  33.3128
 8.82625  33.016
 8.84925  32.6922
 8.87225  32.3102
 8.89525  31.9539
 8.91825  31.5438
 8.94125  31.3224
 8.96425  31.1618
 8.98725  30.829
 9.01025  30.4087
 9.03325  30.0051
 9.05625  29.7171
 9.07925  29.4875
 9.10225  29.3448
 9.12525  29.2527
 9.14825  29.0355
 9.17125  28.7654
 9.19425  28.4693
 9.21725  28.3546
 9.24025  28.1798
 9.26325  28.0128
 9.28625  27.6782
 9.30925  27.4397
 9.33225  27.3506
 9.35525  27.0758
 9.37825  26.8086
 9.40125  26.7487
 9.42425  26.6992
 9.44725  26.4211
 9.47025  26.2001
 9.49325  26.137
 9.51625  25.9874
 9.53925  25.9842
 9.56225  25.8312
 9.58525  25.6127
 9.60825  25.4765
 9.63125  25.3128
 9.65425  25.1445
 9.67725  24.9833
 9.70025  24.9691
 9.72325  25.0074
 9.74625  24.9633
 9.76925  24.8471
 9.79225  24.766
 9.81525  24.728
 9.83825  24.6353
 9.86125  24.4745
 9.88425  24.3765
 9.90725  24.311
 9.93025  24.1859
 9.95325  24.0451
 9.97625  24.0417
 9.99925  23.9377
 10.0222  23.9017
 10.0453  23.7478
 10.0683  23.6205
 10.0913  23.5735
 10.1143  23.5191
 10.1373  23.5092
 10.1603  23.5102
 10.1832  23.5235
 10.2063  23.5105
 10.2293  23.4392
 10.2523  23.3667
 10.2752  23.2963
 10.2982  23.3422
 10.3213  23.2501
 10.3443  23.1659
 10.3673  23.0631
 10.3902  23.0285
 10.4133  22.9914
 10.4363  22.9535
 10.4593  22.9335
 10.4823  22.9034
 10.5053  22.8898
 10.5283  22.8536
 10.5512  22.8716
 10.5742  22.8307
 10.5973  22.7439
 10.6203  22.762
 10.6433  22.8161
 10.6662  22.8123
 10.6893  22.6661
 10.7123  22.6402
 10.7353  22.7155
 10.7583  22.7011
 10.7813  22.5878
 10.8043  22.5209
 10.8272  22.5154
 10.8503  22.4871
 10.8733  22.4848
 10.8963  22.4271
 10.9192  22.3592
 10.9422  22.3321
 10.9653  22.3815
 10.9883  22.3704
 11.0113  22.2975
 11.0343  22.3261
 11.0573  22.2678
 11.0803  22.268
 11.1033  22.2861
 11.1263  22.3052
 11.1493  22.2662
 11.1723  22.21
 11.1953  22.0727
 11.2182  22.0808
 11.2413  22.0531
 11.2643  22.1006
 11.2873  22.122
 11.3102  22.2059
 11.3333  22.0932
 11.3563  22.0538
 11.3793  22.1141
 11.4023  22.3418
 11.4253  22.3141
 11.4483  22.3241
 11.4713  22.2868
 11.4942  22.085
 11.5173  22.018
 11.5403  22.3017
 11.5633  22.7961
 11.5862  23.2019
 11.6093  23.033
 11.6323  22.5424
 11.6553  22.2419
 11.6783  22.162
 11.7013  22.0707
 11.7243  21.9706
 11.7473  22.0237
 11.7703  22.0429
 11.7933  21.9953
 11.8163  22.0199
 11.8393  22.0301
 11.8622  22.0131
 11.8853  21.9666
 11.9083  22.0109
 11.9313  22.1078
 11.9543  22.1096
 11.9773  22.1721
 12.0003  22.2528
 12.0233  22.2378
 12.0463  22.2704
 12.0693  22.3991
 12.0923  22.4719
 12.1153  22.4775
 12.1382  22.3098
 12.1613  22.2144
 12.1843  22.1564
 12.2073  22.1592
 12.2302  22.0504
 12.2533  21.9864
 12.2763  21.9274
 12.2993  21.999
 12.3223  22.0183
 12.3453  22.0436
 12.3683  22.1157
 12.3913  22.1882
 12.4142  22.2419
 12.4373  22.2312
 12.4603  22.2794
 12.4833  22.4632
 12.5062  22.2569
 12.5292  22.3404
 12.5523  22.3435
 12.5753  22.3153
 12.5983  22.3729
 12.6212  22.5454
 12.6443  22.5346
 12.6673  22.4926
 12.6903  22.6066
 12.7133  22.7534
 12.7363  22.7359
 12.7593  22.7295
 12.7822  22.7243
 12.8052  22.7752
 12.8283  22.9331
 12.8513  23.0573
 12.8742  23.0336
 12.8972  23.0513
 12.9203  23.1771
 12.9433  23.2952
 12.9663  23.4089
 12.9893  23.6037
 13.0123  23.6601
 13.0353  23.7257
 13.0582  23.8796
 13.0813  24.1346
 13.1043  24.4253
 13.1273  24.633
 13.1502  24.8603
 13.1732  25.1053
 13.1963  25.2911
 13.2193  25.525
 13.2423  25.9002
 13.2652  26.1613
 13.2883  26.4149
 13.3113  26.6415
 13.3343  26.9252
 13.3573  27.2511
 13.3803  27.4291
 13.4033  27.765
 13.4262  28.1295
 13.4492  28.4482
 13.4723  28.7342
 13.4953  28.8677
 13.5183  28.975
 13.5412  29.1065
 13.5643  29.233
 13.5873  29.3334
 13.6103  29.3727
 13.6333  29.4742
 13.6563  29.3483
 13.6793  29.2667
 13.7022  29.1248
 13.7253  29.0272
 13.7483  28.9959
 13.7713  28.9646
 13.7942  28.8572
 13.8172  28.6185
 13.8403  28.5
 13.8633  28.4044
 13.8863  28.3703
 13.9093  28.6766
 13.9323  29.1104
 13.9553  29.2967
 13.9783  28.9051
 14.0013  28.2793
 14.0243  27.7376
 14.0473  27.3894
 14.0703  27.1829
 14.0932  26.99
 14.1163  26.8602
 14.1393  26.7255
 14.1623  26.5728
 14.1852  26.4005
 14.2083  26.2651
 14.2313  26.1377
 14.2543  25.9786
 14.2773  25.8999
 14.3003  25.7948
 14.3233  25.6152
 14.3463  25.5417
 14.3692  25.6286
 14.3923  25.5371
 14.4153  25.4872
 14.4383  25.4416
 14.4612  25.3008
 14.4843  25.1693
 14.5073  25.2472
 14.5303  25.296
 14.5533  25.3105
 14.5763  25.2403
 14.5993  25.2079
 14.6223  25.0739
 14.6453  24.9818
 14.6683  24.8992
 14.6913  24.8514
 14.7143  24.7898
 14.7372  24.7099
 14.7603  24.742
 14.7833  24.7767
 14.8063  24.638
 14.8293  24.5432
 14.8523  24.5178
 14.8753  24.4024
 14.8983  24.4642
 14.9213  24.4228
 14.9443  24.336
 14.9673  24.2906
 14.9903  24.45
 15.0132  24.5235
 15.0363  24.5353
 15.0593  24.3796
 15.0823  24.2935
 15.1052  24.2993
 15.1283  24.2995
 15.1513  24.4188
 15.1743  24.5047
 15.1973  24.5817
 15.2203  24.519
 15.2433  24.3671
 15.2663  24.2092
 15.2892  24.1604
 15.3123  24.2221
 15.3353  24.1891
 15.3583  24.2709
 15.3812  24.2996
 15.4043  24.2152
 15.4273  24.0764
 15.4503  24.1302
 15.4733  24.1818
 15.4963  24.1581
 15.5193  24.0715
 15.5423  24.088
 15.5653  24.1637
 15.5883  24.2
 15.6113  24.167
 15.6343  24.1546
 15.6572  24.1489
 15.6803  24.1176
 15.7033  24.1938
 15.7263  24.3062
 15.7492  24.3183
 15.7723  24.2425
 15.7953  24.2324
 15.8183  24.3588
 15.8413  24.3759
 15.8643  24.2617
 15.8873  24.2012
 15.9103  24.228
 15.9332  24.2973
 15.9563  24.2909
 15.9793  24.2612
 16.0023  24.2525
 16.0253  24.2
 16.0482  24.2526
 16.0713  24.3706
 16.0943  24.4496
 16.1172  24.4921
 16.1403  24.5256
 16.1633  24.5574
 16.1863  24.6301
 16.2093  24.6775
 16.2323  24.7526
 16.2553  24.864
 16.2783  24.9081
 16.3012  24.7582
 16.3243  24.5967
 16.3472  24.4489
 16.3703  24.2189
 16.3933  24.1738
 16.4163  24.1562
 16.4393  24.2201
 16.4623  24.3004
 16.4853  24.292
 16.5083  24.3383
 16.5312  24.3537
 16.5543  24.3155
 16.5773  24.2267
 16.6002  24.2332
 16.6233  24.1902
 16.6463  24.1851
 16.6693  24.2245
 16.6923  24.2244
 16.7153  24.1624
 16.7383  24.1938
 16.7613  24.1911
 16.7843  24.0676
 16.8073  24.0252
 16.8303  23.9988
 16.8533  24.0575
 16.8763  24.0048
 16.8992  23.9473
 16.9223  23.9376
 16.9453  23.9849
 16.9683  24.0066
 16.9913  23.8918
 17.0143  23.8778
 17.0373  23.9101
 17.0603  23.953
 17.0832  23.9754
 17.1063  23.9173
 17.1293  23.7869
 17.1522  23.7837
 17.1753  23.816
 17.1983  23.7247
 17.2213  23.72
 17.2443  23.7781
 17.2673  23.5988
 17.2903  23.6454
 17.3133  23.716
 17.3362  23.7321
 17.3593  23.7263
 17.3823  23.6604
 17.4053  23.6349
 17.4283  23.6862
 17.4513  23.6857
 17.4743  23.666
 17.4973  23.6617
 17.5203  23.5442
 17.5433  23.5318
 17.5663  23.5169
 17.5893  23.4876
 17.6123  23.5189
 17.6352  23.5232
 17.6583  23.3432
 17.6813  23.3716
 17.7042  23.4924
 17.7273  23.4885
 17.7503  23.461
 17.7733  23.5002
 17.7963  23.5367
 17.8193  23.4266
 17.8423  23.393
 17.8653  23.3829
 17.8882  23.3295
 17.9113  23.2909
 17.9343  23.3474
 17.9573  23.2283
 17.9803  23.2388
 18.0033  23.3216
 18.0263  23.3663
 18.0493  23.3465
 18.0723  23.2887
 18.0953  23.3295
 18.1183  23.3499
 18.1413  23.3183
 18.1643  23.254
 18.1872  23.186
 18.2103  23.1577
 18.2333  23.2074
 18.2563  23.1639
 18.2793  23.1217
 18.3023  23.0714
 18.3253  23.0302
 18.3483  23.0798
 18.3712  23.1556
 18.3943  23.2323
 18.4173  23.2537
 18.4402  23.2017
 18.4633  23.189
 18.4863  23.1667
 18.5093  23.1591
 18.5323  23.1373
 18.5553  23.0469
 18.5783  23.1196
 18.6013  23.1522
 18.6242  23.0926
 18.6473  23.0456
 18.6703  23.0397
 18.6933  23.0973
 18.7163  23.082
 18.7392  23.008
 18.7623  22.9755
 18.7853  23.1064
 18.8083  23.175
 18.8313  23.1161
 18.8543  23.136
 18.8773  23.112
 18.9003  23.1818
 18.9232  23.3372
 18.9463  23.3525
 18.9693  23.138
 18.9922  22.975
 19.0153  22.9924
 19.0383  23.0775
 19.0613  23.102
 19.0843  23.1523
 19.1073  23.1559
 19.1303  23.1687
 19.1533  23.1657
 19.1762  23.0632
 19.1993  23.1275
 19.2223  23.1922
 19.2453  23.2117
 19.2683  23.2443
 19.2913  23.1614
 19.3143  23.1301
 19.3373  23.1388
 19.3603  23.1533
 19.3833  23.17
 19.4062  23.1615
 19.4293  23.2369
 19.4523  23.2273
 19.4752  23.1903
 19.4983  23.2012
 19.5213  23.2488
 19.5443  23.3299
 19.5673  23.2399
 19.5903  23.176
 19.6133  23.2015
 19.6363  23.254
 19.6593  23.2585
 19.6823  23.4588
 19.7053  23.641
 19.7283  23.6494
 19.7513  23.6255
 19.7742  23.5735
 19.7973  23.5077
 19.8203  23.5416
 19.8433  23.7075
 19.8663  23.7425
 19.8893  23.6213
 19.9123  23.537
 19.9353  23.3194
 19.9582  23.2445
 19.9813  23.2897
 20.0043  23.3377
 20.0272  23.3276
 20.0503  23.3017
 20.0733  23.2964
 20.0963  23.3191
 20.1193  23.3576
 20.1423  23.2792
 20.1653  23.2825
 20.1883  23.2262
 20.2112  23.1942
 20.2343  23.2983
 20.2573  23.3372
 20.2803  23.3497
 20.3033  23.3455
 20.3263  23.2402
 20.3493  23.2381
 20.3723  23.2335
 20.3953  23.2636
 20.4183  23.318
 20.4413  23.3658
 20.4643  23.3188
 20.4873  23.3125
 20.5102  23.3046
 20.5333  23.2007
 20.5563  23.2904
 20.5792  23.3259
 20.6023  23.3541
 20.6253  23.3527
 20.6483  23.3718
 20.6713  23.4317
 20.6943  23.6325
 20.7173  23.7068
 20.7403  23.6417
 20.7632  23.684
 20.7863  23.6445
 20.8093  23.5994
 20.8323  23.4824
 20.8553  23.4356
 20.8783  23.3652
 20.9013  23.3776
 20.9243  23.4074
 20.9473  23.5018
 20.9703  23.6173
 20.9933  23.5253
 21.0163  23.4225
 21.0393  23.4369
 21.0622  23.4821
 21.0853  23.4703
 21.1083  23.4134
 21.1313  23.4988
 21.1543  23.4349
 21.1773  23.497
 21.2003  23.5364
 21.2233  23.4705
 21.2462  23.5373
 21.2693  23.5877
 21.2923  23.5373
 21.3152  23.4843
 21.3383  23.4442
 21.3613  23.4236
 21.3843  23.4211
 21.4073  23.443
 21.4303  23.5213
 21.4533  23.472
 21.4763  23.5051
 21.4992  23.6075
 21.5223  23.6483
 21.5453  23.6474
 21.5683  23.607
 21.5913  23.6797
 21.6142  23.6526
 21.6373  23.6756
 21.6603  23.7854
 21.6833  23.7983
 21.7063  23.7575
 21.7293  23.7351
 21.7523  23.7044
 21.7753  23.662
 21.7982  23.6941
 21.8213  23.6768
 21.8443  23.6366
 21.8672  23.8096
 21.8903  23.8583
 21.9133  23.8077
 21.9363  23.7166
 21.9593  23.7739
 21.9823  23.8364
 22.0053  23.8177
 22.0283  23.8165
 22.0512  23.8478
 22.0743  23.8713
 22.0973  23.8317
 22.1203  23.9028
 22.1433  23.9749
 22.1663  23.9684
 22.1893  23.9177
 22.2123  23.9042
 22.2353  23.98
 22.2583  24.0074
 22.2813  24.0451
 22.3043  24.0688
 22.3273  24.1538
 22.3502  24.146
 22.3733  24.1489
 22.3963  24.0899
 22.4193  24.0643
 22.4423  24.1415
 22.4653  24.1938
 22.4883  24.2133
 22.5113  24.2988
 22.5343  24.3114
 22.5573  24.255
 22.5803  24.3946
 22.6033  24.5079
 22.6263  24.5368
 22.6493  24.5296
 22.6723  24.5356
 22.6953  24.6786
 22.7183  24.758
 22.7413  24.8074
 22.7643  24.8264
 22.7873  24.8118
 22.8103  24.9181
 22.8333  25.1608
 22.8563  25.1827
 22.8793  25.2323
 22.9022  25.2668
 22.9253  25.4397
 22.9483  25.5097
 22.9713  25.5319
 22.9943  25.6855