File: test-data-xrd/xrd-map-34-ID-E/Data_0090.chi
F:\20151113_APS_34IDE\\Brian\Particle1\OCV\Data_0090.tif
2-Theta Angle (Degrees)
Intensity
       2000
 0.01725  0.0000000E+00
 0.04025  0.0000000E+00
 0.06325  0.0000000E+00
 0.08625  0.0000000E+00
 0.10925  0.0000000E+00
 0.13225  0.0000000E+00
 0.15525  0.0000000E+00
 0.17825  0.0000000E+00
 0.20125  0.0000000E+00
 0.22425  0.0000000E+00
 0.24725  0.0000000E+00
 0.27025  0.0000000E+00
 0.29325  0.0000000E+00
 0.31625  0.0000000E+00
 0.33925  0.0000000E+00
 0.36225  0.0000000E+00
 0.38525  0.0000000E+00
 0.40825  0.0000000E+00
 0.43125  0.0000000E+00
 0.45425  0.0000000E+00
 0.47725  0.0000000E+00
 0.50025  0.0000000E+00
 0.52325  0.0000000E+00
 0.54625  0.0000000E+00
 0.56925  0.0000000E+00
 0.59225  0.0000000E+00
 0.61525  0.0000000E+00
 0.63825  0.0000000E+00
 0.66125  0.0000000E+00
 0.68425  0.0000000E+00
 0.70725  0.0000000E+00
 0.73025  0.0000000E+00
 0.75325  0.0000000E+00
 0.77625  0.0000000E+00
 0.79925  0.0000000E+00
 0.82225  0.0000000E+00
 0.84525  0.0000000E+00
 0.86825  0.0000000E+00
 0.89125  0.0000000E+00
 0.91425  0.0000000E+00
 0.93725  0.0000000E+00
 0.96025  0.0000000E+00
 0.98325  0.0000000E+00
 1.00625  0.0000000E+00
 1.02925  0.0000000E+00
 1.05225  0.0000000E+00
 1.07525  0.0000000E+00
 1.09825  0.0000000E+00
 1.12125  0.0000000E+00
 1.14425  0.0000000E+00
 1.16725  0.0000000E+00
 1.19025  0.0000000E+00
 1.21325  0.0000000E+00
 1.23625  0.0000000E+00
 1.25925  0.0000000E+00
 1.28225  0.0000000E+00
 1.30525  0.0000000E+00
 1.32825  0.0000000E+00
 1.35125  0.0000000E+00
 1.37425  0.0000000E+00
 1.39725  0.0000000E+00
 1.42025  0.0000000E+00
 1.44325  0.0000000E+00
 1.46625  0.0000000E+00
 1.48925  0.0000000E+00
 1.51225  0.0000000E+00
 1.53525  0.0000000E+00
 1.55825  0.0000000E+00
 1.58125  0.0000000E+00
 1.60425  0.0000000E+00
 1.62725  0.0000000E+00
 1.65025  0.0000000E+00
 1.67325  0.0000000E+00
 1.69625  0.0000000E+00
 1.71925  0.0000000E+00
 1.74225  0.0000000E+00
 1.76525  0.0000000E+00
 1.78825  0.0000000E+00
 1.81125  0.0000000E+00
 1.83425  0.0000000E+00
 1.85725  0.0000000E+00
 1.88025  0.0000000E+00
 1.90325  0.0000000E+00
 1.92625  0.0000000E+00
 1.94925  0.0000000E+00
 1.97225  0.0000000E+00
 1.99525  0.0000000E+00
 2.01825  0.0000000E+00
 2.04125  0.0000000E+00
 2.06425  0.0000000E+00
 2.08725  0.0000000E+00
 2.11025  0.0000000E+00
 2.13325  0.0000000E+00
 2.15625  0.0000000E+00
 2.17925  0.0000000E+00
 2.20225  0.0000000E+00
 2.22525  0.0000000E+00
 2.24825  0.0000000E+00
 2.27125  0.0000000E+00
 2.29425  0.0000000E+00
 2.31725  0.0000000E+00
 2.34025  0.0000000E+00
 2.36325  0.0000000E+00
 2.38625  0.0000000E+00
 2.40925  0.0000000E+00
 2.43225  0.0000000E+00
 2.45525  0.0000000E+00
 2.47825  0.0000000E+00
 2.50125  0.0000000E+00
 2.52425  0.0000000E+00
 2.54725  0.0000000E+00
 2.57025  0.0000000E+00
 2.59325  0.0000000E+00
 2.61625  0.0000000E+00
 2.63925  0.0000000E+00
 2.66225  0.0000000E+00
 2.68525  0.0000000E+00
 2.70825  0.0000000E+00
 2.73125  0.0000000E+00
 2.75425  0.0000000E+00
 2.77725  0.0000000E+00
 2.80025  0.0000000E+00
 2.82325  34.0524
 2.84625  33.4218
 2.86925  34.0542
 2.89225  34.4287
 2.91525  34.7599
 2.93825  35.2097
 2.96125  35.0882
 2.98425  34.9512
 3.00725  36.4416
 3.03025  36.9492
 3.05325  36.6285
 3.07625  36.3816
 3.09925  36.5618
 3.12225  36.3486
 3.14525  36.3337
 3.16825  36.4822
 3.19125  36.2538
 3.21425  36.0278
 3.23725  35.8892
 3.26025  36.1303
 3.28325  36.2209
 3.30625  35.7835
 3.32925  35.7615
 3.35225  35.5361
 3.37525  35.4102
 3.39825  34.9893
 3.42125  34.7073
 3.44425  34.7988
 3.46725  34.5519
 3.49025  33.3893
 3.51325  33.0347
 3.53625  33.4063
 3.55925  33.3492
 3.58225  33.1626
 3.60525  33.2072
 3.62825  33.4818
 3.65125  33.6261
 3.67425  33.6025
 3.69725  33.5994
 3.72025  33.673
 3.74325  33.9108
 3.76625  33.4332
 3.78925  33.0898
 3.81225  33.1273
 3.83525  33.1027
 3.85825  33.3826
 3.88125  33.5799
 3.90425  32.9389
 3.92725  32.5964
 3.95025  32.8573
 3.97325  33.2077
 3.99625  33.5045
 4.01925  33.0408
 4.04225  32.3308
 4.06525  32.2869
 4.08825  32.4058
 4.11125  32.427
 4.13425  32.3212
 4.15725  32.3847
 4.18025  32.2434
 4.20325  32.5319
 4.22625  32.744
 4.24925  32.6364
 4.27225  32.7984
 4.29525  32.9458
 4.31825  33.065
 4.34125  33.1814
 4.36425  33.0266
 4.38725  33.0071
 4.41025  32.9104
 4.43325  32.8587
 4.45625  32.7412
 4.47925  32.6457
 4.50225  32.6244
 4.52525  32.9892
 4.54825  33.0454
 4.57125  32.7486
 4.59425  32.905
 4.61725  33.0097
 4.64025  33.0195
 4.66325  33.1519
 4.68625  33.325
 4.70925  33.2895
 4.73225  33.097
 4.75525  32.8313
 4.77825  32.9253
 4.80125  33.0516
 4.82425  32.8905
 4.84725  33.014
 4.87025  33.2009
 4.89325  33.207
 4.91625  33.3564
 4.93925  33.2933
 4.96225  33.0994
 4.98525  33.0538
 5.00825  33.3507
 5.03125  33.6601
 5.05425  33.8396
 5.07725  33.6791
 5.10025  33.57
 5.12325  33.5945
 5.14625  33.8451
 5.16925  33.9774
 5.19225  34.0871
 5.21525  34.3089
 5.23825  34.5336
 5.26125  34.5956
 5.28425  34.3698
 5.30725  34.167
 5.33025  34.3829
 5.35325  34.6885
 5.37625  34.9584
 5.39925  35.1836
 5.42225  35.275
 5.44525  35.1613
 5.46825  35.2318
 5.49125  35.167
 5.51425  35.13
 5.53725  35.2409
 5.56025  35.3299
 5.58325  35.5907
 5.60625  35.6801
 5.62925  35.8945
 5.65225  36.0917
 5.67525  36.1709
 5.69825  36.0416
 5.72125  36.2277
 5.74425  36.3108
 5.76725  36.4222
 5.79025  36.6031
 5.81325  36.7251
 5.83625  36.9723
 5.85925  37.3394
 5.88225  37.8303
 5.90525  39.2546
 5.92825  46.232
 5.95125  66.1359
 5.97425  74.4534
 5.99725  63.0313
 6.02025  48.1877
 6.04325  42.1977
 6.06625  39.0184
 6.08925  38.0726
 6.11225  38.006
 6.13525  37.8349
 6.15825  37.4568
 6.18125  37.4779
 6.20425  37.6186
 6.22725  37.9109
 6.25025  38.0432
 6.27325  38.2093
 6.29625  38.3149
 6.31925  38.1694
 6.34225  38.3578
 6.36525  38.6383
 6.38825  38.6923
 6.41125  38.5928
 6.43425  38.7157
 6.45725  38.9126
 6.48025  39.1671
 6.50325  39.6792
 6.52625  40.106
 6.54925  40.1225
 6.57225  40.0259
 6.59525  40.0199
 6.61825  40.2634
 6.64125  40.6551
 6.66425  40.7604
 6.68725  40.6567
 6.71025  40.7046
 6.73325  40.9716
 6.75625  41.1693
 6.77925  41.4319
 6.80225  41.7425
 6.82525  42.0375
 6.84825  42.1436
 6.87125  42.1034
 6.89425  42.2752
 6.91725  42.5202
 6.94025  42.4852
 6.96325  42.478
 6.98625  42.4588
 7.00925  42.5275
 7.03225  42.813
 7.05525  43.2099
 7.07825  43.2207
 7.10125  43.337
 7.12425  43.6445
 7.14725  43.7831
 7.17025  43.8631
 7.19325  43.8526
 7.21625  43.7962
 7.23925  43.9219
 7.26225  44.1968
 7.28525  44.3875
 7.30825  44.4818
 7.33125  44.6451
 7.35425  44.5957
 7.37725  44.6935
 7.40025  44.8103
 7.42325  44.9306
 7.44625  44.9135
 7.46925  44.815
 7.49225  44.8412
 7.51525  45.0096
 7.53825  45.0098
 7.56125  44.8649
 7.58425  44.7832
 7.60725  44.6142
 7.63025  44.6648
 7.65325  44.7774
 7.67625  44.8779
 7.69925  44.9772
 7.72225  44.8389
 7.74525  44.8097
 7.76825  44.8831
 7.79125  44.8438
 7.81425  44.7487
 7.83725  44.6806
 7.86025  44.5598
 7.88325  44.3809
 7.90625  44.2656
 7.92925  44.0211
 7.95225  43.9255
 7.97525  44.0408
 7.99825  44.225
 8.02125  44.0506
 8.04425  43.8369
 8.06725  43.6717
 8.09025  43.5287
 8.11325  43.1924
 8.13625  42.8862
 8.15925  42.5861
 8.18225  42.3055
 8.20525  42.194
 8.22825  41.9383
 8.25125  41.6039
 8.27425  41.2167
 8.29725  41.0116
 8.32025  40.7773
 8.34325  40.5648
 8.36625  40.3098
 8.38925  39.9847
 8.41225  39.6047
 8.43525  39.1248
 8.45825  38.8222
 8.48125  38.6748
 8.50425  38.4733
 8.52725  38.0707
 8.55025  37.6531
 8.57325  37.1342
 8.59625  36.7037
 8.61925  36.4989
 8.64225  36.1851
 8.66525  35.784
 8.68825  35.3541
 8.71125  35.0403
 8.73425  34.6309
 8.75725  34.2416
 8.78025  33.9323
 8.80325  33.6631
 8.82625  33.414
 8.84925  32.9052
 8.87225  32.4944
 8.89525  32.1545
 8.91825  31.8138
 8.94125  31.5649
 8.96425  31.2923
 8.98725  31.0379
 9.01025  30.7888
 9.03325  30.4929
 9.05625  30.2566
 9.07925  30.0148
 9.10225  29.6784
 9.12525  29.4427
 9.14825  29.2251
 9.17125  28.9417
 9.19425  28.7592
 9.21725  28.5668
 9.24025  28.2971
 9.26325  28.0394
 9.28625  27.9816
 9.30925  27.8013
 9.33225  27.5325
 9.35525  27.2643
 9.37825  27.0917
 9.40125  26.9934
 9.42425  26.9601
 9.44725  26.8749
 9.47025  26.7459
 9.49325  26.541
 9.51625  26.4138
 9.53925  26.3573
 9.56225  26.1469
 9.58525  26.0515
 9.60825  26.0279
 9.63125  25.8907
 9.65425  25.6584
 9.67725  25.4222
 9.70025  25.3063
 9.72325  25.3129
 9.74625  25.2817
 9.76925  25.2656
 9.79225  25.1931
 9.81525  25.0889
 9.83825  24.9069
 9.86125  24.7197
 9.88425  24.5944
 9.90725  24.6927
 9.93025  24.6371
 9.95325  24.5101
 9.97625  24.4663
 9.99925  24.3797
 10.0222  24.3174
 10.0453  24.3327
 10.0683  24.2694
 10.0913  24.2086
 10.1143  24.1799
 10.1373  24.1598
 10.1603  24.1524
 10.1832  23.9688
 10.2063  23.7871
 10.2293  23.6757
 10.2523  23.4825
 10.2752  23.5268
 10.2982  23.5665
 10.3213  23.5597
 10.3443  23.5474
 10.3673  23.5515
 10.3902  23.6225
 10.4133  23.6003
 10.4363  23.418
 10.4593  23.2921
 10.4823  23.3184
 10.5053  23.434
 10.5283  23.4489
 10.5512  23.4504
 10.5742  23.3399
 10.5973  23.1827
 10.6203  23.104
 10.6433  23.0688
 10.6662  23.0964
 10.6893  23.1781
 10.7123  23.2347
 10.7353  23.109
 10.7583  23.0023
 10.7813  23.0443
 10.8043  23.0435
 10.8272  23.0037
 10.8503  22.9866
 10.8733  23.0389
 10.8963  23.0209
 10.9192  22.9766
 10.9422  22.8539
 10.9653  22.6809
 10.9883  22.6212
 11.0113  22.6188
 11.0343  22.6635
 11.0573  22.6169
 11.0803  22.6088
 11.1033  22.5793
 11.1263  22.5909
 11.1493  22.5188
 11.1723  22.523
 11.1953  22.5422
 11.2182  22.589
 11.2413  22.6389
 11.2643  22.6521
 11.2873  22.5889
 11.3102  22.6016
 11.3333  22.6149
 11.3563  22.5948
 11.3793  22.6943
 11.4023  22.9178
 11.4253  22.9883
 11.4483  23.0745
 11.4713  23.2876
 11.4942  23.5025
 11.5173  24.0514
 11.5403  25.8979
 11.5633  29.6171
 11.5862  34.4482
 11.6093  37.7812
 11.6323  37.5047
 11.6553  32.5184
 11.6783  25.1685
 11.7013  23.4282
 11.7243  23.1869
 11.7473  23.0543
 11.7703  22.8161
 11.7933  22.7359
 11.8163  22.8421
 11.8393  22.7878
 11.8622  22.6678
 11.8853  22.6518
 11.9083  22.7857
 11.9313  22.9996
 11.9543  23.1962
 11.9773  23.4843
 12.0003  23.5943
 12.0233  23.4909
 12.0463  23.6931
 12.0693  24.5118
 12.0923  25.8931
 12.1153  26.6473
 12.1382  26.2691
 12.1613  24.8241
 12.1843  23.6309
 12.2073  23.0199
 12.2302  22.6773
 12.2533  22.6533
 12.2763  22.6577
 12.2993  22.6734
 12.3223  22.7499
 12.3453  22.7335
 12.3683  22.6898
 12.3913  22.7588
 12.4142  22.7517
 12.4373  22.6215
 12.4603  22.6024
 12.4833  22.5826
 12.5062  22.5699
 12.5292  22.5838
 12.5523  22.6694
 12.5753  22.7418
 12.5983  22.7945
 12.6212  22.9478
 12.6443  23.0222
 12.6673  22.9566
 12.6903  22.9812
 12.7133  23.0944
 12.7363  23.0252
 12.7593  23.1201
 12.7822  23.1805
 12.8052  23.1387
 12.8283  23.2305
 12.8513  23.328
 12.8742  23.4449
 12.8972  23.4812
 12.9203  23.6265
 12.9433  23.8015
 12.9663  23.9637
 12.9893  24.0271
 13.0123  24.1148
 13.0353  24.2778
 13.0582  24.4838
 13.0813  24.7236
 13.1043  25.0633
 13.1273  25.2355
 13.1502  25.3606
 13.1732  25.5647
 13.1963  25.733
 13.2193  26.0004
 13.2423  26.2758
 13.2652  26.5349
 13.2883  26.836
 13.3113  27.1575
 13.3343  27.5935
 13.3573  27.8653
 13.3803  27.98
 13.4033  28.3055
 13.4262  28.5414
 13.4492  28.8321
 13.4723  29.0873
 13.4953  29.3261
 13.5183  29.4628
 13.5412  29.6437
 13.5643  29.8208
 13.5873  29.9678
 13.6103  30.059
 13.6333  30.1662
 13.6563  30.1614
 13.6793  30.0009
 13.7022  29.7941
 13.7253  29.7337
 13.7483  29.7387
 13.7713  29.7519
 13.7942  29.7624
 13.8172  29.793
 13.8403  29.9329
 13.8633  30.4558
 13.8863  31.5069
 13.9093  34.9666
 13.9323  40.8165
 13.9553  45.4764
 13.9783  43.6289
 14.0013  36.4437
 14.0243  31.5412
 14.0473  29.3855
 14.0703  28.5773
 14.0932  28.1201
 14.1163  27.7771
 14.1393  27.6312
 14.1623  27.5098
 14.1852  27.3175
 14.2083  27.13
 14.2313  27.0128
 14.2543  26.8882
 14.2773  26.7612
 14.3003  26.6037
 14.3233  26.3535
 14.3463  26.187
 14.3692  26.1513
 14.3923  26.0864
 14.4153  25.8854
 14.4383  25.7908
 14.4612  25.8163
 14.4843  25.7601
 14.5073  25.7541
 14.5303  25.7107
 14.5533  25.7096
 14.5763  25.7072
 14.5993  25.5984
 14.6223  25.5109
 14.6453  25.4129
 14.6683  25.3044
 14.6913  25.3782
 14.7143  25.3269
 14.7372  25.2596
 14.7603  25.2924
 14.7833  25.2637
 14.8063  25.1427
 14.8293  25.1131
 14.8523  25.1268
 14.8753  25.0994
 14.8983  25.0896
 14.9213  25.0387
 14.9443  25.0449
 14.9673  25.0287
 14.9903  25.0439
 15.0132  25.025
 15.0363  24.9725
 15.0593  24.8906
 15.0823  24.9236
 15.1052  25.0897
 15.1283  25.4264
 15.1513  26.1776
 15.1743  27.6206
 15.1973  28.8167
 15.2203  28.6113
 15.2433  27.0764
 15.2663  25.6343
 15.2892  25.0973
 15.3123  25.0003
 15.3353  24.9771
 15.3583  24.8447
 15.3812  24.6564
 15.4043  24.6214
 15.4273  24.6075
 15.4503  24.6684
 15.4733  24.7577
 15.4963  24.8049
 15.5193  24.8819
 15.5423  24.9305
 15.5653  24.832
 15.5883  24.7401
 15.6113  24.7243
 15.6343  24.6741
 15.6572  24.7072
 15.6803  24.7285
 15.7033  24.7664
 15.7263  24.8185
 15.7492  24.6864
 15.7723  24.6768
 15.7953  24.7373
 15.8183  24.7976
 15.8413  24.7226
 15.8643  24.6988
 15.8873  24.7542
 15.9103  24.7323
 15.9332  24.6364
 15.9563  24.6221
 15.9793  24.681
 16.0023  24.7457
 16.0253  24.8412
 16.0482  24.9362
 16.0713  24.9361
 16.0943  24.9375
 16.1172  24.985
 16.1403  25.0097
 16.1633  25.1731
 16.1863  25.5079
 16.2093  26.2587
 16.2323  27.1959
 16.2553  27.7249
 16.2783  27.1366
 16.3012  25.8744
 16.3243  25.1664
 16.3472  24.9768
 16.3703  24.9318
 16.3933  24.9066
 16.4163  24.9659
 16.4393  25.0076
 16.4623  24.9528
 16.4853  24.8744
 16.5083  24.8467
 16.5312  24.8153
 16.5543  24.8034
 16.5773  24.7606
 16.6002  24.7984
 16.6233  24.7082
 16.6463  24.6177
 16.6693  24.6205
 16.6923  24.6862
 16.7153  24.6918
 16.7383  24.6665
 16.7613  24.6543
 16.7843  24.5855
 16.8073  24.5001
 16.8303  24.4618
 16.8533  24.561
 16.8763  24.6066
 16.8992  24.6465
 16.9223  24.5237
 16.9453  24.4754
 16.9683  24.427
 16.9913  24.3464
 17.0143  24.2981
 17.0373  24.4266
 17.0603  24.5085
 17.0832  24.3646
 17.1063  24.4453
 17.1293  24.4452
 17.1522  24.3524
 17.1753  24.3998
 17.1983  24.4903
 17.2213  24.5219
 17.2443  24.3821
 17.2673  24.296
 17.2903  24.3084
 17.3133  24.2684
 17.3362  24.2157
 17.3593  24.2561
 17.3823  24.2489
 17.4053  24.2032
 17.4283  24.1639
 17.4513  24.1135
 17.4743  24.163
 17.4973  24.0898
 17.5203  24.0181
 17.5433  24.05
 17.5663  24.0199
 17.5893  23.9451
 17.6123  23.9617
 17.6352  23.8862
 17.6583  23.8587
 17.6813  23.8792
 17.7042  24.0105
 17.7273  24.0713
 17.7503  24.0426
 17.7733  24.0988
 17.7963  24.1798
 17.8193  24.0589
 17.8423  23.9312
 17.8653  24.0065
 17.8882  23.9921
 17.9113  24.0721
 17.9343  24.1776
 17.9573  24.2976
 17.9803  24.6641
 18.0033  26.1254
 18.0263  29.1317
 18.0493  31.8557
 18.0723  31.7957
 18.0953  29.111
 18.1183  27.9473
 18.1413  26.8968
 18.1643  25.6063
 18.1872  24.6872
 18.2103  24.2516
 18.2333  24.0675
 18.2563  23.881
 18.2793  23.8343
 18.3023  23.8244
 18.3253  23.7227
 18.3483  23.734
 18.3712  23.9325
 18.3943  23.9695
 18.4173  23.9342
 18.4402  23.7565
 18.4633  23.6557
 18.4863  23.6379
 18.5093  23.5669
 18.5323  23.6124
 18.5553  23.6744
 18.5783  23.6115
 18.6013  23.5932
 18.6242  23.6637
 18.6473  23.5681
 18.6703  23.4931
 18.6933  23.6251
 18.7163  23.6757
 18.7392  23.5823
 18.7623  23.6006
 18.7853  23.6648
 18.8083  23.6696
 18.8313  23.5579
 18.8543  23.4641
 18.8773  23.4498
 18.9003  23.531
 18.9232  23.6746
 18.9463  23.7562
 18.9693  23.5792
 18.9922  23.4754
 19.0153  23.5002
 19.0383  23.575
 19.0613  23.6308
 19.0843  23.622
 19.1073  23.5693
 19.1303  23.6262
 19.1533  23.6247
 19.1762  23.5765
 19.1993  23.6491
 19.2223  23.7685
 19.2453  23.7123
 19.2683  23.6738
 19.2913  23.679
 19.3143  23.7297
 19.3373  23.7023
 19.3603  23.6484
 19.3833  23.7051
 19.4062  23.7295
 19.4293  23.7019
 19.4523  23.786
 19.4752  23.8496
 19.4983  23.8061
 19.5213  23.8719
 19.5443  23.9679
 19.5673  23.9922
 19.5903  24.0724
 19.6133  24.2822
 19.6363  24.6796
 19.6593  25.3622
 19.6823  26.7734
 19.7053  29.503
 19.7283  34.0536
 19.7513  34.5648
 19.7742  30.5643
 19.7973  27.4963
 19.8203  27.508
 19.8433  28.9281
 19.8663  29.6624
 19.8893  28.7954
 19.9123  26.9904
 19.9353  25.2784
 19.9582  24.4559
 19.9813  24.135
 20.0043  23.9615
 20.0272  23.9299
 20.0503  24.0182
 20.0733  23.9579
 20.0963  23.9218
 20.1193  24.0117
 20.1423  24.0163
 20.1653  23.9708
 20.1883  23.9088
 20.2112  23.8239
 20.2343  23.8879
 20.2573  23.9125
 20.2803  23.8518
 20.3033  23.8122
 20.3263  23.8639
 20.3493  23.9603
 20.3723  23.9607
 20.3953  23.9643
 20.4183  24.0503
 20.4413  24.0892
 20.4643  24.0749
 20.4873  24.0604
 20.5102  24.1333
 20.5333  24.2195
 20.5563  24.34
 20.5792  24.3996
 20.6023  24.6197
 20.6253  24.851
 20.6483  25.1814
 20.6713  25.7648
 20.6943  27.8671
 20.7173  33.0825
 20.7403  39.758
 20.7632  43.1015
 20.7863  38.6615
 20.8093  31.796
 20.8323  27.9451
 20.8553  25.8558
 20.8783  25.1284
 20.9013  24.8667
 20.9243  24.7713
 20.9473  24.5922
 20.9703  24.4199
 20.9933  24.3573
 21.0163  24.2438
 21.0393  24.2434
 21.0622  24.2285
 21.0853  24.1969
 21.1083  24.0828
 21.1313  24.1047
 21.1543  24.0384
 21.1773  24.0529
 21.2003  24.0445
 21.2233  23.9922
 21.2462  23.9725
 21.2693  24.0684
 21.2923  24.0807
 21.3152  24.0573
 21.3383  24.0391
 21.3613  24.1257
 21.3843  24.0387
 21.4073  24.0582
 21.4303  24.0642
 21.4533  24.0281
 21.4763  24.0473
 21.4992  24.0662
 21.5223  24.0615
 21.5453  24.0556
 21.5683  24.1651
 21.5913  24.3106
 21.6142  24.3251
 21.6373  24.2704
 21.6603  24.2184
 21.6833  24.2189
 21.7063  24.2746
 21.7293  24.2893
 21.7523  24.2904
 21.7753  24.246
 21.7982  24.2123
 21.8213  24.2728
 21.8443  24.2511
 21.8672  24.1855
 21.8903  24.2413
 21.9133  24.3479
 21.9363  24.3757
 21.9593  24.334
 21.9823  24.2442
 22.0053  24.2676
 22.0283  24.3195
 22.0512  24.3231
 22.0743  24.3145
 22.0973  24.4091
 22.1203  24.4737
 22.1433  24.4583
 22.1663  24.3671
 22.1893  24.3582
 22.2123  24.4188
 22.2353  24.5241
 22.2583  24.5107
 22.2813  24.4399
 22.3043  24.4657
 22.3273  24.4997
 22.3502  24.5158
 22.3733  24.5896
 22.3963  24.5941
 22.4193  24.5243
 22.4423  24.627
 22.4653  24.746
 22.4883  24.8177
 22.5113  24.8182
 22.5343  24.8178
 22.5573  24.8356
 22.5803  24.8999
 22.6033  24.9928
 22.6263  25.0608
 22.6493  25.1124
 22.6723  25.1237
 22.6953  25.2116
 22.7183  25.2201
 22.7413  25.2753
 22.7643  25.3089
 22.7873  25.2985
 22.8103  25.3736
 22.8333  25.5415
 22.8563  25.6633
 22.8793  25.6595
 22.9022  25.7806
 22.9253  25.9443
 22.9483  26.0852
 22.9713  26.2458
 22.9943  26.3547