File: test-data-xrd/xrd-map-34-ID-E/Data_0036.chi
F:\20151113_APS_34IDE\\Brian\Particle1\OCV\Data_0036.tif
2-Theta Angle (Degrees)
Intensity
       2000
 0.01725  0.0000000E+00
 0.04025  0.0000000E+00
 0.06325  0.0000000E+00
 0.08625  0.0000000E+00
 0.10925  0.0000000E+00
 0.13225  0.0000000E+00
 0.15525  0.0000000E+00
 0.17825  0.0000000E+00
 0.20125  0.0000000E+00
 0.22425  0.0000000E+00
 0.24725  0.0000000E+00
 0.27025  0.0000000E+00
 0.29325  0.0000000E+00
 0.31625  0.0000000E+00
 0.33925  0.0000000E+00
 0.36225  0.0000000E+00
 0.38525  0.0000000E+00
 0.40825  0.0000000E+00
 0.43125  0.0000000E+00
 0.45425  0.0000000E+00
 0.47725  0.0000000E+00
 0.50025  0.0000000E+00
 0.52325  0.0000000E+00
 0.54625  0.0000000E+00
 0.56925  0.0000000E+00
 0.59225  0.0000000E+00
 0.61525  0.0000000E+00
 0.63825  0.0000000E+00
 0.66125  0.0000000E+00
 0.68425  0.0000000E+00
 0.70725  0.0000000E+00
 0.73025  0.0000000E+00
 0.75325  0.0000000E+00
 0.77625  0.0000000E+00
 0.79925  0.0000000E+00
 0.82225  0.0000000E+00
 0.84525  0.0000000E+00
 0.86825  0.0000000E+00
 0.89125  0.0000000E+00
 0.91425  0.0000000E+00
 0.93725  0.0000000E+00
 0.96025  0.0000000E+00
 0.98325  0.0000000E+00
 1.00625  0.0000000E+00
 1.02925  0.0000000E+00
 1.05225  0.0000000E+00
 1.07525  0.0000000E+00
 1.09825  0.0000000E+00
 1.12125  0.0000000E+00
 1.14425  0.0000000E+00
 1.16725  0.0000000E+00
 1.19025  0.0000000E+00
 1.21325  0.0000000E+00
 1.23625  0.0000000E+00
 1.25925  0.0000000E+00
 1.28225  0.0000000E+00
 1.30525  0.0000000E+00
 1.32825  0.0000000E+00
 1.35125  0.0000000E+00
 1.37425  0.0000000E+00
 1.39725  0.0000000E+00
 1.42025  0.0000000E+00
 1.44325  0.0000000E+00
 1.46625  0.0000000E+00
 1.48925  0.0000000E+00
 1.51225  0.0000000E+00
 1.53525  0.0000000E+00
 1.55825  0.0000000E+00
 1.58125  0.0000000E+00
 1.60425  0.0000000E+00
 1.62725  0.0000000E+00
 1.65025  0.0000000E+00
 1.67325  0.0000000E+00
 1.69625  0.0000000E+00
 1.71925  0.0000000E+00
 1.74225  0.0000000E+00
 1.76525  0.0000000E+00
 1.78825  0.0000000E+00
 1.81125  0.0000000E+00
 1.83425  0.0000000E+00
 1.85725  0.0000000E+00
 1.88025  0.0000000E+00
 1.90325  0.0000000E+00
 1.92625  0.0000000E+00
 1.94925  0.0000000E+00
 1.97225  0.0000000E+00
 1.99525  0.0000000E+00
 2.01825  0.0000000E+00
 2.04125  0.0000000E+00
 2.06425  0.0000000E+00
 2.08725  0.0000000E+00
 2.11025  0.0000000E+00
 2.13325  0.0000000E+00
 2.15625  0.0000000E+00
 2.17925  0.0000000E+00
 2.20225  0.0000000E+00
 2.22525  0.0000000E+00
 2.24825  0.0000000E+00
 2.27125  0.0000000E+00
 2.29425  0.0000000E+00
 2.31725  0.0000000E+00
 2.34025  0.0000000E+00
 2.36325  0.0000000E+00
 2.38625  0.0000000E+00
 2.40925  0.0000000E+00
 2.43225  0.0000000E+00
 2.45525  0.0000000E+00
 2.47825  0.0000000E+00
 2.50125  0.0000000E+00
 2.52425  0.0000000E+00
 2.54725  0.0000000E+00
 2.57025  0.0000000E+00
 2.59325  0.0000000E+00
 2.61625  0.0000000E+00
 2.63925  0.0000000E+00
 2.66225  0.0000000E+00
 2.68525  0.0000000E+00
 2.70825  0.0000000E+00
 2.73125  0.0000000E+00
 2.75425  0.0000000E+00
 2.77725  0.0000000E+00
 2.80025  0.0000000E+00
 2.82325  31.8417
 2.84625  34.4226
 2.86925  35.4193
 2.89225  35.6254
 2.91525  34.9795
 2.93825  34.896
 2.96125  34.5395
 2.98425  33.6438
 3.00725  34.4779
 3.03025  34.4386
 3.05325  34.6606
 3.07625  35.2035
 3.09925  35.5159
 3.12225  35.1394
 3.14525  34.9389
 3.16825  34.7736
 3.19125  35.0751
 3.21425  35.4123
 3.23725  35.1221
 3.26025  34.5224
 3.28325  34.0668
 3.30625  34.2967
 3.32925  34.5076
 3.35225  34.3854
 3.37525  34.6079
 3.39825  34.5573
 3.42125  34.1417
 3.44425  33.698
 3.46725  33.6853
 3.49025  34.0577
 3.51325  33.6708
 3.53625  33.4513
 3.55925  33.4201
 3.58225  33.4917
 3.60525  33.348
 3.62825  33.2706
 3.65125  33.1684
 3.67425  33.2658
 3.69725  33.2575
 3.72025  32.9328
 3.74325  33.0461
 3.76625  33.0861
 3.78925  32.6497
 3.81225  32.2159
 3.83525  32.0651
 3.85825  32.1829
 3.88125  32.078
 3.90425  32.1544
 3.92725  32.2949
 3.95025  32.1676
 3.97325  32.2709
 3.99625  32.494
 4.01925  32.4894
 4.04225  32.5731
 4.06525  32.4218
 4.08825  32.1078
 4.11125  31.8832
 4.13425  31.7641
 4.15725  31.7755
 4.18025  31.7456
 4.20325  31.8811
 4.22625  31.9206
 4.24925  31.8392
 4.27225  31.9716
 4.29525  31.9881
 4.31825  32.2411
 4.34125  32.4532
 4.36425  32.367
 4.38725  31.8886
 4.41025  31.7729
 4.43325  31.7845
 4.45625  31.7217
 4.47925  31.9782
 4.50225  32.1961
 4.52525  32.2052
 4.54825  32.0867
 4.57125  32.2259
 4.59425  32.3986
 4.61725  32.5102
 4.64025  32.5002
 4.66325  32.3388
 4.68625  32.363
 4.70925  32.4812
 4.73225  32.4162
 4.75525  32.4657
 4.77825  32.6389
 4.80125  32.4055
 4.82425  32.2585
 4.84725  32.3294
 4.87025  32.4697
 4.89325  32.4841
 4.91625  32.781
 4.93925  32.8525
 4.96225  32.7003
 4.98525  32.7927
 5.00825  33.0227
 5.03125  33.3288
 5.05425  33.4148
 5.07725  33.2694
 5.10025  33.1459
 5.12325  33.1592
 5.14625  33.4433
 5.16925  33.6146
 5.19225  33.8496
 5.21525  33.7866
 5.23825  33.6304
 5.26125  33.5051
 5.28425  33.3952
 5.30725  33.4839
 5.33025  33.6264
 5.35325  33.7999
 5.37625  34.1133
 5.39925  34.3232
 5.42225  34.3684
 5.44525  34.4243
 5.46825  34.5874
 5.49125  34.6599
 5.51425  34.7391
 5.53725  34.7262
 5.56025  34.8526
 5.58325  35.0419
 5.60625  35.137
 5.62925  35.0165
 5.65225  35.1494
 5.67525  35.4916
 5.69825  35.5712
 5.72125  35.5582
 5.74425  35.5068
 5.76725  35.5146
 5.79025  35.6907
 5.81325  35.8987
 5.83625  36.2507
 5.85925  36.7593
 5.88225  37.6803
 5.90525  39.8976
 5.92825  46.174
 5.95125  57.55
 5.97425  68.569
 5.99725  65.7927
 6.02025  52.9606
 6.04325  42.8373
 6.06625  39.2925
 6.08925  37.9008
 6.11225  37.2902
 6.13525  37.0229
 6.15825  36.8824
 6.18125  36.9943
 6.20425  37.1312
 6.22725  37.304
 6.25025  37.3479
 6.27325  37.6111
 6.29625  37.776
 6.31925  37.7459
 6.34225  37.9392
 6.36525  38.1244
 6.38825  38.2458
 6.41125  38.3678
 6.43425  38.4489
 6.45725  38.5882
 6.48025  38.753
 6.50325  39.0829
 6.52625  39.2815
 6.54925  39.2934
 6.57225  39.3515
 6.59525  39.4183
 6.61825  39.5692
 6.64125  39.7576
 6.66425  40.1156
 6.68725  40.2929
 6.71025  40.4065
 6.73325  40.6538
 6.75625  40.7949
 6.77925  40.805
 6.80225  40.7863
 6.82525  41.077
 6.84825  41.1948
 6.87125  41.4769
 6.89425  41.6714
 6.91725  41.9207
 6.94025  42.0683
 6.96325  42.5055
 6.98625  42.7108
 7.00925  42.5306
 7.03225  42.4685
 7.05525  42.6022
 7.07825  42.7459
 7.10125  42.8228
 7.12425  42.8506
 7.14725  42.9176
 7.17025  42.9001
 7.19325  42.9801
 7.21625  43.0624
 7.23925  43.1988
 7.26225  43.3618
 7.28525  43.5332
 7.30825  43.5518
 7.33125  43.7466
 7.35425  43.8037
 7.37725  44.0073
 7.40025  44.0547
 7.42325  44.238
 7.44625  44.2337
 7.46925  44.0484
 7.49225  43.9363
 7.51525  43.9487
 7.53825  43.9529
 7.56125  43.9454
 7.58425  44.0537
 7.60725  44.1434
 7.63025  44.1285
 7.65325  44.0959
 7.67625  43.9167
 7.69925  43.8635
 7.72225  43.9041
 7.74525  44.0524
 7.76825  44.1109
 7.79125  44.0992
 7.81425  43.9461
 7.83725  43.9224
 7.86025  43.9146
 7.88325  43.6062
 7.90625  43.4883
 7.92925  43.5508
 7.95225  43.489
 7.97525  43.5811
 7.99825  43.4911
 8.02125  43.3561
 8.04425  43.1877
 8.06725  42.85
 8.09025  42.5974
 8.11325  42.4188
 8.13625  42.1995
 8.15925  42.1405
 8.18225  42.0247
 8.20525  41.8194
 8.22825  41.4869
 8.25125  41.1459
 8.27425  40.8869
 8.29725  40.5974
 8.32025  40.3625
 8.34325  39.9357
 8.36625  39.6936
 8.38925  39.4973
 8.41225  39.2452
 8.43525  38.9203
 8.45825  38.6135
 8.48125  38.3008
 8.50425  38.0497
 8.52725  37.5822
 8.55025  37.2287
 8.57325  37.0288
 8.59625  36.5643
 8.61925  36.0803
 8.64225  35.732
 8.66525  35.3497
 8.68825  35.1973
 8.71125  35.0607
 8.73425  34.6876
 8.75725  34.1497
 8.78025  33.74
 8.80325  33.4443
 8.82625  33.1855
 8.84925  32.7902
 8.87225  32.44
 8.89525  32.263
 8.91825  31.9826
 8.94125  31.557
 8.96425  31.2036
 8.98725  30.9275
 9.01025  30.5287
 9.03325  30.1595
 9.05625  29.9332
 9.07925  29.7735
 9.10225  29.5846
 9.12525  29.4521
 9.14825  29.3642
 9.17125  29.1532
 9.19425  28.845
 9.21725  28.5337
 9.24025  28.2187
 9.26325  28.0305
 9.28625  27.8651
 9.30925  27.7863
 9.33225  27.7496
 9.35525  27.5444
 9.37825  27.3042
 9.40125  27.0717
 9.42425  26.8925
 9.44725  26.7245
 9.47025  26.6448
 9.49325  26.5927
 9.51625  26.435
 9.53925  26.2295
 9.56225  26.1023
 9.58525  25.9177
 9.60825  25.8152
 9.63125  25.7087
 9.65425  25.5542
 9.67725  25.4951
 9.70025  25.4483
 9.72325  25.3584
 9.74625  25.1779
 9.76925  25.1003
 9.79225  25.0314
 9.81525  25.0102
 9.83825  24.886
 9.86125  24.7415
 9.88425  24.6461
 9.90725  24.6291
 9.93025  24.6722
 9.95325  24.5509
 9.97625  24.4233
 9.99925  24.3379
 10.0222  24.2017
 10.0453  24.0966
 10.0683  24.1179
 10.0913  23.9871
 10.1143  23.7801
 10.1373  23.7272
 10.1603  23.8262
 10.1832  23.8226
 10.2063  23.6948
 10.2293  23.616
 10.2523  23.5422
 10.2752  23.5556
 10.2982  23.675
 10.3213  23.5922
 10.3443  23.4899
 10.3673  23.5451
 10.3902  23.6427
 10.4133  23.6852
 10.4363  23.5107
 10.4593  23.3704
 10.4823  23.4017
 10.5053  23.3973
 10.5283  23.3316
 10.5512  23.2382
 10.5742  23.2139
 10.5973  23.1874
 10.6203  23.2574
 10.6433  23.2604
 10.6662  23.1526
 10.6893  23.0184
 10.7123  22.9645
 10.7353  22.9848
 10.7583  22.9613
 10.7813  22.9588
 10.8043  22.9379
 10.8272  22.9341
 10.8503  22.786
 10.8733  22.8053
 10.8963  22.8015
 10.9192  22.8182
 10.9422  22.7892
 10.9653  22.747
 10.9883  22.779
 11.0113  22.7559
 11.0343  22.7455
 11.0573  22.5681
 11.0803  22.4814
 11.1033  22.5843
 11.1263  22.6991
 11.1493  22.7451
 11.1723  22.7889
 11.1953  22.8072
 11.2182  22.7278
 11.2413  22.6206
 11.2643  22.6128
 11.2873  22.6102
 11.3102  22.5998
 11.3333  22.5848
 11.3563  22.5105
 11.3793  22.6002
 11.4023  22.8916
 11.4253  23.1107
 11.4483  23.2897
 11.4713  23.4964
 11.4942  23.9094
 11.5173  24.9756
 11.5403  28.3698
 11.5633  34.5896
 11.5862  40.0799
 11.6093  38.9801
 11.6323  33.1754
 11.6553  27.5242
 11.6783  24.5566
 11.7013  23.4151
 11.7243  23.1612
 11.7473  23.0526
 11.7703  22.9748
 11.7933  22.8654
 11.8163  22.8279
 11.8393  22.7287
 11.8622  22.6329
 11.8853  22.7264
 11.9083  22.7437
 11.9313  22.925
 11.9543  23.3499
 11.9773  23.9666
 12.0003  24.2344
 12.0233  24.2174
 12.0463  24.828
 12.0693  26.3747
 12.0923  27.5134
 12.1153  26.6517
 12.1382  24.8433
 12.1613  23.5836
 12.1843  23.0606
 12.2073  22.9646
 12.2302  22.8678
 12.2533  22.672
 12.2763  22.6931
 12.2993  22.6901
 12.3223  22.6521
 12.3453  22.6185
 12.3683  22.7106
 12.3913  22.6755
 12.4142  22.5538
 12.4373  22.6001
 12.4603  22.6661
 12.4833  22.6888
 12.5062  22.5659
 12.5292  22.6971
 12.5523  22.8918
 12.5753  22.8642
 12.5983  22.8757
 12.6212  23.0026
 12.6443  22.9773
 12.6673  22.94
 12.6903  22.8887
 12.7133  22.9876
 12.7363  22.9752
 12.7593  23.0237
 12.7822  23.1063
 12.8052  23.1782
 12.8283  23.2715
 12.8513  23.3295
 12.8742  23.4552
 12.8972  23.5761
 12.9203  23.7279
 12.9433  23.8304
 12.9663  23.92
 12.9893  24.0785
 13.0123  24.2167
 13.0353  24.3581
 13.0582  24.4684
 13.0813  24.5449
 13.1043  24.7399
 13.1273  24.9997
 13.1502  25.1591
 13.1732  25.3958
 13.1963  25.5881
 13.2193  25.9424
 13.2423  26.2689
 13.2652  26.4895
 13.2883  26.734
 13.3113  27.0066
 13.3343  27.3156
 13.3573  27.6853
 13.3803  28.0153
 13.4033  28.3163
 13.4262  28.5794
 13.4492  28.8042
 13.4723  28.9404
 13.4953  29.1329
 13.5183  29.3867
 13.5412  29.6351
 13.5643  29.7529
 13.5873  29.7768
 13.6103  29.7513
 13.6333  29.7013
 13.6563  29.6766
 13.6793  29.8464
 13.7022  29.8626
 13.7253  29.848
 13.7483  29.8497
 13.7713  29.7875
 13.7942  29.7151
 13.8172  29.7168
 13.8403  29.8993
 13.8633  30.3854
 13.8863  31.4315
 13.9093  34.6481
 13.9323  40.648
 13.9553  46.672
 13.9783  46.3263
 14.0013  41.8208
 14.0243  36.2704
 14.0473  32.5824
 14.0703  29.6536
 14.0932  28.3743
 14.1163  27.9632
 14.1393  27.6498
 14.1623  27.4405
 14.1852  27.1906
 14.2083  27.0779
 14.2313  27.0085
 14.2543  26.8262
 14.2773  26.6344
 14.3003  26.4691
 14.3233  26.3636
 14.3463  26.3536
 14.3692  26.2976
 14.3923  26.215
 14.4153  26.1566
 14.4383  26.099
 14.4612  26.0171
 14.4843  25.8652
 14.5073  25.8956
 14.5303  25.9368
 14.5533  25.8055
 14.5763  25.6821
 14.5993  25.642
 14.6223  25.5125
 14.6453  25.3257
 14.6683  25.395
 14.6913  25.4392
 14.7143  25.4379
 14.7372  25.3375
 14.7603  25.241
 14.7833  25.2153
 14.8063  25.1896
 14.8293  25.1145
 14.8523  25.0723
 14.8753  25.0109
 14.8983  25.0283
 14.9213  25.0526
 14.9443  25.0526
 14.9673  24.9277
 14.9903  24.9619
 15.0132  25.0432
 15.0363  25.0747
 15.0593  25.0992
 15.0823  25.0777
 15.1052  25.2863
 15.1283  25.7734
 15.1513  26.9939
 15.1743  28.7646
 15.1973  30.0816
 15.2203  29.555
 15.2433  27.0271
 15.2663  25.6027
 15.2892  25.1075
 15.3123  24.9435
 15.3353  24.8839
 15.3583  24.8094
 15.3812  24.7297
 15.4043  24.708
 15.4273  24.66
 15.4503  24.6398
 15.4733  24.5627
 15.4963  24.552
 15.5193  24.6403
 15.5423  24.5756
 15.5653  24.5377
 15.5883  24.6017
 15.6113  24.5177
 15.6343  24.5753
 15.6572  24.532
 15.6803  24.5712
 15.7033  24.631
 15.7263  24.6751
 15.7492  24.62
 15.7723  24.6176
 15.7953  24.6374
 15.8183  24.76
 15.8413  24.7515
 15.8643  24.7859
 15.8873  24.6383
 15.9103  24.6982
 15.9332  24.7666
 15.9563  24.7091
 15.9793  24.7791
 16.0023  24.8073
 16.0253  24.7693
 16.0482  24.7718
 16.0713  24.8552
 16.0943  24.9047
 16.1172  24.9465
 16.1403  24.9406
 16.1633  25.043
 16.1863  25.3424
 16.2093  25.9971
 16.2323  26.6073
 16.2553  27.0202
 16.2783  26.7552
 16.3012  25.8073
 16.3243  25.1279
 16.3472  24.8552
 16.3703  24.7691
 16.3933  24.8072
 16.4163  24.9812
 16.4393  25
 16.4623  24.9212
 16.4853  24.7266
 16.5083  24.6848
 16.5312  24.7354
 16.5543  24.7181
 16.5773  24.688
 16.6002  24.7478
 16.6233  24.6246
 16.6463  24.5792
 16.6693  24.6724
 16.6923  24.6966
 16.7153  24.6645
 16.7383  24.6371
 16.7613  24.536
 16.7843  24.4605
 16.8073  24.4333
 16.8303  24.3674
 16.8533  24.4273
 16.8763  24.4247
 16.8992  24.5046
 16.9223  24.4759
 16.9453  24.3538
 16.9683  24.3508
 16.9913  24.4946
 17.0143  24.4987
 17.0373  24.4534
 17.0603  24.2931
 17.0832  24.2322
 17.1063  24.2387
 17.1293  24.2139
 17.1522  24.2827
 17.1753  24.3073
 17.1983  24.2751
 17.2213  24.29
 17.2443  24.2582
 17.2673  24.2111
 17.2903  24.1765
 17.3133  24.1384
 17.3362  24.0911
 17.3593  24.0317
 17.3823  23.9873
 17.4053  23.968
 17.4283  24.0504
 17.4513  24.1507
 17.4743  24.1393
 17.4973  24.0918
 17.5203  24.0104
 17.5433  23.9925
 17.5663  23.934
 17.5893  23.8691
 17.6123  23.8755
 17.6352  23.9799
 17.6583  23.9869
 17.6813  23.93
 17.7042  23.9972
 17.7273  23.9824
 17.7503  23.997
 17.7733  23.9327
 17.7963  23.9878
 17.8193  24.0344
 17.8423  23.9779
 17.8653  24.0021
 17.8882  24.0244
 17.9113  23.9985
 17.9343  24.0434
 17.9573  24.154
 17.9803  24.4531
 18.0033  25.2099
 18.0263  26.0951
 18.0493  26.9719
 18.0723  28.2395
 18.0953  28.3792
 18.1183  27.7405
 18.1413  26.2935
 18.1643  25.2699
 18.1872  24.5752
 18.2103  24.1367
 18.2333  23.929
 18.2563  23.8759
 18.2793  23.8694
 18.3023  23.8744
 18.3253  23.7362
 18.3483  23.7469
 18.3712  23.7888
 18.3943  23.8633
 18.4173  23.9055
 18.4402  23.7941
 18.4633  23.7416
 18.4863  23.6823
 18.5093  23.637
 18.5323  23.6237
 18.5553  23.7207
 18.5783  23.8124
 18.6013  23.8212
 18.6242  23.7788
 18.6473  23.6549
 18.6703  23.5458
 18.6933  23.6721
 18.7163  23.6945
 18.7392  23.6539
 18.7623  23.7043
 18.7853  23.7303
 18.8083  23.7183
 18.8313  23.6194
 18.8543  23.6361
 18.8773  23.6193
 18.9003  23.5781
 18.9232  23.6381
 18.9463  23.6834
 18.9693  23.5342
 18.9922  23.3694
 19.0153  23.464
 19.0383  23.5451
 19.0613  23.5102
 19.0843  23.564
 19.1073  23.5938
 19.1303  23.6128
 19.1533  23.6958
 19.1762  23.6903
 19.1993  23.7035
 19.2223  23.7915
 19.2453  23.6934
 19.2683  23.6322
 19.2913  23.5725
 19.3143  23.6433
 19.3373  23.7743
 19.3603  23.7657
 19.3833  23.7812
 19.4062  23.8249
 19.4293  23.8258
 19.4523  23.7694
 19.4752  23.7814
 19.4983  23.8455
 19.5213  23.9596
 19.5443  24.0504
 19.5673  24.0147
 19.5903  24.0412
 19.6133  24.1808
 19.6363  24.4621
 19.6593  25.1121
 19.6823  26.2493
 19.7053  27.7486
 19.7283  28.9135
 19.7513  28.8562
 19.7742  27.7361
 19.7973  27.0885
 19.8203  27.7502
 19.8433  29.6514
 19.8663  30.6134
 19.8893  29.4543
 19.9123  26.9972
 19.9353  25.2863
 19.9582  24.5058
 19.9813  24.2271
 20.0043  24.13
 20.0272  24.0462
 20.0503  24.0061
 20.0733  23.9537
 20.0963  23.9881
 20.1193  24.005
 20.1423  23.922
 20.1653  24.0009
 20.1883  23.9494
 20.2112  23.9538
 20.2343  23.9553
 20.2573  23.8993
 20.2803  23.8476
 20.3033  23.7786
 20.3263  23.7124
 20.3493  23.7161
 20.3723  23.7343
 20.3953  23.7493
 20.4183  23.8394
 20.4413  23.8851
 20.4643  23.9009
 20.4873  23.8977
 20.5102  23.8987
 20.5333  23.8532
 20.5563  24.0032
 20.5792  24.0329
 20.6023  24.0744
 20.6253  24.1491
 20.6483  24.168
 20.6713  24.5058
 20.6943  25.5092
 20.7173  26.5269
 20.7403  27.0378
 20.7632  27.667
 20.7863  28.0774
 20.8093  27.3498
 20.8323  25.6302
 20.8553  24.6244
 20.8783  24.2933
 20.9013  24.1382
 20.9243  24.1586
 20.9473  24.1069
 20.9703  23.9849
 20.9933  24.0214
 21.0163  23.9982
 21.0393  24.034
 21.0622  24.0445
 21.0853  24.0989
 21.1083  23.948
 21.1313  23.9881
 21.1543  23.9663
 21.1773  24.0054
 21.2003  24.083
 21.2233  23.9461
 21.2462  23.8999
 21.2693  23.8928
 21.2923  23.9667
 21.3152  24.0175
 21.3383  24.0011
 21.3613  24.0579
 21.3843  24.0195
 21.4073  24.001
 21.4303  24.0177
 21.4533  24.0307
 21.4763  24.0224
 21.4992  24.0495
 21.5223  24.106
 21.5453  24.1722
 21.5683  24.1806
 21.5913  24.2166
 21.6142  24.1949
 21.6373  24.1876
 21.6603  24.2122
 21.6833  24.328
 21.7063  24.184
 21.7293  24.206
 21.7523  24.2338
 21.7753  24.2244
 21.7982  24.2666
 21.8213  24.3013
 21.8443  24.2621
 21.8672  24.2952
 21.8903  24.314
 21.9133  24.2679
 21.9363  24.2763
 21.9593  24.3223
 21.9823  24.3161
 22.0053  24.359
 22.0283  24.3934
 22.0512  24.3562
 22.0743  24.2916
 22.0973  24.3378
 22.1203  24.5027
 22.1433  24.4749
 22.1663  24.4222
 22.1893  24.3873
 22.2123  24.4765
 22.2353  24.5527
 22.2583  24.627
 22.2813  24.5886
 22.3043  24.6555
 22.3273  24.7033
 22.3502  24.6924
 22.3733  24.5746
 22.3963  24.6012
 22.4193  24.5263
 22.4423  24.6186
 22.4653  24.6441
 22.4883  24.6852
 22.5113  24.7217
 22.5343  24.7403
 22.5573  24.8188
 22.5803  24.8932
 22.6033  24.9449
 22.6263  24.9849
 22.6493  25.0122
 22.6723  25.0253
 22.6953  25.1191
 22.7183  25.1869
 22.7413  25.284
 22.7643  25.4506
 22.7873  25.3715
 22.8103  25.4541
 22.8333  25.4973
 22.8563  25.5566
 22.8793  25.6804
 22.9022  25.8545
 22.9253  26.0339
 22.9483  26.1066
 22.9713  26.2761
 22.9943  26.5447