File: test-data-xrd/xrd-map-34-ID-E/Data_0089.chi
F:\20151113_APS_34IDE\\Brian\Particle1\OCV\Data_0089.tif
2-Theta Angle (Degrees)
Intensity
       2000
 0.01725  0.0000000E+00
 0.04025  0.0000000E+00
 0.06325  0.0000000E+00
 0.08625  0.0000000E+00
 0.10925  0.0000000E+00
 0.13225  0.0000000E+00
 0.15525  0.0000000E+00
 0.17825  0.0000000E+00
 0.20125  0.0000000E+00
 0.22425  0.0000000E+00
 0.24725  0.0000000E+00
 0.27025  0.0000000E+00
 0.29325  0.0000000E+00
 0.31625  0.0000000E+00
 0.33925  0.0000000E+00
 0.36225  0.0000000E+00
 0.38525  0.0000000E+00
 0.40825  0.0000000E+00
 0.43125  0.0000000E+00
 0.45425  0.0000000E+00
 0.47725  0.0000000E+00
 0.50025  0.0000000E+00
 0.52325  0.0000000E+00
 0.54625  0.0000000E+00
 0.56925  0.0000000E+00
 0.59225  0.0000000E+00
 0.61525  0.0000000E+00
 0.63825  0.0000000E+00
 0.66125  0.0000000E+00
 0.68425  0.0000000E+00
 0.70725  0.0000000E+00
 0.73025  0.0000000E+00
 0.75325  0.0000000E+00
 0.77625  0.0000000E+00
 0.79925  0.0000000E+00
 0.82225  0.0000000E+00
 0.84525  0.0000000E+00
 0.86825  0.0000000E+00
 0.89125  0.0000000E+00
 0.91425  0.0000000E+00
 0.93725  0.0000000E+00
 0.96025  0.0000000E+00
 0.98325  0.0000000E+00
 1.00625  0.0000000E+00
 1.02925  0.0000000E+00
 1.05225  0.0000000E+00
 1.07525  0.0000000E+00
 1.09825  0.0000000E+00
 1.12125  0.0000000E+00
 1.14425  0.0000000E+00
 1.16725  0.0000000E+00
 1.19025  0.0000000E+00
 1.21325  0.0000000E+00
 1.23625  0.0000000E+00
 1.25925  0.0000000E+00
 1.28225  0.0000000E+00
 1.30525  0.0000000E+00
 1.32825  0.0000000E+00
 1.35125  0.0000000E+00
 1.37425  0.0000000E+00
 1.39725  0.0000000E+00
 1.42025  0.0000000E+00
 1.44325  0.0000000E+00
 1.46625  0.0000000E+00
 1.48925  0.0000000E+00
 1.51225  0.0000000E+00
 1.53525  0.0000000E+00
 1.55825  0.0000000E+00
 1.58125  0.0000000E+00
 1.60425  0.0000000E+00
 1.62725  0.0000000E+00
 1.65025  0.0000000E+00
 1.67325  0.0000000E+00
 1.69625  0.0000000E+00
 1.71925  0.0000000E+00
 1.74225  0.0000000E+00
 1.76525  0.0000000E+00
 1.78825  0.0000000E+00
 1.81125  0.0000000E+00
 1.83425  0.0000000E+00
 1.85725  0.0000000E+00
 1.88025  0.0000000E+00
 1.90325  0.0000000E+00
 1.92625  0.0000000E+00
 1.94925  0.0000000E+00
 1.97225  0.0000000E+00
 1.99525  0.0000000E+00
 2.01825  0.0000000E+00
 2.04125  0.0000000E+00
 2.06425  0.0000000E+00
 2.08725  0.0000000E+00
 2.11025  0.0000000E+00
 2.13325  0.0000000E+00
 2.15625  0.0000000E+00
 2.17925  0.0000000E+00
 2.20225  0.0000000E+00
 2.22525  0.0000000E+00
 2.24825  0.0000000E+00
 2.27125  0.0000000E+00
 2.29425  0.0000000E+00
 2.31725  0.0000000E+00
 2.34025  0.0000000E+00
 2.36325  0.0000000E+00
 2.38625  0.0000000E+00
 2.40925  0.0000000E+00
 2.43225  0.0000000E+00
 2.45525  0.0000000E+00
 2.47825  0.0000000E+00
 2.50125  0.0000000E+00
 2.52425  0.0000000E+00
 2.54725  0.0000000E+00
 2.57025  0.0000000E+00
 2.59325  0.0000000E+00
 2.61625  0.0000000E+00
 2.63925  0.0000000E+00
 2.66225  0.0000000E+00
 2.68525  0.0000000E+00
 2.70825  0.0000000E+00
 2.73125  0.0000000E+00
 2.75425  0.0000000E+00
 2.77725  0.0000000E+00
 2.80025  0.0000000E+00
 2.82325  33.7416
 2.84625  34.5089
 2.86925  34.9581
 2.89225  35.3031
 2.91525  35.5138
 2.93825  35.6201
 2.96125  35.1902
 2.98425  35.0601
 3.00725  36.2102
 3.03025  36.0612
 3.05325  35.204
 3.07625  34.7557
 3.09925  35.1933
 3.12225  35.0211
 3.14525  34.89
 3.16825  35.1332
 3.19125  35.4797
 3.21425  35.1979
 3.23725  35.1419
 3.26025  35.406
 3.28325  35.5797
 3.30625  35.6508
 3.32925  35.4599
 3.35225  35.3928
 3.37525  34.8146
 3.39825  34.6372
 3.42125  34.2862
 3.44425  34.2523
 3.46725  35.0226
 3.49025  35.2507
 3.51325  34.8317
 3.53625  34.5162
 3.55925  34.4209
 3.58225  34.1269
 3.60525  34.0482
 3.62825  34.0026
 3.65125  34.2767
 3.67425  34.412
 3.69725  34.2494
 3.72025  33.8367
 3.74325  33.8476
 3.76625  33.9739
 3.78925  34.008
 3.81225  33.7666
 3.83525  33.7503
 3.85825  33.4762
 3.88125  33.3013
 3.90425  33.0488
 3.92725  33.0539
 3.95025  33.0362
 3.97325  32.6963
 3.99625  32.3011
 4.01925  32.2604
 4.04225  32.3556
 4.06525  32.5832
 4.08825  32.6763
 4.11125  32.6335
 4.13425  32.8724
 4.15725  33.0249
 4.18025  32.997
 4.20325  33.0487
 4.22625  32.9182
 4.24925  32.995
 4.27225  32.7357
 4.29525  32.516
 4.31825  32.4095
 4.34125  32.3191
 4.36425  32.4201
 4.38725  32.6786
 4.41025  32.9396
 4.43325  32.9471
 4.45625  32.8588
 4.47925  33.0551
 4.50225  33.1614
 4.52525  33.2688
 4.54825  33.252
 4.57125  33.0399
 4.59425  32.8962
 4.61725  32.8355
 4.64025  33.076
 4.66325  33.2248
 4.68625  33.1681
 4.70925  33.0599
 4.73225  32.8003
 4.75525  32.8601
 4.77825  32.9185
 4.80125  32.8717
 4.82425  33.0398
 4.84725  33.0722
 4.87025  33.1629
 4.89325  33.2356
 4.91625  33.2626
 4.93925  33.1456
 4.96225  33.0271
 4.98525  33.4026
 5.00825  33.7934
 5.03125  33.9905
 5.05425  33.9391
 5.07725  33.8212
 5.10025  33.7484
 5.12325  33.7522
 5.14625  34.0055
 5.16925  34.2587
 5.19225  34.5171
 5.21525  34.5525
 5.23825  34.7042
 5.26125  34.6832
 5.28425  34.6058
 5.30725  34.7919
 5.33025  34.9192
 5.35325  35.0336
 5.37625  35.0039
 5.39925  35.1518
 5.42225  35.2689
 5.44525  35.4081
 5.46825  35.5596
 5.49125  35.3645
 5.51425  35.3538
 5.53725  35.5202
 5.56025  35.6261
 5.58325  35.5413
 5.60625  35.7229
 5.62925  36.0211
 5.65225  36.3763
 5.67525  36.8781
 5.69825  36.8054
 5.72125  36.9488
 5.74425  37.0974
 5.76725  37.3051
 5.79025  37.7957
 5.81325  38.2696
 5.83625  39.1063
 5.85925  40.0639
 5.88225  41.861
 5.90525  46.6708
 5.92825  63.556
 5.95125  101.252
 5.97425  161.952
 5.99725  164.913
 6.02025  121.44
 6.04325  73.3626
 6.06625  50.305
 6.08925  43.2762
 6.11225  41.0573
 6.13525  40.1059
 6.15825  39.508
 6.18125  39.1947
 6.20425  38.7247
 6.22725  38.6209
 6.25025  38.4941
 6.27325  38.5265
 6.29625  38.6464
 6.31925  38.6647
 6.34225  38.9605
 6.36525  39.0996
 6.38825  39.1353
 6.41125  39.1745
 6.43425  39.1731
 6.45725  39.2332
 6.48025  39.4839
 6.50325  39.9138
 6.52625  40.0539
 6.54925  39.8846
 6.57225  39.8472
 6.59525  40.0314
 6.61825  40.2655
 6.64125  40.4575
 6.66425  40.773
 6.68725  40.8117
 6.71025  40.8345
 6.73325  41.1007
 6.75625  41.3814
 6.77925  41.5265
 6.80225  41.6844
 6.82525  41.9167
 6.84825  42.0541
 6.87125  42.3284
 6.89425  42.4473
 6.91725  42.4338
 6.94025  42.4885
 6.96325  42.6245
 6.98625  42.7861
 7.00925  42.7566
 7.03225  42.7267
 7.05525  42.9573
 7.07825  43.1191
 7.10125  43.4482
 7.12425  43.8846
 7.14725  43.9375
 7.17025  43.7968
 7.19325  43.8895
 7.21625  43.9869
 7.23925  43.984
 7.26225  43.9016
 7.28525  43.9696
 7.30825  44.1218
 7.33125  44.3495
 7.35425  44.663
 7.37725  44.846
 7.40025  44.9062
 7.42325  44.9306
 7.44625  44.9322
 7.46925  44.8333
 7.49225  44.7561
 7.51525  44.7809
 7.53825  44.7541
 7.56125  44.7835
 7.58425  45.0735
 7.60725  45.2516
 7.63025  45.0904
 7.65325  44.9552
 7.67625  44.9313
 7.69925  44.7721
 7.72225  44.7559
 7.74525  44.7765
 7.76825  44.7938
 7.79125  44.9101
 7.81425  44.8719
 7.83725  44.7588
 7.86025  44.7266
 7.88325  44.6366
 7.90625  44.5788
 7.92925  44.5459
 7.95225  44.4367
 7.97525  44.3029
 7.99825  44.3419
 8.02125  44.0751
 8.04425  43.8617
 8.06725  43.5345
 8.09025  43.4365
 8.11325  43.3232
 8.13625  43.1556
 8.15925  42.9442
 8.18225  42.5777
 8.20525  42.3304
 8.22825  42.1512
 8.25125  41.9817
 8.27425  41.7174
 8.29725  41.4529
 8.32025  41.2125
 8.34325  40.8761
 8.36625  40.4409
 8.38925  40.0766
 8.41225  39.7166
 8.43525  39.4023
 8.45825  39.1612
 8.48125  38.7703
 8.50425  38.3379
 8.52725  38.1524
 8.55025  37.7915
 8.57325  37.52
 8.59625  37.2895
 8.61925  36.8311
 8.64225  36.4747
 8.66525  35.9532
 8.68825  35.5442
 8.71125  35.1723
 8.73425  34.7715
 8.75725  34.371
 8.78025  34.0553
 8.80325  33.6969
 8.82625  33.5075
 8.84925  33.3701
 8.87225  33.1461
 8.89525  32.8194
 8.91825  32.4554
 8.94125  32.1224
 8.96425  31.6906
 8.98725  31.2681
 9.01025  30.881
 9.03325  30.6792
 9.05625  30.5275
 9.07925  30.304
 9.10225  30.0909
 9.12525  29.8099
 9.14825  29.5344
 9.17125  29.2405
 9.19425  28.9661
 9.21725  28.7711
 9.24025  28.559
 9.26325  28.2799
 9.28625  28.1213
 9.30925  27.9262
 9.33225  27.8644
 9.35525  27.7564
 9.37825  27.5607
 9.40125  27.454
 9.42425  27.346
 9.44725  27.1521
 9.47025  26.9371
 9.49325  26.7811
 9.51625  26.5668
 9.53925  26.3739
 9.56225  26.259
 9.58525  26.2126
 9.60825  26.1846
 9.63125  25.9683
 9.65425  25.8495
 9.67725  25.6796
 9.70025  25.4256
 9.72325  25.3596
 9.74625  25.3371
 9.76925  25.3111
 9.79225  25.2214
 9.81525  25.0189
 9.83825  24.9498
 9.86125  24.8318
 9.88425  24.7805
 9.90725  24.8319
 9.93025  24.8346
 9.95325  24.766
 9.97625  24.7323
 9.99925  24.6293
 10.0222  24.409
 10.0453  24.34
 10.0683  24.3887
 10.0913  24.4169
 10.1143  24.3856
 10.1373  24.1917
 10.1603  24.0841
 10.1832  24.0541
 10.2063  24.067
 10.2293  24.1127
 10.2523  23.955
 10.2752  23.8661
 10.2982  23.7164
 10.3213  23.5445
 10.3443  23.5361
 10.3673  23.555
 10.3902  23.6038
 10.4133  23.6663
 10.4363  23.572
 10.4593  23.4848
 10.4823  23.5143
 10.5053  23.4447
 10.5283  23.3627
 10.5512  23.3388
 10.5742  23.2876
 10.5973  23.1569
 10.6203  23.2112
 10.6433  23.2953
 10.6662  23.343
 10.6893  23.2513
 10.7123  23.272
 10.7353  23.1709
 10.7583  22.9718
 10.7813  22.9719
 10.8043  23.0534
 10.8272  23.0816
 10.8503  22.938
 10.8733  22.9762
 10.8963  22.9101
 10.9192  22.8953
 10.9422  22.9558
 10.9653  23.0384
 10.9883  22.9912
 11.0113  22.8865
 11.0343  22.746
 11.0573  22.7165
 11.0803  22.8237
 11.1033  22.8882
 11.1263  22.8229
 11.1493  22.7457
 11.1723  22.7625
 11.1953  22.7285
 11.2182  22.7094
 11.2413  22.722
 11.2643  22.692
 11.2873  22.6333
 11.3102  22.6787
 11.3333  22.7002
 11.3563  22.6625
 11.3793  22.7551
 11.4023  22.9611
 11.4253  23.0974
 11.4483  22.988
 11.4713  23.0031
 11.4942  23.1852
 11.5173  23.6649
 11.5403  25.0897
 11.5633  28.6588
 11.5862  33.008
 11.6093  33.6027
 11.6323  29.8093
 11.6553  25.528
 11.6783  23.8346
 11.7013  23.375
 11.7243  23.2749
 11.7473  23.2433
 11.7703  22.9628
 11.7933  22.8265
 11.8163  22.8651
 11.8393  22.8704
 11.8622  22.8285
 11.8853  22.8124
 11.9083  22.8023
 11.9313  22.9812
 11.9543  23.3966
 11.9773  23.7278
 12.0003  23.829
 12.0233  23.5342
 12.0463  23.5775
 12.0693  24.0903
 12.0923  24.818
 12.1153  24.869
 12.1382  24.3982
 12.1613  23.7265
 12.1843  23.1283
 12.2073  22.8921
 12.2302  22.8213
 12.2533  22.7459
 12.2763  22.6328
 12.2993  22.593
 12.3223  22.6397
 12.3453  22.6397
 12.3683  22.7052
 12.3913  22.7623
 12.4142  22.8048
 12.4373  22.87
 12.4603  22.9207
 12.4833  22.9147
 12.5062  22.9032
 12.5292  22.799
 12.5523  22.861
 12.5753  22.8457
 12.5983  22.9389
 12.6212  22.9815
 12.6443  22.9802
 12.6673  23.012
 12.6903  23.1124
 12.7133  23.2471
 12.7363  23.2377
 12.7593  23.3012
 12.7822  23.364
 12.8052  23.3959
 12.8283  23.5085
 12.8513  23.5247
 12.8742  23.5064
 12.8972  23.5925
 12.9203  23.718
 12.9433  23.9124
 12.9663  24.0678
 12.9893  24.1584
 13.0123  24.2716
 13.0353  24.5144
 13.0582  24.6925
 13.0813  24.7025
 13.1043  24.8353
 13.1273  25.0495
 13.1502  25.3624
 13.1732  25.634
 13.1963  25.7808
 13.2193  26.115
 13.2423  26.5047
 13.2652  26.7369
 13.2883  26.973
 13.3113  27.2203
 13.3343  27.6585
 13.3573  28.1166
 13.3803  28.3894
 13.4033  28.6315
 13.4262  28.769
 13.4492  28.9088
 13.4723  29.1586
 13.4953  29.384
 13.5183  29.4747
 13.5412  29.723
 13.5643  29.8995
 13.5873  30.0212
 13.6103  30.1305
 13.6333  30.134
 13.6563  30.1357
 13.6793  30.1611
 13.7022  29.9263
 13.7253  29.7756
 13.7483  29.7097
 13.7713  29.6528
 13.7942  29.5816
 13.8172  29.514
 13.8403  29.613
 13.8633  29.6801
 13.8863  30.2079
 13.9093  31.4806
 13.9323  33.3086
 13.9553  34.194
 13.9783  33.4603
 14.0013  31.474
 14.0243  29.6455
 14.0473  28.7927
 14.0703  28.4655
 14.0932  28.0819
 14.1163  27.7401
 14.1393  27.4712
 14.1623  27.3529
 14.1852  27.2617
 14.2083  27.0793
 14.2313  26.8754
 14.2543  26.6279
 14.2773  26.5144
 14.3003  26.5393
 14.3233  26.4442
 14.3463  26.3482
 14.3692  26.3367
 14.3923  26.3239
 14.4153  26.2048
 14.4383  26.0434
 14.4612  25.9684
 14.4843  25.9983
 14.5073  25.9522
 14.5303  25.796
 14.5533  25.7965
 14.5763  25.8403
 14.5993  25.718
 14.6223  25.652
 14.6453  25.5072
 14.6683  25.3727
 14.6913  25.4469
 14.7143  25.3742
 14.7372  25.3738
 14.7603  25.3685
 14.7833  25.3914
 14.8063  25.3251
 14.8293  25.2952
 14.8523  25.3498
 14.8753  25.3259
 14.8983  25.2949
 14.9213  25.2586
 14.9443  25.1932
 14.9673  25.1836
 14.9903  25.118
 15.0132  25.1487
 15.0363  25.12
 15.0593  25.0428
 15.0823  25.1071
 15.1052  25.2776
 15.1283  25.8153
 15.1513  26.9989
 15.1743  28.6937
 15.1973  29.5201
 15.2203  28.8202
 15.2433  27.432
 15.2663  26.1144
 15.2892  25.3485
 15.3123  25.1129
 15.3353  24.9417
 15.3583  24.8704
 15.3812  24.9549
 15.4043  25.1421
 15.4273  24.932
 15.4503  24.8138
 15.4733  24.8672
 15.4963  24.825
 15.5193  24.7962
 15.5423  24.7937
 15.5653  24.8083
 15.5883  24.7835
 15.6113  24.6386
 15.6343  24.6893
 15.6572  24.7465
 15.6803  24.7631
 15.7033  24.7191
 15.7263  24.693
 15.7492  24.7474
 15.7723  24.8256
 15.7953  24.7862
 15.8183  24.9014
 15.8413  24.9296
 15.8643  24.8372
 15.8873  24.8348
 15.9103  24.8419
 15.9332  24.8642
 15.9563  24.8006
 15.9793  24.8339
 16.0023  24.8899
 16.0253  24.8556
 16.0482  24.8542
 16.0713  24.85
 16.0943  24.8489
 16.1172  24.9248
 16.1403  25.1551
 16.1633  25.3991
 16.1863  25.7833
 16.2093  26.7552
 16.2323  28.0802
 16.2553  28.8496
 16.2783  27.7547
 16.3012  26.171
 16.3243  25.3966
 16.3472  25.1525
 16.3703  25.0646
 16.3933  24.989
 16.4163  25.0065
 16.4393  25.0129
 16.4623  25.0219
 16.4853  24.9311
 16.5083  24.8356
 16.5312  24.9052
 16.5543  24.9948
 16.5773  24.9167
 16.6002  24.8627
 16.6233  24.795
 16.6463  24.8079
 16.6693  24.8994
 16.6923  24.8906
 16.7153  24.7724
 16.7383  24.626
 16.7613  24.6085
 16.7843  24.5838
 16.8073  24.6174
 16.8303  24.6604
 16.8533  24.5985
 16.8763  24.5593
 16.8992  24.5398
 16.9223  24.6116
 16.9453  24.6216
 16.9683  24.643
 16.9913  24.6168
 17.0143  24.6082
 17.0373  24.4734
 17.0603  24.4111
 17.0832  24.4769
 17.1063  24.5095
 17.1293  24.435
 17.1522  24.4499
 17.1753  24.435
 17.1983  24.4573
 17.2213  24.4459
 17.2443  24.3681
 17.2673  24.2809
 17.2903  24.3147
 17.3133  24.3936
 17.3362  24.3745
 17.3593  24.2904
 17.3823  24.2122
 17.4053  24.2123
 17.4283  24.2275
 17.4513  24.2024
 17.4743  24.2341
 17.4973  24.1802
 17.5203  24.1095
 17.5433  24.1404
 17.5663  24.0792
 17.5893  23.9786
 17.6123  24.0022
 17.6352  23.9996
 17.6583  23.9465
 17.6813  23.9444
 17.7042  24.0681
 17.7273  24.0195
 17.7503  23.963
 17.7733  23.9558
 17.7963  23.9925
 17.8193  23.9874
 17.8423  24.0434
 17.8653  24.0568
 17.8882  24.1411
 17.9113  24.2157
 17.9343  24.2739
 17.9573  24.2459
 17.9803  24.5888
 18.0033  24.876
 18.0263  24.9335
 18.0493  25.4279
 18.0723  26.5368
 18.0953  27.532
 18.1183  27.2422
 18.1413  26.8184
 18.1643  25.9451
 18.1872  24.8674
 18.2103  24.4209
 18.2333  24.0755
 18.2563  23.9211
 18.2793  23.914
 18.3023  23.918
 18.3253  23.825
 18.3483  23.8977
 18.3712  23.8685
 18.3943  23.8133
 18.4173  23.8384
 18.4402  23.7875
 18.4633  23.7051
 18.4863  23.7155
 18.5093  23.7052
 18.5323  23.6982
 18.5553  23.72
 18.5783  23.6824
 18.6013  23.7392
 18.6242  23.6134
 18.6473  23.5781
 18.6703  23.6209
 18.6933  23.7402
 18.7163  23.7306
 18.7392  23.6967
 18.7623  23.6843
 18.7853  23.7081
 18.8083  23.6788
 18.8313  23.6311
 18.8543  23.608
 18.8773  23.5989
 18.9003  23.6742
 18.9232  23.7148
 18.9463  23.816
 18.9693  23.7029
 18.9922  23.7379
 19.0153  23.6727
 19.0383  23.6671
 19.0613  23.716
 19.0843  23.78
 19.1073  23.7341
 19.1303  23.6402
 19.1533  23.6872
 19.1762  23.7514
 19.1993  23.7965
 19.2223  23.7895
 19.2453  23.7414
 19.2683  23.7982
 19.2913  23.7324
 19.3143  23.7585
 19.3373  23.7948
 19.3603  23.7321
 19.3833  23.7821
 19.4062  23.827
 19.4293  23.7119
 19.4523  23.6115
 19.4752  23.7195
 19.4983  23.8095
 19.5213  23.8287
 19.5443  23.9635
 19.5673  23.882
 19.5903  23.9149
 19.6133  24.0292
 19.6363  24.2309
 19.6593  24.5479
 19.6823  25.1664
 19.7053  25.9374
 19.7283  26.7882
 19.7513  26.898
 19.7742  26.4247
 19.7973  26.2424
 19.8203  26.871
 19.8433  28.2746
 19.8663  29.3454
 19.8893  28.7519
 19.9123  27.1637
 19.9353  25.3191
 19.9582  24.6254
 19.9813  24.3766
 20.0043  24.1712
 20.0272  24.066
 20.0503  24.1598
 20.0733  24.1474
 20.0963  24.1126
 20.1193  23.9889
 20.1423  23.9462
 20.1653  23.9744
 20.1883  23.9472
 20.2112  23.9246
 20.2343  24.0031
 20.2573  24.0466
 20.2803  24.062
 20.3033  23.923
 20.3263  23.8416
 20.3493  23.9198
 20.3723  23.9737
 20.3953  23.9478
 20.4183  23.9853
 20.4413  24.0602
 20.4643  24.0592
 20.4873  24.111
 20.5102  24.1693
 20.5333  24.0661
 20.5563  24.1209
 20.5792  24.2136
 20.6023  24.3287
 20.6253  24.3397
 20.6483  24.4967
 20.6713  24.8386
 20.6943  25.5221
 20.7173  27.042
 20.7403  29.3372
 20.7632  31.4996
 20.7863  30.9269
 20.8093  28.3259
 20.8323  26.2563
 20.8553  25.1173
 20.8783  24.5419
 20.9013  24.2916
 20.9243  24.3375
 20.9473  24.3863
 20.9703  24.3067
 20.9933  24.3053
 21.0163  24.1693
 21.0393  24.0799
 21.0622  24.0358
 21.0853  24.0396
 21.1083  24.0505
 21.1313  24.1045
 21.1543  23.9756
 21.1773  24.0484
 21.2003  24.1602
 21.2233  24.122
 21.2462  24.1399
 21.2693  24.1579
 21.2923  24.0874
 21.3152  23.9365
 21.3383  23.9699
 21.3613  24.0909
 21.3843  24.141
 21.4073  24.1057
 21.4303  24.0749
 21.4533  24.0108
 21.4763  24.0089
 21.4992  24.0799
 21.5223  24.0499
 21.5453  24.055
 21.5683  24.13
 21.5913  24.205
 21.6142  24.2634
 21.6373  24.285
 21.6603  24.2904
 21.6833  24.2583
 21.7063  24.2217
 21.7293  24.2705
 21.7523  24.3054
 21.7753  24.3039
 21.7982  24.2269
 21.8213  24.2595
 21.8443  24.2516
 21.8672  24.2776
 21.8903  24.2368
 21.9133  24.4002
 21.9363  24.3098
 21.9593  24.326
 21.9823  24.3677
 22.0053  24.3491
 22.0283  24.3753
 22.0512  24.3415
 22.0743  24.2778
 22.0973  24.3283
 22.1203  24.4832
 22.1433  24.5246
 22.1663  24.5053
 22.1893  24.4665
 22.2123  24.4533
 22.2353  24.5474
 22.2583  24.6445
 22.2813  24.6695
 22.3043  24.7638
 22.3273  24.798
 22.3502  24.7964
 22.3733  24.6996
 22.3963  24.5881
 22.4193  24.624
 22.4423  24.7236
 22.4653  24.8082
 22.4883  24.8427
 22.5113  24.8569
 22.5343  24.9382
 22.5573  24.869
 22.5803  24.8215
 22.6033  24.9213
 22.6263  25.0465
 22.6493  25.173
 22.6723  25.2868
 22.6953  25.4198
 22.7183  25.3929
 22.7413  25.3758
 22.7643  25.4617
 22.7873  25.4833
 22.8103  25.5282
 22.8333  25.682
 22.8563  25.7452
 22.8793  25.8674
 22.9022  26.0233
 22.9253  26.183
 22.9483  26.2103
 22.9713  26.3609
 22.9943  26.5198