File: test-data-xrd/xrd-map-34-ID-E/Data_0011.chi
F:\20151113_APS_34IDE\\Brian\Particle1\OCV\Data_0011.tif
2-Theta Angle (Degrees)
Intensity
       2000
 0.01725  0.0000000E+00
 0.04025  0.0000000E+00
 0.06325  0.0000000E+00
 0.08625  0.0000000E+00
 0.10925  0.0000000E+00
 0.13225  0.0000000E+00
 0.15525  0.0000000E+00
 0.17825  0.0000000E+00
 0.20125  0.0000000E+00
 0.22425  0.0000000E+00
 0.24725  0.0000000E+00
 0.27025  0.0000000E+00
 0.29325  0.0000000E+00
 0.31625  0.0000000E+00
 0.33925  0.0000000E+00
 0.36225  0.0000000E+00
 0.38525  0.0000000E+00
 0.40825  0.0000000E+00
 0.43125  0.0000000E+00
 0.45425  0.0000000E+00
 0.47725  0.0000000E+00
 0.50025  0.0000000E+00
 0.52325  0.0000000E+00
 0.54625  0.0000000E+00
 0.56925  0.0000000E+00
 0.59225  0.0000000E+00
 0.61525  0.0000000E+00
 0.63825  0.0000000E+00
 0.66125  0.0000000E+00
 0.68425  0.0000000E+00
 0.70725  0.0000000E+00
 0.73025  0.0000000E+00
 0.75325  0.0000000E+00
 0.77625  0.0000000E+00
 0.79925  0.0000000E+00
 0.82225  0.0000000E+00
 0.84525  0.0000000E+00
 0.86825  0.0000000E+00
 0.89125  0.0000000E+00
 0.91425  0.0000000E+00
 0.93725  0.0000000E+00
 0.96025  0.0000000E+00
 0.98325  0.0000000E+00
 1.00625  0.0000000E+00
 1.02925  0.0000000E+00
 1.05225  0.0000000E+00
 1.07525  0.0000000E+00
 1.09825  0.0000000E+00
 1.12125  0.0000000E+00
 1.14425  0.0000000E+00
 1.16725  0.0000000E+00
 1.19025  0.0000000E+00
 1.21325  0.0000000E+00
 1.23625  0.0000000E+00
 1.25925  0.0000000E+00
 1.28225  0.0000000E+00
 1.30525  0.0000000E+00
 1.32825  0.0000000E+00
 1.35125  0.0000000E+00
 1.37425  0.0000000E+00
 1.39725  0.0000000E+00
 1.42025  0.0000000E+00
 1.44325  0.0000000E+00
 1.46625  0.0000000E+00
 1.48925  0.0000000E+00
 1.51225  0.0000000E+00
 1.53525  0.0000000E+00
 1.55825  0.0000000E+00
 1.58125  0.0000000E+00
 1.60425  0.0000000E+00
 1.62725  0.0000000E+00
 1.65025  0.0000000E+00
 1.67325  0.0000000E+00
 1.69625  0.0000000E+00
 1.71925  0.0000000E+00
 1.74225  0.0000000E+00
 1.76525  0.0000000E+00
 1.78825  0.0000000E+00
 1.81125  0.0000000E+00
 1.83425  0.0000000E+00
 1.85725  0.0000000E+00
 1.88025  0.0000000E+00
 1.90325  0.0000000E+00
 1.92625  0.0000000E+00
 1.94925  0.0000000E+00
 1.97225  0.0000000E+00
 1.99525  0.0000000E+00
 2.01825  0.0000000E+00
 2.04125  0.0000000E+00
 2.06425  0.0000000E+00
 2.08725  0.0000000E+00
 2.11025  0.0000000E+00
 2.13325  0.0000000E+00
 2.15625  0.0000000E+00
 2.17925  0.0000000E+00
 2.20225  0.0000000E+00
 2.22525  0.0000000E+00
 2.24825  0.0000000E+00
 2.27125  0.0000000E+00
 2.29425  0.0000000E+00
 2.31725  0.0000000E+00
 2.34025  0.0000000E+00
 2.36325  0.0000000E+00
 2.38625  0.0000000E+00
 2.40925  0.0000000E+00
 2.43225  0.0000000E+00
 2.45525  0.0000000E+00
 2.47825  0.0000000E+00
 2.50125  0.0000000E+00
 2.52425  0.0000000E+00
 2.54725  0.0000000E+00
 2.57025  0.0000000E+00
 2.59325  0.0000000E+00
 2.61625  0.0000000E+00
 2.63925  0.0000000E+00
 2.66225  0.0000000E+00
 2.68525  0.0000000E+00
 2.70825  0.0000000E+00
 2.73125  0.0000000E+00
 2.75425  0.0000000E+00
 2.77725  0.0000000E+00
 2.80025  0.0000000E+00
 2.82325  35.7351
 2.84625  36.5395
 2.86925  36.499
 2.89225  35.7734
 2.91525  35.5875
 2.93825  35.2688
 2.96125  35.0926
 2.98425  34.8308
 3.00725  34.4495
 3.03025  34.6082
 3.05325  34.4651
 3.07625  34.512
 3.09925  34.9926
 3.12225  35.0456
 3.14525  34.9967
 3.16825  34.8498
 3.19125  35.148
 3.21425  35.6747
 3.23725  35.7087
 3.26025  35.3759
 3.28325  34.791
 3.30625  34.5717
 3.32925  34.3103
 3.35225  33.9122
 3.37525  33.826
 3.39825  33.9984
 3.42125  34.692
 3.44425  34.3731
 3.46725  34.1421
 3.49025  34.878
 3.51325  35.0302
 3.53625  34.5058
 3.55925  34.3137
 3.58225  34.1749
 3.60525  34.0855
 3.62825  34.1952
 3.65125  34.162
 3.67425  33.7321
 3.69725  33.1775
 3.72025  32.7076
 3.74325  32.804
 3.76625  33.0078
 3.78925  32.8496
 3.81225  32.8491
 3.83525  32.9734
 3.85825  33.0394
 3.88125  32.7194
 3.90425  32.7329
 3.92725  32.831
 3.95025  33.0841
 3.97325  33.3044
 3.99625  33.1891
 4.01925  32.545
 4.04225  32.1063
 4.06525  32.1626
 4.08825  32.4038
 4.11125  32.832
 4.13425  32.8679
 4.15725  32.9584
 4.18025  32.7041
 4.20325  32.5376
 4.22625  32.5369
 4.24925  32.484
 4.27225  32.3369
 4.29525  32.3665
 4.31825  32.4125
 4.34125  32.2539
 4.36425  32.064
 4.38725  31.8999
 4.41025  32.1512
 4.43325  32.604
 4.45625  32.7348
 4.47925  32.68
 4.50225  32.3359
 4.52525  32.3245
 4.54825  32.213
 4.57125  32.0251
 4.59425  32.149
 4.61725  32.2136
 4.64025  32.1489
 4.66325  32.2788
 4.68625  32.5034
 4.70925  32.7996
 4.73225  32.8666
 4.75525  32.6527
 4.77825  32.5906
 4.80125  32.9336
 4.82425  33.114
 4.84725  33.0963
 4.87025  32.9449
 4.89325  32.8987
 4.91625  32.9619
 4.93925  32.8018
 4.96225  32.8317
 4.98525  32.9615
 5.00825  33.4116
 5.03125  33.6051
 5.05425  33.5194
 5.07725  33.5098
 5.10025  33.4221
 5.12325  33.5937
 5.14625  34.0274
 5.16925  34.2194
 5.19225  34.3007
 5.21525  34.1185
 5.23825  34.0361
 5.26125  34.1948
 5.28425  34.4823
 5.30725  34.7127
 5.33025  34.8244
 5.35325  34.8482
 5.37625  34.915
 5.39925  34.9541
 5.42225  34.8881
 5.44525  34.7256
 5.46825  34.8305
 5.49125  34.9857
 5.51425  35.1168
 5.53725  35.2316
 5.56025  35.1729
 5.58325  35.1536
 5.60625  35.3572
 5.62925  35.6799
 5.65225  35.8328
 5.67525  35.6568
 5.69825  35.6032
 5.72125  35.7555
 5.74425  35.8915
 5.76725  35.9028
 5.79025  35.8299
 5.81325  35.7989
 5.83625  35.9963
 5.85925  35.9954
 5.88225  36.0329
 5.90525  36.262
 5.92825  36.6721
 5.95125  37.6177
 5.97425  39.0611
 5.99725  39.3406
 6.02025  38.4176
 6.04325  37.3973
 6.06625  36.9523
 6.08925  37.0055
 6.11225  36.8959
 6.13525  36.8141
 6.15825  36.7926
 6.18125  37.0183
 6.20425  37.1857
 6.22725  37.3129
 6.25025  37.3696
 6.27325  37.5337
 6.29625  37.6588
 6.31925  37.7819
 6.34225  38.0053
 6.36525  38.1564
 6.38825  38.3478
 6.41125  38.7171
 6.43425  38.9919
 6.45725  39.1731
 6.48025  39.2329
 6.50325  39.3286
 6.52625  39.6087
 6.54925  39.7392
 6.57225  40.0305
 6.59525  40.234
 6.61825  40.316
 6.64125  40.2705
 6.66425  40.279
 6.68725  40.4945
 6.71025  40.9244
 6.73325  41.2563
 6.75625  41.399
 6.77925  41.4511
 6.80225  41.4469
 6.82525  41.6378
 6.84825  41.789
 6.87125  42.0746
 6.89425  42.2974
 6.91725  42.4722
 6.94025  42.4532
 6.96325  42.3801
 6.98625  42.528
 7.00925  42.5997
 7.03225  42.7474
 7.05525  42.8592
 7.07825  43.0655
 7.10125  43.1582
 7.12425  43.1676
 7.14725  43.3537
 7.17025  43.468
 7.19325  43.7978
 7.21625  43.7921
 7.23925  43.6637
 7.26225  43.7862
 7.28525  43.9021
 7.30825  44.1733
 7.33125  44.2583
 7.35425  44.2432
 7.37725  44.3724
 7.40025  44.5805
 7.42325  44.5685
 7.44625  44.5356
 7.46925  44.5144
 7.49225  44.4713
 7.51525  44.5826
 7.53825  44.667
 7.56125  44.9525
 7.58425  45.0629
 7.60725  44.9785
 7.63025  44.8959
 7.65325  45.1258
 7.67625  45.4915
 7.69925  45.0539
 7.72225  44.8519
 7.74525  44.8398
 7.76825  44.7061
 7.79125  44.7877
 7.81425  44.7479
 7.83725  44.676
 7.86025  44.4824
 7.88325  44.3356
 7.90625  44.2243
 7.92925  44.2494
 7.95225  44.2148
 7.97525  44.1082
 7.99825  44.0832
 8.02125  43.9554
 8.04425  43.7517
 8.06725  43.6009
 8.09025  43.4417
 8.11325  43.1894
 8.13625  42.8717
 8.15925  42.5791
 8.18225  42.4367
 8.20525  42.4383
 8.22825  42.2527
 8.25125  42.0931
 8.27425  41.8431
 8.29725  41.4211
 8.32025  40.8949
 8.34325  40.5437
 8.36625  40.3329
 8.38925  39.9466
 8.41225  39.5527
 8.43525  39.2654
 8.45825  38.8377
 8.48125  38.5676
 8.50425  38.2602
 8.52725  38.0446
 8.55025  37.6693
 8.57325  37.3955
 8.59625  37.0546
 8.61925  36.633
 8.64225  36.3331
 8.66525  35.9846
 8.68825  35.6866
 8.71125  35.3129
 8.73425  34.8748
 8.75725  34.3844
 8.78025  33.9972
 8.80325  33.601
 8.82625  33.3519
 8.84925  33.0426
 8.87225  32.7473
 8.89525  32.5242
 8.91825  32.3478
 8.94125  31.9762
 8.96425  31.6332
 8.98725  31.3343
 9.01025  30.9754
 9.03325  30.6985
 9.05625  30.4986
 9.07925  30.2292
 9.10225  29.9144
 9.12525  29.64
 9.14825  29.48
 9.17125  29.2754
 9.19425  28.9783
 9.21725  28.6688
 9.24025  28.4092
 9.26325  28.1884
 9.28625  28.0593
 9.30925  27.8914
 9.33225  27.7249
 9.35525  27.5399
 9.37825  27.3179
 9.40125  27.0535
 9.42425  26.893
 9.44725  26.6848
 9.47025  26.6461
 9.49325  26.6766
 9.51625  26.5416
 9.53925  26.3634
 9.56225  26.1754
 9.58525  25.9688
 9.60825  26.0449
 9.63125  26.0797
 9.65425  25.8989
 9.67725  25.628
 9.70025  25.2883
 9.72325  25.1524
 9.74625  25.1788
 9.76925  25.1764
 9.79225  25.0885
 9.81525  25.0515
 9.83825  24.9772
 9.86125  24.8883
 9.88425  24.7658
 9.90725  24.6352
 9.93025  24.5637
 9.95325  24.4695
 9.97625  24.4982
 9.99925  24.4807
 10.0222  24.3858
 10.0453  24.4703
 10.0683  24.4824
 10.0913  24.2733
 10.1143  24.0963
 10.1373  24.0228
 10.1603  23.9453
 10.1832  23.9438
 10.2063  23.8997
 10.2293  23.9151
 10.2523  23.8268
 10.2752  23.785
 10.2982  23.629
 10.3213  23.6441
 10.3443  23.5778
 10.3673  23.5551
 10.3902  23.5416
 10.4133  23.5611
 10.4363  23.5379
 10.4593  23.4676
 10.4823  23.5261
 10.5053  23.4507
 10.5283  23.2986
 10.5512  23.1844
 10.5742  23.1444
 10.5973  23.0183
 10.6203  22.9533
 10.6433  23.0488
 10.6662  23.1424
 10.6893  23.1149
 10.7123  22.9925
 10.7353  22.8724
 10.7583  22.8798
 10.7813  22.9584
 10.8043  22.9897
 10.8272  22.9739
 10.8503  22.9433
 10.8733  22.8707
 10.8963  22.7035
 10.9192  22.651
 10.9422  22.5732
 10.9653  22.4531
 10.9883  22.5405
 11.0113  22.6518
 11.0343  22.7603
 11.0573  22.5866
 11.0803  22.4969
 11.1033  22.4401
 11.1263  22.5697
 11.1493  22.6164
 11.1723  22.6726
 11.1953  22.6165
 11.2182  22.4812
 11.2413  22.4769
 11.2643  22.4925
 11.2873  22.5069
 11.3102  22.3754
 11.3333  22.3141
 11.3563  22.3744
 11.3793  22.5192
 11.4023  22.6707
 11.4253  22.6274
 11.4483  22.6555
 11.4713  22.5669
 11.4942  22.551
 11.5173  22.5347
 11.5403  22.7097
 11.5633  23.1191
 11.5862  23.7021
 11.6093  23.918
 11.6323  23.2907
 11.6553  22.8462
 11.6783  22.5719
 11.7013  22.4354
 11.7243  22.3921
 11.7473  22.4663
 11.7703  22.526
 11.7933  22.4221
 11.8163  22.4208
 11.8393  22.4064
 11.8622  22.379
 11.8853  22.3431
 11.9083  22.3988
 11.9313  22.4525
 11.9543  22.5163
 11.9773  22.5317
 12.0003  22.5242
 12.0233  22.5373
 12.0463  22.6748
 12.0693  22.738
 12.0923  22.8896
 12.1153  22.8816
 12.1382  22.775
 12.1613  22.6276
 12.1843  22.5434
 12.2073  22.407
 12.2302  22.4069
 12.2533  22.4536
 12.2763  22.4858
 12.2993  22.5043
 12.3223  22.5825
 12.3453  22.6888
 12.3683  22.7708
 12.3913  22.718
 12.4142  22.5087
 12.4373  22.4901
 12.4603  22.5544
 12.4833  22.5997
 12.5062  22.5804
 12.5292  22.5805
 12.5523  22.6958
 12.5753  22.7351
 12.5983  22.7623
 12.6212  22.8356
 12.6443  22.809
 12.6673  22.9352
 12.6903  23.0806
 12.7133  23.1564
 12.7363  23.1568
 12.7593  23.1251
 12.7822  23.1827
 12.8052  23.2719
 12.8283  23.3038
 12.8513  23.3121
 12.8742  23.2981
 12.8972  23.4048
 12.9203  23.628
 12.9433  23.7265
 12.9663  23.7881
 12.9893  23.8446
 13.0123  23.9572
 13.0353  24.1396
 13.0582  24.303
 13.0813  24.52
 13.1043  24.7883
 13.1273  25.0525
 13.1502  25.2326
 13.1732  25.44
 13.1963  25.7151
 13.2193  26.1104
 13.2423  26.3757
 13.2652  26.621
 13.2883  26.9478
 13.3113  27.2547
 13.3343  27.6073
 13.3573  27.9705
 13.3803  28.1893
 13.4033  28.3755
 13.4262  28.5473
 13.4492  28.7597
 13.4723  28.944
 13.4953  29.1117
 13.5183  29.2813
 13.5412  29.5677
 13.5643  29.8386
 13.5873  29.8187
 13.6103  29.7743
 13.6333  29.7925
 13.6563  29.7247
 13.6793  29.8207
 13.7022  29.7683
 13.7253  29.6418
 13.7483  29.595
 13.7713  29.4669
 13.7942  29.3035
 13.8172  29.0709
 13.8403  28.8942
 13.8633  28.8146
 13.8863  28.7816
 13.9093  28.7975
 13.9323  28.8201
 13.9553  28.7724
 13.9783  28.6212
 14.0013  28.2132
 14.0243  27.8257
 14.0473  27.5181
 14.0703  27.3505
 14.0932  27.2751
 14.1163  27.1939
 14.1393  27.0725
 14.1623  26.9076
 14.1852  26.7405
 14.2083  26.7061
 14.2313  26.6126
 14.2543  26.4988
 14.2773  26.3686
 14.3003  26.2599
 14.3233  26.171
 14.3463  26.0994
 14.3692  26.0899
 14.3923  26.0581
 14.4153  26.021
 14.4383  25.838
 14.4612  25.6676
 14.4843  25.6583
 14.5073  25.5909
 14.5303  25.5137
 14.5533  25.5492
 14.5763  25.5995
 14.5993  25.4896
 14.6223  25.39
 14.6453  25.426
 14.6683  25.3534
 14.6913  25.3611
 14.7143  25.3029
 14.7372  25.0875
 14.7603  24.9996
 14.7833  24.9916
 14.8063  25.0336
 14.8293  25.0348
 14.8523  25.0566
 14.8753  25.0206
 14.8983  25.1122
 14.9213  25.1038
 14.9443  24.9463
 14.9673  24.793
 14.9903  24.7934
 15.0132  24.8418
 15.0363  24.8168
 15.0593  24.7159
 15.0823  24.7209
 15.1052  24.8039
 15.1283  24.8739
 15.1513  25.0692
 15.1743  25.5069
 15.1973  25.7589
 15.2203  25.7386
 15.2433  25.1607
 15.2663  24.8334
 15.2892  24.7694
 15.3123  24.7227
 15.3353  24.6509
 15.3583  24.6102
 15.3812  24.5826
 15.4043  24.5688
 15.4273  24.5605
 15.4503  24.4691
 15.4733  24.363
 15.4963  24.4191
 15.5193  24.5499
 15.5423  24.5891
 15.5653  24.5546
 15.5883  24.5646
 15.6113  24.5592
 15.6343  24.5297
 15.6572  24.5425
 15.6803  24.5889
 15.7033  24.6932
 15.7263  24.6718
 15.7492  24.6415
 15.7723  24.7573
 15.7953  24.732
 15.8183  24.6507
 15.8413  24.5044
 15.8643  24.3585
 15.8873  24.4995
 15.9103  24.6281
 15.9332  24.6155
 15.9563  24.5711
 15.9793  24.59
 16.0023  24.5301
 16.0253  24.5621
 16.0482  24.6116
 16.0713  24.5363
 16.0943  24.6158
 16.1172  24.6873
 16.1403  24.7507
 16.1633  24.9088
 16.1863  24.9229
 16.2093  24.9704
 16.2323  25.0685
 16.2553  25.1883
 16.2783  25.2105
 16.3012  25.0141
 16.3243  24.8658
 16.3472  24.7391
 16.3703  24.668
 16.3933  24.5584
 16.4163  24.6659
 16.4393  24.7756
 16.4623  24.7651
 16.4853  24.7321
 16.5083  24.6848
 16.5312  24.6216
 16.5543  24.5937
 16.5773  24.5351
 16.6002  24.5432
 16.6233  24.5076
 16.6463  24.5335
 16.6693  24.6137
 16.6923  24.6652
 16.7153  24.6654
 16.7383  24.6254
 16.7613  24.5262
 16.7843  24.4882
 16.8073  24.4972
 16.8303  24.391
 16.8533  24.3226
 16.8763  24.439
 16.8992  24.4337
 16.9223  24.3508
 16.9453  24.3009
 16.9683  24.355
 16.9913  24.3382
 17.0143  24.283
 17.0373  24.2237
 17.0603  24.1821
 17.0832  24.1434
 17.1063  24.2227
 17.1293  24.2649
 17.1522  24.262
 17.1753  24.1941
 17.1983  24.2101
 17.2213  24.227
 17.2443  24.0617
 17.2673  23.975
 17.2903  24.0523
 17.3133  24.1038
 17.3362  24.0634
 17.3593  24.0396
 17.3823  23.975
 17.4053  23.8879
 17.4283  23.9184
 17.4513  24.0126
 17.4743  23.9529
 17.4973  23.947
 17.5203  23.9251
 17.5433  24.0086
 17.5663  23.9309
 17.5893  23.7828
 17.6123  23.8225
 17.6352  23.7645
 17.6583  23.6995
 17.6813  23.7742
 17.7042  23.8241
 17.7273  23.7646
 17.7503  23.7101
 17.7733  23.7916
 17.7963  23.8315
 17.8193  23.7293
 17.8423  23.6143
 17.8653  23.6347
 17.8882  23.6846
 17.9113  23.8153
 17.9343  23.8208
 17.9573  23.6834
 17.9803  23.6637
 18.0033  23.8022
 18.0263  23.9167
 18.0493  24.1332
 18.0723  24.2092
 18.0953  24.2758
 18.1183  24.1357
 18.1413  23.9714
 18.1643  23.8254
 18.1872  23.6003
 18.2103  23.5542
 18.2333  23.5122
 18.2563  23.5307
 18.2793  23.5329
 18.3023  23.5574
 18.3253  23.539
 18.3483  23.5829
 18.3712  23.6409
 18.3943  23.6147
 18.4173  23.6423
 18.4402  23.5899
 18.4633  23.542
 18.4863  23.5099
 18.5093  23.462
 18.5323  23.4919
 18.5553  23.4552
 18.5783  23.4578
 18.6013  23.4767
 18.6242  23.4536
 18.6473  23.4131
 18.6703  23.4217
 18.6933  23.5637
 18.7163  23.5203
 18.7392  23.4633
 18.7623  23.429
 18.7853  23.4465
 18.8083  23.5078
 18.8313  23.517
 18.8543  23.533
 18.8773  23.4776
 18.9003  23.4772
 18.9232  23.5579
 18.9463  23.6083
 18.9693  23.483
 18.9922  23.488
 19.0153  23.46
 19.0383  23.4807
 19.0613  23.5242
 19.0843  23.6177
 19.1073  23.5644
 19.1303  23.4695
 19.1533  23.5005
 19.1762  23.4648
 19.1993  23.523
 19.2223  23.448
 19.2453  23.47
 19.2683  23.3971
 19.2913  23.4661
 19.3143  23.5468
 19.3373  23.5762
 19.3603  23.5168
 19.3833  23.5128
 19.4062  23.5666
 19.4293  23.5794
 19.4523  23.605
 19.4752  23.6651
 19.4983  23.554
 19.5213  23.5255
 19.5443  23.6263
 19.5673  23.5778
 19.5903  23.5671
 19.6133  23.5295
 19.6363  23.5151
 19.6593  23.656
 19.6823  23.7911
 19.7053  23.8511
 19.7283  23.845
 19.7513  23.8062
 19.7742  23.7544
 19.7973  23.7424
 19.8203  23.8028
 19.8433  24.0046
 19.8663  23.9804
 19.8893  23.8287
 19.9123  23.7454
 19.9353  23.5947
 19.9582  23.5101
 19.9813  23.5234
 20.0043  23.5868
 20.0272  23.6585
 20.0503  23.6652
 20.0733  23.575
 20.0963  23.566
 20.1193  23.6218
 20.1423  23.6488
 20.1653  23.7025
 20.1883  23.7047
 20.2112  23.6527
 20.2343  23.6964
 20.2573  23.68
 20.2803  23.667
 20.3033  23.6813
 20.3263  23.6262
 20.3493  23.6781
 20.3723  23.679
 20.3953  23.6366
 20.4183  23.639
 20.4413  23.6165
 20.4643  23.5938
 20.4873  23.721
 20.5102  23.676
 20.5333  23.5775
 20.5563  23.7151
 20.5792  23.7245
 20.6023  23.7618
 20.6253  23.7253
 20.6483  23.7654
 20.6713  23.762
 20.6943  23.8194
 20.7173  23.8956
 20.7403  23.8981
 20.7632  23.9394
 20.7863  23.8715
 20.8093  23.7903
 20.8323  23.6662
 20.8553  23.6349
 20.8783  23.5883
 20.9013  23.7078
 20.9243  23.8066
 20.9473  23.7678
 20.9703  23.7491
 20.9933  23.793
 21.0163  23.7263
 21.0393  23.7256
 21.0622  23.7335
 21.0853  23.8122
 21.1083  23.8025
 21.1313  23.8772
 21.1543  23.8446
 21.1773  23.9003
 21.2003  23.9021
 21.2233  23.8674
 21.2462  23.8879
 21.2693  23.9836
 21.2923  23.9939
 21.3152  23.8843
 21.3383  23.872
 21.3613  23.8681
 21.3843  23.8443
 21.4073  23.7826
 21.4303  23.8273
 21.4533  23.8775
 21.4763  23.9356
 21.4992  23.9644
 21.5223  23.9544
 21.5453  23.9899
 21.5683  23.9742
 21.5913  23.9968
 21.6142  24.0436
 21.6373  24.0235
 21.6603  24.0164
 21.6833  24.0075
 21.7063  24.0246
 21.7293  24.1135
 21.7523  24.0903
 21.7753  24.0137
 21.7982  24.0803
 21.8213  24.1283
 21.8443  24.1047
 21.8672  24.1093
 21.8903  24.0658
 21.9133  24.1061
 21.9363  24.1677
 21.9593  24.1422
 21.9823  24.1305
 22.0053  24.1539
 22.0283  24.1987
 22.0512  24.2574
 22.0743  24.2823
 22.0973  24.2669
 22.1203  24.3089
 22.1433  24.2607
 22.1663  24.3215
 22.1893  24.3801
 22.2123  24.3509
 22.2353  24.3446
 22.2583  24.4228
 22.2813  24.4401
 22.3043  24.49
 22.3273  24.5112
 22.3502  24.4392
 22.3733  24.4539
 22.3963  24.4832
 22.4193  24.4249
 22.4423  24.4912
 22.4653  24.5418
 22.4883  24.629
 22.5113  24.6295
 22.5343  24.6506
 22.5573  24.7152
 22.5803  24.777
 22.6033  24.8395
 22.6263  24.9472
 22.6493  24.9704
 22.6723  25.0235
 22.6953  25.1683
 22.7183  25.1757
 22.7413  25.2203
 22.7643  25.1731
 22.7873  25.1869
 22.8103  25.3403
 22.8333  25.4172
 22.8563  25.519
 22.8793  25.6882
 22.9022  25.7265
 22.9253  25.8151
 22.9483  25.75
 22.9713  25.8935
 22.9943  26.0791