File: test-data-xrd/xrd-map-34-ID-E/Data_0100.chi
F:\20151113_APS_34IDE\\Brian\Particle1\OCV\Data_0100.tif
2-Theta Angle (Degrees)
Intensity
       2000
 0.01725  0.0000000E+00
 0.04025  0.0000000E+00
 0.06325  0.0000000E+00
 0.08625  0.0000000E+00
 0.10925  0.0000000E+00
 0.13225  0.0000000E+00
 0.15525  0.0000000E+00
 0.17825  0.0000000E+00
 0.20125  0.0000000E+00
 0.22425  0.0000000E+00
 0.24725  0.0000000E+00
 0.27025  0.0000000E+00
 0.29325  0.0000000E+00
 0.31625  0.0000000E+00
 0.33925  0.0000000E+00
 0.36225  0.0000000E+00
 0.38525  0.0000000E+00
 0.40825  0.0000000E+00
 0.43125  0.0000000E+00
 0.45425  0.0000000E+00
 0.47725  0.0000000E+00
 0.50025  0.0000000E+00
 0.52325  0.0000000E+00
 0.54625  0.0000000E+00
 0.56925  0.0000000E+00
 0.59225  0.0000000E+00
 0.61525  0.0000000E+00
 0.63825  0.0000000E+00
 0.66125  0.0000000E+00
 0.68425  0.0000000E+00
 0.70725  0.0000000E+00
 0.73025  0.0000000E+00
 0.75325  0.0000000E+00
 0.77625  0.0000000E+00
 0.79925  0.0000000E+00
 0.82225  0.0000000E+00
 0.84525  0.0000000E+00
 0.86825  0.0000000E+00
 0.89125  0.0000000E+00
 0.91425  0.0000000E+00
 0.93725  0.0000000E+00
 0.96025  0.0000000E+00
 0.98325  0.0000000E+00
 1.00625  0.0000000E+00
 1.02925  0.0000000E+00
 1.05225  0.0000000E+00
 1.07525  0.0000000E+00
 1.09825  0.0000000E+00
 1.12125  0.0000000E+00
 1.14425  0.0000000E+00
 1.16725  0.0000000E+00
 1.19025  0.0000000E+00
 1.21325  0.0000000E+00
 1.23625  0.0000000E+00
 1.25925  0.0000000E+00
 1.28225  0.0000000E+00
 1.30525  0.0000000E+00
 1.32825  0.0000000E+00
 1.35125  0.0000000E+00
 1.37425  0.0000000E+00
 1.39725  0.0000000E+00
 1.42025  0.0000000E+00
 1.44325  0.0000000E+00
 1.46625  0.0000000E+00
 1.48925  0.0000000E+00
 1.51225  0.0000000E+00
 1.53525  0.0000000E+00
 1.55825  0.0000000E+00
 1.58125  0.0000000E+00
 1.60425  0.0000000E+00
 1.62725  0.0000000E+00
 1.65025  0.0000000E+00
 1.67325  0.0000000E+00
 1.69625  0.0000000E+00
 1.71925  0.0000000E+00
 1.74225  0.0000000E+00
 1.76525  0.0000000E+00
 1.78825  0.0000000E+00
 1.81125  0.0000000E+00
 1.83425  0.0000000E+00
 1.85725  0.0000000E+00
 1.88025  0.0000000E+00
 1.90325  0.0000000E+00
 1.92625  0.0000000E+00
 1.94925  0.0000000E+00
 1.97225  0.0000000E+00
 1.99525  0.0000000E+00
 2.01825  0.0000000E+00
 2.04125  0.0000000E+00
 2.06425  0.0000000E+00
 2.08725  0.0000000E+00
 2.11025  0.0000000E+00
 2.13325  0.0000000E+00
 2.15625  0.0000000E+00
 2.17925  0.0000000E+00
 2.20225  0.0000000E+00
 2.22525  0.0000000E+00
 2.24825  0.0000000E+00
 2.27125  0.0000000E+00
 2.29425  0.0000000E+00
 2.31725  0.0000000E+00
 2.34025  0.0000000E+00
 2.36325  0.0000000E+00
 2.38625  0.0000000E+00
 2.40925  0.0000000E+00
 2.43225  0.0000000E+00
 2.45525  0.0000000E+00
 2.47825  0.0000000E+00
 2.50125  0.0000000E+00
 2.52425  0.0000000E+00
 2.54725  0.0000000E+00
 2.57025  0.0000000E+00
 2.59325  0.0000000E+00
 2.61625  0.0000000E+00
 2.63925  0.0000000E+00
 2.66225  0.0000000E+00
 2.68525  0.0000000E+00
 2.70825  0.0000000E+00
 2.73125  0.0000000E+00
 2.75425  0.0000000E+00
 2.77725  0.0000000E+00
 2.80025  0.0000000E+00
 2.82325  31.4952
 2.84625  34.0468
 2.86925  35.4137
 2.89225  36.3997
 2.91525  36.8336
 2.93825  36.0939
 2.96125  35.6756
 2.98425  35.3067
 3.00725  35.4739
 3.03025  35.1316
 3.05325  34.9584
 3.07625  35.689
 3.09925  35.9404
 3.12225  35.5706
 3.14525  35.469
 3.16825  35.3462
 3.19125  35.2313
 3.21425  35.3948
 3.23725  35.5513
 3.26025  35.2622
 3.28325  34.8971
 3.30625  35.1797
 3.32925  35.165
 3.35225  35.0902
 3.37525  34.8621
 3.39825  34.7335
 3.42125  34.9958
 3.44425  34.8216
 3.46725  34.8831
 3.49025  34.6734
 3.51325  34.4272
 3.53625  33.9982
 3.55925  33.7462
 3.58225  33.6709
 3.60525  34.0471
 3.62825  34.1242
 3.65125  34.1939
 3.67425  34.2728
 3.69725  34.0086
 3.72025  33.7194
 3.74325  33.4145
 3.76625  33.3052
 3.78925  33.5012
 3.81225  33.1747
 3.83525  32.8687
 3.85825  32.8901
 3.88125  33.0285
 3.90425  32.7967
 3.92725  32.7145
 3.95025  32.7676
 3.97325  33.037
 3.99625  33.1087
 4.01925  33.1825
 4.04225  32.9642
 4.06525  32.8248
 4.08825  32.5253
 4.11125  32.6128
 4.13425  32.6369
 4.15725  32.7154
 4.18025  32.4005
 4.20325  32.3836
 4.22625  32.49
 4.24925  32.6679
 4.27225  32.4844
 4.29525  32.285
 4.31825  32.2178
 4.34125  32.4222
 4.36425  32.7462
 4.38725  32.837
 4.41025  32.906
 4.43325  32.97
 4.45625  33.0018
 4.47925  33.1445
 4.50225  32.9086
 4.52525  32.712
 4.54825  32.6636
 4.57125  32.5471
 4.59425  32.7636
 4.61725  33.086
 4.64025  33.2857
 4.66325  33.3366
 4.68625  33.4651
 4.70925  33.7693
 4.73225  33.4663
 4.75525  32.9383
 4.77825  32.8407
 4.80125  32.9734
 4.82425  33.2131
 4.84725  33.2336
 4.87025  33.2261
 4.89325  33.2193
 4.91625  33.1566
 4.93925  33.115
 4.96225  33.1894
 4.98525  33.313
 5.00825  33.5778
 5.03125  33.8846
 5.05425  33.7754
 5.07725  33.7038
 5.10025  33.936
 5.12325  33.8864
 5.14625  33.8916
 5.16925  33.9554
 5.19225  34.0221
 5.21525  34.1224
 5.23825  34.1169
 5.26125  34.1469
 5.28425  34.3409
 5.30725  34.6152
 5.33025  34.6706
 5.35325  34.7522
 5.37625  34.8481
 5.39925  34.8708
 5.42225  34.8557
 5.44525  35.0806
 5.46825  35.4663
 5.49125  35.4139
 5.51425  35.249
 5.53725  35.1152
 5.56025  35.1101
 5.58325  35.3234
 5.60625  35.4608
 5.62925  35.5998
 5.65225  35.6905
 5.67525  35.9254
 5.69825  36.0133
 5.72125  36.0079
 5.74425  36.014
 5.76725  35.9337
 5.79025  36.1284
 5.81325  36.2632
 5.83625  36.4382
 5.85925  36.7312
 5.88225  37.0364
 5.90525  37.7501
 5.92825  40.0109
 5.95125  45.1499
 5.97425  52.9107
 5.99725  58.6879
 6.02025  56.0586
 6.04325  48.8305
 6.06625  40.4023
 6.08925  38.3943
 6.11225  37.7708
 6.13525  37.7622
 6.15825  37.7046
 6.18125  37.7293
 6.20425  37.8809
 6.22725  38.0439
 6.25025  38.138
 6.27325  38.3104
 6.29625  38.4096
 6.31925  38.4026
 6.34225  38.4947
 6.36525  38.6233
 6.38825  38.799
 6.41125  38.8567
 6.43425  38.9019
 6.45725  38.8927
 6.48025  39.0626
 6.50325  39.3224
 6.52625  39.4774
 6.54925  39.569
 6.57225  39.6434
 6.59525  39.8201
 6.61825  40.0763
 6.64125  40.3713
 6.66425  40.5057
 6.68725  40.4426
 6.71025  40.5677
 6.73325  40.8203
 6.75625  41.1808
 6.77925  41.4932
 6.80225  41.5792
 6.82525  41.5979
 6.84825  41.7639
 6.87125  42.0773
 6.89425  42.2255
 6.91725  42.3749
 6.94025  42.4258
 6.96325  42.649
 6.98625  42.7125
 7.00925  42.9718
 7.03225  43.1503
 7.05525  43.1399
 7.07825  43.1483
 7.10125  43.208
 7.12425  43.4303
 7.14725  43.5217
 7.17025  43.7218
 7.19325  43.8674
 7.21625  43.9398
 7.23925  44.0065
 7.26225  44.0061
 7.28525  43.9722
 7.30825  44.0999
 7.33125  44.2357
 7.35425  44.3
 7.37725  44.3601
 7.40025  44.4839
 7.42325  44.6047
 7.44625  44.5591
 7.46925  44.5765
 7.49225  44.6977
 7.51525  44.61
 7.53825  44.46
 7.56125  44.6576
 7.58425  44.9196
 7.60725  44.955
 7.63025  44.8517
 7.65325  44.8258
 7.67625  44.7728
 7.69925  44.6986
 7.72225  44.7673
 7.74525  44.8401
 7.76825  44.6827
 7.79125  44.5223
 7.81425  44.5447
 7.83725  44.6901
 7.86025  44.8083
 7.88325  44.683
 7.90625  44.5226
 7.92925  44.4383
 7.95225  44.2914
 7.97525  44.1855
 7.99825  44.1219
 8.02125  43.9644
 8.04425  43.8327
 8.06725  43.5482
 8.09025  43.2404
 8.11325  43.0694
 8.13625  42.8918
 8.15925  42.6862
 8.18225  42.4603
 8.20525  42.3117
 8.22825  42.0843
 8.25125  41.6656
 8.27425  41.339
 8.29725  41.1458
 8.32025  40.9773
 8.34325  40.5836
 8.36625  40.3436
 8.38925  40.263
 8.41225  39.9538
 8.43525  39.3205
 8.45825  38.8372
 8.48125  38.5623
 8.50425  38.3931
 8.52725  38.2625
 8.55025  37.9365
 8.57325  37.4566
 8.59625  37.0334
 8.61925  36.6609
 8.64225  36.381
 8.66525  35.9754
 8.68825  35.68
 8.71125  35.3389
 8.73425  34.9297
 8.75725  34.5087
 8.78025  34.2211
 8.80325  33.8918
 8.82625  33.5463
 8.84925  33.1748
 8.87225  32.8197
 8.89525  32.6302
 8.91825  32.2914
 8.94125  31.892
 8.96425  31.5516
 8.98725  31.2551
 9.01025  30.9615
 9.03325  30.7101
 9.05625  30.4659
 9.07925  30.3402
 9.10225  30.0617
 9.12525  29.857
 9.14825  29.5547
 9.17125  29.203
 9.19425  28.8811
 9.21725  28.6125
 9.24025  28.4242
 9.26325  28.3728
 9.28625  28.3097
 9.30925  28.0217
 9.33225  27.773
 9.35525  27.6984
 9.37825  27.6345
 9.40125  27.4856
 9.42425  27.2828
 9.44725  27.0677
 9.47025  26.8698
 9.49325  26.7951
 9.51625  26.75
 9.53925  26.6055
 9.56225  26.3666
 9.58525  26.1159
 9.60825  25.9678
 9.63125  25.8797
 9.65425  25.7267
 9.67725  25.5327
 9.70025  25.3864
 9.72325  25.4338
 9.74625  25.419
 9.76925  25.294
 9.79225  25.1458
 9.81525  25.1247
 9.83825  25.0403
 9.86125  24.9833
 9.88425  24.8417
 9.90725  24.8729
 9.93025  24.8991
 9.95325  24.7663
 9.97625  24.6675
 9.99925  24.589
 10.0222  24.503
 10.0453  24.342
 10.0683  24.2007
 10.0913  24.1614
 10.1143  24.133
 10.1373  24.0181
 10.1603  24.0653
 10.1832  24.0783
 10.2063  23.9931
 10.2293  23.9325
 10.2523  23.8123
 10.2752  23.7517
 10.2982  23.7445
 10.3213  23.6005
 10.3443  23.5379
 10.3673  23.5551
 10.3902  23.7113
 10.4133  23.7209
 10.4363  23.6079
 10.4593  23.5787
 10.4823  23.645
 10.5053  23.6166
 10.5283  23.5543
 10.5512  23.5116
 10.5742  23.4108
 10.5973  23.2462
 10.6203  23.2734
 10.6433  23.2873
 10.6662  23.2855
 10.6893  23.1802
 10.7123  23.1998
 10.7353  23.1794
 10.7583  23.0745
 10.7813  23.0481
 10.8043  23.0213
 10.8272  22.9584
 10.8503  22.9954
 10.8733  22.9991
 10.8963  22.8653
 10.9192  22.6645
 10.9422  22.5824
 10.9653  22.6716
 10.9883  22.7931
 11.0113  22.7836
 11.0343  22.8229
 11.0573  22.7605
 11.0803  22.6884
 11.1033  22.6826
 11.1263  22.6878
 11.1493  22.6418
 11.1723  22.7003
 11.1953  22.6903
 11.2182  22.653
 11.2413  22.6771
 11.2643  22.7454
 11.2873  22.6389
 11.3102  22.5692
 11.3333  22.5645
 11.3563  22.5972
 11.3793  22.7419
 11.4023  22.8371
 11.4253  22.9073
 11.4483  23.0914
 11.4713  23.1539
 11.4942  23.1621
 11.5173  23.4407
 11.5403  24.4573
 11.5633  26.6775
 11.5862  29.4485
 11.6093  30.8539
 11.6323  28.7407
 11.6553  25.5108
 11.6783  23.8357
 11.7013  23.2894
 11.7243  23.1196
 11.7473  23.0325
 11.7703  22.904
 11.7933  22.8926
 11.8163  22.918
 11.8393  22.8706
 11.8622  22.8245
 11.8853  22.896
 11.9083  23.0528
 11.9313  23.3052
 11.9543  24.1522
 11.9773  25.8905
 12.0003  27.8456
 12.0233  27.5169
 12.0463  26.2667
 12.0693  26.6071
 12.0923  27.7579
 12.1153  27.5727
 12.1382  26.0881
 12.1613  24.4083
 12.1843  23.4929
 12.2073  23.0657
 12.2302  22.8579
 12.2533  22.8073
 12.2763  22.9193
 12.2993  23.0088
 12.3223  22.8708
 12.3453  22.814
 12.3683  22.7569
 12.3913  22.7685
 12.4142  22.7113
 12.4373  22.7774
 12.4603  22.8345
 12.4833  22.8873
 12.5062  22.8199
 12.5292  22.7417
 12.5523  22.7584
 12.5753  22.8144
 12.5983  22.8912
 12.6212  22.9449
 12.6443  22.865
 12.6673  22.8547
 12.6903  22.8756
 12.7133  23.0146
 12.7363  23.1785
 12.7593  23.2234
 12.7822  23.3011
 12.8052  23.3899
 12.8283  23.5188
 12.8513  23.6625
 12.8742  23.6764
 12.8972  23.6583
 12.9203  23.761
 12.9433  23.9229
 12.9663  23.9626
 12.9893  24.0417
 13.0123  24.1254
 13.0353  24.3533
 13.0582  24.4957
 13.0813  24.6585
 13.1043  24.96
 13.1273  25.0896
 13.1502  25.293
 13.1732  25.5086
 13.1963  25.7146
 13.2193  26.0015
 13.2423  26.4463
 13.2652  26.7629
 13.2883  27.047
 13.3113  27.3301
 13.3343  27.6676
 13.3573  28.146
 13.3803  28.4049
 13.4033  28.6068
 13.4262  28.8315
 13.4492  29.015
 13.4723  29.1878
 13.4953  29.3509
 13.5183  29.4253
 13.5412  29.5176
 13.5643  29.662
 13.5873  29.8079
 13.6103  29.8485
 13.6333  29.9125
 13.6563  29.9415
 13.6793  29.9928
 13.7022  29.9065
 13.7253  29.8134
 13.7483  29.7644
 13.7713  29.6333
 13.7942  29.4592
 13.8172  29.3762
 13.8403  29.5059
 13.8633  29.7869
 13.8863  30.2023
 13.9093  31.153
 13.9323  31.9839
 13.9553  32.1607
 13.9783  31.5915
 14.0013  30.2209
 14.0243  28.9731
 14.0473  28.2029
 14.0703  27.8737
 14.0932  27.6416
 14.1163  27.5179
 14.1393  27.4756
 14.1623  27.4044
 14.1852  27.2396
 14.2083  27.08
 14.2313  26.9215
 14.2543  26.8037
 14.2773  26.6613
 14.3003  26.579
 14.3233  26.5169
 14.3463  26.4592
 14.3692  26.443
 14.3923  26.3649
 14.4153  26.236
 14.4383  26.0876
 14.4612  25.9229
 14.4843  25.8041
 14.5073  25.815
 14.5303  25.7721
 14.5533  25.75
 14.5763  25.6821
 14.5993  25.5846
 14.6223  25.6023
 14.6453  25.6247
 14.6683  25.3961
 14.6913  25.2864
 14.7143  25.243
 14.7372  25.2631
 14.7603  25.2937
 14.7833  25.2306
 14.8063  25.1857
 14.8293  25.0924
 14.8523  25.0872
 14.8753  25.0826
 14.8983  25.1788
 14.9213  25.1707
 14.9443  25.0251
 14.9673  24.9584
 14.9903  24.9555
 15.0132  25.0126
 15.0363  25.0805
 15.0593  25.0993
 15.0823  25.0813
 15.1052  25.2084
 15.1283  25.6247
 15.1513  26.6433
 15.1743  27.8599
 15.1973  28.0751
 15.2203  27.2079
 15.2433  25.9949
 15.2663  25.4587
 15.2892  25.193
 15.3123  25.0149
 15.3353  24.8803
 15.3583  24.8121
 15.3812  24.7859
 15.4043  24.7818
 15.4273  24.7501
 15.4503  24.6947
 15.4733  24.6259
 15.4963  24.7247
 15.5193  24.8316
 15.5423  24.8193
 15.5653  24.7662
 15.5883  24.8031
 15.6113  24.825
 15.6343  24.6934
 15.6572  24.7449
 15.6803  24.7943
 15.7033  24.7211
 15.7263  24.7414
 15.7492  24.7379
 15.7723  24.7517
 15.7953  24.7519
 15.8183  24.769
 15.8413  24.6933
 15.8643  24.7122
 15.8873  24.7494
 15.9103  24.8297
 15.9332  24.841
 15.9563  24.7436
 15.9793  24.7878
 16.0023  24.8227
 16.0253  24.7614
 16.0482  24.7971
 16.0713  24.8614
 16.0943  24.9224
 16.1172  25.0561
 16.1403  25.1893
 16.1633  25.3036
 16.1863  25.6296
 16.2093  26.5814
 16.2323  28.0082
 16.2553  28.8656
 16.2783  27.7615
 16.3012  25.9965
 16.3243  25.2427
 16.3472  25.1141
 16.3703  25.0079
 16.3933  24.9808
 16.4163  24.9972
 16.4393  24.8502
 16.4623  24.8001
 16.4853  24.7836
 16.5083  24.8014
 16.5312  24.7185
 16.5543  24.7417
 16.5773  24.816
 16.6002  24.8055
 16.6233  24.7671
 16.6463  24.6971
 16.6693  24.6813
 16.6923  24.6215
 16.7153  24.6544
 16.7383  24.6914
 16.7613  24.6688
 16.7843  24.5476
 16.8073  24.5125
 16.8303  24.5137
 16.8533  24.5609
 16.8763  24.6057
 16.8992  24.5706
 16.9223  24.501
 16.9453  24.4929
 16.9683  24.4727
 16.9913  24.494
 17.0143  24.4736
 17.0373  24.3679
 17.0603  24.3087
 17.0832  24.3266
 17.1063  24.3389
 17.1293  24.2582
 17.1522  24.2537
 17.1753  24.4471
 17.1983  24.689
 17.2213  24.6676
 17.2443  24.349
 17.2673  24.2551
 17.2903  24.2516
 17.3133  24.1754
 17.3362  24.1587
 17.3593  24.1594
 17.3823  24.133
 17.4053  24.1532
 17.4283  24.1246
 17.4513  24.0637
 17.4743  23.9976
 17.4973  24.0399
 17.5203  24.0418
 17.5433  23.9981
 17.5663  24.0281
 17.5893  23.9278
 17.6123  23.9463
 17.6352  24.044
 17.6583  23.961
 17.6813  23.9742
 17.7042  23.9671
 17.7273  23.8945
 17.7503  23.8783
 17.7733  23.8877
 17.7963  23.9241
 17.8193  23.9083
 17.8423  23.9617
 17.8653  23.9798
 17.8882  23.9256
 17.9113  23.9316
 17.9343  23.9932
 17.9573  23.9634
 17.9803  24.0609
 18.0033  24.2279
 18.0263  24.3302
 18.0493  24.4741
 18.0723  24.7461
 18.0953  25.3283
 18.1183  25.9148
 18.1413  26.1765
 18.1643  25.514
 18.1872  24.5087
 18.2103  24.0458
 18.2333  23.8882
 18.2563  23.8134
 18.2793  23.8412
 18.3023  23.836
 18.3253  23.88
 18.3483  23.7937
 18.3712  23.7986
 18.3943  23.8082
 18.4173  23.77
 18.4402  23.7769
 18.4633  23.7525
 18.4863  23.7274
 18.5093  23.765
 18.5323  23.695
 18.5553  23.6559
 18.5783  23.7043
 18.6013  23.7181
 18.6242  23.7127
 18.6473  23.6272
 18.6703  23.5914
 18.6933  23.658
 18.7163  23.6619
 18.7392  23.6507
 18.7623  23.6245
 18.7853  23.6519
 18.8083  23.6419
 18.8313  23.6123
 18.8543  23.5787
 18.8773  23.5559
 18.9003  23.6071
 18.9232  23.7363
 18.9463  23.8529
 18.9693  23.7678
 18.9922  23.6167
 19.0153  23.5827
 19.0383  23.6695
 19.0613  23.7091
 19.0843  23.6944
 19.1073  23.6087
 19.1303  23.6304
 19.1533  23.7102
 19.1762  23.7256
 19.1993  23.6703
 19.2223  23.6895
 19.2453  23.7386
 19.2683  23.7726
 19.2913  23.695
 19.3143  23.7175
 19.3373  23.7339
 19.3603  23.713
 19.3833  23.69
 19.4062  23.7923
 19.4293  23.8223
 19.4523  23.7293
 19.4752  23.8306
 19.4983  23.8948
 19.5213  23.848
 19.5443  23.8789
 19.5673  23.8669
 19.5903  23.921
 19.6133  24.0402
 19.6363  24.2327
 19.6593  24.4408
 19.6823  24.7564
 19.7053  25.486
 19.7283  26.4077
 19.7513  26.7074
 19.7742  26.4902
 19.7973  26.1238
 19.8203  27.6765
 19.8433  31.084
 19.8663  32.4603
 19.8893  29.9919
 19.9123  26.6728
 19.9353  25.0421
 19.9582  24.4407
 19.9813  24.2248
 20.0043  24.1359
 20.0272  23.9869
 20.0503  23.9851
 20.0733  23.9745
 20.0963  23.9594
 20.1193  23.9141
 20.1423  23.8827
 20.1653  23.8719
 20.1883  23.9481
 20.2112  24.0083
 20.2343  23.9769
 20.2573  23.8649
 20.2803  23.8625
 20.3033  23.8458
 20.3263  23.8716
 20.3493  23.9769
 20.3723  23.9655
 20.3953  23.8336
 20.4183  23.8831
 20.4413  23.9251
 20.4643  23.8427
 20.4873  23.8159
 20.5102  23.7962
 20.5333  23.8451
 20.5563  23.9281
 20.5792  23.9467
 20.6023  24.0532
 20.6253  24.1247
 20.6483  24.2197
 20.6713  24.3686
 20.6943  24.8917
 20.7173  25.9975
 20.7403  27.0618
 20.7632  27.5568
 20.7863  26.8855
 20.8093  25.7023
 20.8323  24.8211
 20.8553  24.394
 20.8783  24.2206
 20.9013  24.1942
 20.9243  24.1979
 20.9473  24.168
 20.9703  24.0522
 20.9933  24.0048
 21.0163  24.0362
 21.0393  24.0247
 21.0622  23.9822
 21.0853  24.0588
 21.1083  23.977
 21.1313  23.9607
 21.1543  23.8962
 21.1773  23.9709
 21.2003  23.9663
 21.2233  23.9768
 21.2462  23.9783
 21.2693  23.9246
 21.2923  23.9885
 21.3152  24.0125
 21.3383  23.9694
 21.3613  24.0626
 21.3843  24.0643
 21.4073  24.0082
 21.4303  24.0096
 21.4533  23.9679
 21.4763  24.0214
 21.4992  24.0813
 21.5223  24.104
 21.5453  24.0968
 21.5683  24.0937
 21.5913  24.1954
 21.6142  24.2916
 21.6373  24.2086
 21.6603  24.1977
 21.6833  24.2184
 21.7063  24.1982
 21.7293  24.2156
 21.7523  24.1414
 21.7753  24.1463
 21.7982  24.2048
 21.8213  24.2511
 21.8443  24.2279
 21.8672  24.2837
 21.8903  24.3072
 21.9133  24.3821
 21.9363  24.3215
 21.9593  24.2854
 21.9823  24.3527
 22.0053  24.2597
 22.0283  24.2636
 22.0512  24.3165
 22.0743  24.3497
 22.0973  24.3886
 22.1203  24.4775
 22.1433  24.46
 22.1663  24.3577
 22.1893  24.3847
 22.2123  24.3763
 22.2353  24.3777
 22.2583  24.4128
 22.2813  24.4459
 22.3043  24.5532
 22.3273  24.5722
 22.3502  24.6303
 22.3733  24.6592
 22.3963  24.587
 22.4193  24.5706
 22.4423  24.7263
 22.4653  24.7578
 22.4883  24.7024
 22.5113  24.7242
 22.5343  24.8332
 22.5573  24.8825
 22.5803  24.8698
 22.6033  24.8756
 22.6263  25.1005
 22.6493  25.2136
 22.6723  25.2861
 22.6953  25.3249
 22.7183  25.2539
 22.7413  25.2902
 22.7643  25.3212
 22.7873  25.3225
 22.8103  25.4333
 22.8333  25.5818
 22.8563  25.7262
 22.8793  25.8255
 22.9022  25.8482
 22.9253  26.0075
 22.9483  26.1183
 22.9713  26.3131
 22.9943  26.4996