File: test-data-xrd/xrd-map-34-ID-E/Data_0050.chi
F:\20151113_APS_34IDE\\Brian\Particle1\OCV\Data_0050.tif
2-Theta Angle (Degrees)
Intensity
       2000
 0.01725  0.0000000E+00
 0.04025  0.0000000E+00
 0.06325  0.0000000E+00
 0.08625  0.0000000E+00
 0.10925  0.0000000E+00
 0.13225  0.0000000E+00
 0.15525  0.0000000E+00
 0.17825  0.0000000E+00
 0.20125  0.0000000E+00
 0.22425  0.0000000E+00
 0.24725  0.0000000E+00
 0.27025  0.0000000E+00
 0.29325  0.0000000E+00
 0.31625  0.0000000E+00
 0.33925  0.0000000E+00
 0.36225  0.0000000E+00
 0.38525  0.0000000E+00
 0.40825  0.0000000E+00
 0.43125  0.0000000E+00
 0.45425  0.0000000E+00
 0.47725  0.0000000E+00
 0.50025  0.0000000E+00
 0.52325  0.0000000E+00
 0.54625  0.0000000E+00
 0.56925  0.0000000E+00
 0.59225  0.0000000E+00
 0.61525  0.0000000E+00
 0.63825  0.0000000E+00
 0.66125  0.0000000E+00
 0.68425  0.0000000E+00
 0.70725  0.0000000E+00
 0.73025  0.0000000E+00
 0.75325  0.0000000E+00
 0.77625  0.0000000E+00
 0.79925  0.0000000E+00
 0.82225  0.0000000E+00
 0.84525  0.0000000E+00
 0.86825  0.0000000E+00
 0.89125  0.0000000E+00
 0.91425  0.0000000E+00
 0.93725  0.0000000E+00
 0.96025  0.0000000E+00
 0.98325  0.0000000E+00
 1.00625  0.0000000E+00
 1.02925  0.0000000E+00
 1.05225  0.0000000E+00
 1.07525  0.0000000E+00
 1.09825  0.0000000E+00
 1.12125  0.0000000E+00
 1.14425  0.0000000E+00
 1.16725  0.0000000E+00
 1.19025  0.0000000E+00
 1.21325  0.0000000E+00
 1.23625  0.0000000E+00
 1.25925  0.0000000E+00
 1.28225  0.0000000E+00
 1.30525  0.0000000E+00
 1.32825  0.0000000E+00
 1.35125  0.0000000E+00
 1.37425  0.0000000E+00
 1.39725  0.0000000E+00
 1.42025  0.0000000E+00
 1.44325  0.0000000E+00
 1.46625  0.0000000E+00
 1.48925  0.0000000E+00
 1.51225  0.0000000E+00
 1.53525  0.0000000E+00
 1.55825  0.0000000E+00
 1.58125  0.0000000E+00
 1.60425  0.0000000E+00
 1.62725  0.0000000E+00
 1.65025  0.0000000E+00
 1.67325  0.0000000E+00
 1.69625  0.0000000E+00
 1.71925  0.0000000E+00
 1.74225  0.0000000E+00
 1.76525  0.0000000E+00
 1.78825  0.0000000E+00
 1.81125  0.0000000E+00
 1.83425  0.0000000E+00
 1.85725  0.0000000E+00
 1.88025  0.0000000E+00
 1.90325  0.0000000E+00
 1.92625  0.0000000E+00
 1.94925  0.0000000E+00
 1.97225  0.0000000E+00
 1.99525  0.0000000E+00
 2.01825  0.0000000E+00
 2.04125  0.0000000E+00
 2.06425  0.0000000E+00
 2.08725  0.0000000E+00
 2.11025  0.0000000E+00
 2.13325  0.0000000E+00
 2.15625  0.0000000E+00
 2.17925  0.0000000E+00
 2.20225  0.0000000E+00
 2.22525  0.0000000E+00
 2.24825  0.0000000E+00
 2.27125  0.0000000E+00
 2.29425  0.0000000E+00
 2.31725  0.0000000E+00
 2.34025  0.0000000E+00
 2.36325  0.0000000E+00
 2.38625  0.0000000E+00
 2.40925  0.0000000E+00
 2.43225  0.0000000E+00
 2.45525  0.0000000E+00
 2.47825  0.0000000E+00
 2.50125  0.0000000E+00
 2.52425  0.0000000E+00
 2.54725  0.0000000E+00
 2.57025  0.0000000E+00
 2.59325  0.0000000E+00
 2.61625  0.0000000E+00
 2.63925  0.0000000E+00
 2.66225  0.0000000E+00
 2.68525  0.0000000E+00
 2.70825  0.0000000E+00
 2.73125  0.0000000E+00
 2.75425  0.0000000E+00
 2.77725  0.0000000E+00
 2.80025  0.0000000E+00
 2.82325  35.7243
 2.84625  32.9696
 2.86925  33.2547
 2.89225  34.8313
 2.91525  36.1892
 2.93825  36.7366
 2.96125  36.9625
 2.98425  36.285
 3.00725  36.5805
 3.03025  36.1526
 3.05325  35.687
 3.07625  35.8515
 3.09925  36.0334
 3.12225  36.581
 3.14525  36.5358
 3.16825  35.9548
 3.19125  35.0888
 3.21425  35.1041
 3.23725  35.46
 3.26025  35.6307
 3.28325  35.5461
 3.30625  35.6384
 3.32925  35.5016
 3.35225  34.814
 3.37525  34.2241
 3.39825  33.9146
 3.42125  33.9557
 3.44425  34.1244
 3.46725  34.4179
 3.49025  34.2183
 3.51325  33.8014
 3.53625  33.9304
 3.55925  33.8603
 3.58225  33.3598
 3.60525  32.8735
 3.62825  32.619
 3.65125  32.5204
 3.67425  32.8469
 3.69725  33.1227
 3.72025  32.9655
 3.74325  32.9735
 3.76625  32.6717
 3.78925  32.4502
 3.81225  32.7451
 3.83525  33.3152
 3.85825  33.3452
 3.88125  33.3882
 3.90425  32.9192
 3.92725  32.9062
 3.95025  32.3815
 3.97325  32.3821
 3.99625  32.8659
 4.01925  33.0974
 4.04225  32.8893
 4.06525  32.8185
 4.08825  32.7883
 4.11125  32.8112
 4.13425  32.5302
 4.15725  32.507
 4.18025  32.0959
 4.20325  32.0228
 4.22625  31.9405
 4.24925  32.0793
 4.27225  32.4081
 4.29525  32.6213
 4.31825  32.3113
 4.34125  31.9837
 4.36425  32.2711
 4.38725  32.5091
 4.41025  32.418
 4.43325  32.5154
 4.45625  32.6249
 4.47925  32.6203
 4.50225  32.5364
 4.52525  32.3792
 4.54825  32.3933
 4.57125  32.5383
 4.59425  32.862
 4.61725  32.8578
 4.64025  32.6105
 4.66325  32.6702
 4.68625  32.8576
 4.70925  33.0356
 4.73225  33.0483
 4.75525  32.8168
 4.77825  32.6903
 4.80125  32.6257
 4.82425  32.6424
 4.84725  32.7616
 4.87025  32.8944
 4.89325  32.892
 4.91625  32.9695
 4.93925  32.9465
 4.96225  33.0166
 4.98525  33.0848
 5.00825  33.2334
 5.03125  33.2607
 5.05425  33.2733
 5.07725  33.3948
 5.10025  33.6372
 5.12325  33.6466
 5.14625  33.6649
 5.16925  33.7442
 5.19225  33.7222
 5.21525  33.7816
 5.23825  33.8564
 5.26125  33.9341
 5.28425  34.0414
 5.30725  34.2522
 5.33025  34.3707
 5.35325  34.2974
 5.37625  34.1185
 5.39925  34.395
 5.42225  34.4299
 5.44525  34.673
 5.46825  34.9923
 5.49125  35.0645
 5.51425  35.2368
 5.53725  35.2212
 5.56025  35.2107
 5.58325  35.3333
 5.60625  35.5254
 5.62925  35.4612
 5.65225  35.4946
 5.67525  35.7462
 5.69825  35.7892
 5.72125  35.7086
 5.74425  35.8736
 5.76725  35.9727
 5.79025  35.985
 5.81325  35.9839
 5.83625  36.1519
 5.85925  36.5619
 5.88225  37.3153
 5.90525  39.3736
 5.92825  44.8478
 5.95125  54.1826
 5.97425  60.0454
 5.99725  56.4737
 6.02025  47.9665
 6.04325  41.3391
 6.06625  38.4948
 6.08925  37.7732
 6.11225  37.6131
 6.13525  37.3143
 6.15825  37.1428
 6.18125  37.0816
 6.20425  36.9505
 6.22725  37.0862
 6.25025  37.36
 6.27325  37.7193
 6.29625  37.9214
 6.31925  37.9391
 6.34225  38.2491
 6.36525  38.4075
 6.38825  38.3382
 6.41125  38.3409
 6.43425  38.5484
 6.45725  38.7976
 6.48025  39.0309
 6.50325  39.2778
 6.52625  39.3527
 6.54925  39.3464
 6.57225  39.5695
 6.59525  39.6788
 6.61825  39.7555
 6.64125  39.9042
 6.66425  40.1085
 6.68725  40.1705
 6.71025  40.2433
 6.73325  40.3693
 6.75625  40.5465
 6.77925  40.7559
 6.80225  40.9532
 6.82525  41.2859
 6.84825  41.4846
 6.87125  41.5136
 6.89425  41.5484
 6.91725  41.7043
 6.94025  41.8864
 6.96325  42.1218
 6.98625  42.2737
 7.00925  42.3537
 7.03225  42.4841
 7.05525  42.5892
 7.07825  42.6104
 7.10125  42.8019
 7.12425  42.9775
 7.14725  43.0777
 7.17025  43.3651
 7.19325  43.3842
 7.21625  43.5495
 7.23925  43.6048
 7.26225  43.6445
 7.28525  43.673
 7.30825  43.6062
 7.33125  43.6813
 7.35425  43.7966
 7.37725  43.8905
 7.40025  44.0014
 7.42325  44.1711
 7.44625  44.2667
 7.46925  44.2096
 7.49225  44.1986
 7.51525  44.2057
 7.53825  44.2259
 7.56125  44.3201
 7.58425  44.5233
 7.60725  44.3382
 7.63025  44.116
 7.65325  44.065
 7.67625  44.1066
 7.69925  44.2062
 7.72225  44.3854
 7.74525  44.419
 7.76825  44.4103
 7.79125  44.3705
 7.81425  44.2351
 7.83725  44.0869
 7.86025  43.9922
 7.88325  43.9238
 7.90625  43.9414
 7.92925  44.0115
 7.95225  43.9682
 7.97525  43.7304
 7.99825  43.5914
 8.02125  43.4091
 8.04425  43.1717
 8.06725  43.0046
 8.09025  42.8446
 8.11325  42.9481
 8.13625  42.831
 8.15925  42.5644
 8.18225  42.3354
 8.20525  42.1354
 8.22825  41.6868
 8.25125  41.3848
 8.27425  41.2729
 8.29725  41.0359
 8.32025  40.7957
 8.34325  40.3872
 8.36625  40.0315
 8.38925  39.6345
 8.41225  39.3492
 8.43525  38.9805
 8.45825  38.5584
 8.48125  38.1942
 8.50425  37.9171
 8.52725  37.745
 8.55025  37.3661
 8.57325  36.9625
 8.59625  36.5769
 8.61925  36.2476
 8.64225  35.9993
 8.66525  35.532
 8.68825  35.274
 8.71125  34.9379
 8.73425  34.5058
 8.75725  34.2188
 8.78025  33.9171
 8.80325  33.5453
 8.82625  33.1748
 8.84925  32.8925
 8.87225  32.6151
 8.89525  32.3178
 8.91825  32.0347
 8.94125  31.7561
 8.96425  31.4956
 8.98725  31.1803
 9.01025  30.6569
 9.03325  30.3267
 9.05625  30.1658
 9.07925  29.9268
 9.10225  29.741
 9.12525  29.5286
 9.14825  29.2983
 9.17125  28.9888
 9.19425  28.7704
 9.21725  28.5704
 9.24025  28.3072
 9.26325  28.1493
 9.28625  28.0007
 9.30925  27.7856
 9.33225  27.5993
 9.35525  27.4251
 9.37825  27.2548
 9.40125  27.081
 9.42425  26.8804
 9.44725  26.7821
 9.47025  26.7069
 9.49325  26.5976
 9.51625  26.4607
 9.53925  26.286
 9.56225  26.168
 9.58525  26.0657
 9.60825  26.0218
 9.63125  25.8971
 9.65425  25.7431
 9.67725  25.512
 9.70025  25.4208
 9.72325  25.3546
 9.74625  25.3004
 9.76925  25.2302
 9.79225  25.1792
 9.81525  25.04
 9.83825  24.8649
 9.86125  24.7788
 9.88425  24.743
 9.90725  24.7064
 9.93025  24.7171
 9.95325  24.5864
 9.97625  24.5991
 9.99925  24.4068
 10.0222  24.2361
 10.0453  24.2479
 10.0683  24.2262
 10.0913  24.0402
 10.1143  23.9722
 10.1373  24.0327
 10.1603  23.9376
 10.1832  23.9336
 10.2063  23.9048
 10.2293  23.9137
 10.2523  23.8497
 10.2752  23.7756
 10.2982  23.7412
 10.3213  23.6912
 10.3443  23.6981
 10.3673  23.6935
 10.3902  23.5959
 10.4133  23.6035
 10.4363  23.5667
 10.4593  23.5006
 10.4823  23.429
 10.5053  23.3458
 10.5283  23.3332
 10.5512  23.3364
 10.5742  23.3062
 10.5973  23.2355
 10.6203  23.2506
 10.6433  23.2513
 10.6662  23.1279
 10.6893  22.9639
 10.7123  22.9815
 10.7353  22.975
 10.7583  22.8816
 10.7813  22.9138
 10.8043  22.9686
 10.8272  23.0086
 10.8503  22.9124
 10.8733  22.9201
 10.8963  22.8193
 10.9192  22.8267
 10.9422  22.8815
 10.9653  22.7881
 10.9883  22.6565
 11.0113  22.6303
 11.0343  22.6927
 11.0573  22.6561
 11.0803  22.6126
 11.1033  22.5447
 11.1263  22.5577
 11.1493  22.602
 11.1723  22.6546
 11.1953  22.6835
 11.2182  22.6244
 11.2413  22.4561
 11.2643  22.3549
 11.2873  22.3938
 11.3102  22.4717
 11.3333  22.5168
 11.3563  22.6162
 11.3793  22.8552
 11.4023  23.1383
 11.4253  23.1535
 11.4483  22.9855
 11.4713  22.9943
 11.4942  23.0438
 11.5173  23.3208
 11.5403  24.226
 11.5633  26.0439
 11.5862  28.3146
 11.6093  28.9031
 11.6323  27.1798
 11.6553  24.8067
 11.6783  23.5545
 11.7013  23.0317
 11.7243  22.7951
 11.7473  22.7817
 11.7703  22.7484
 11.7933  22.7159
 11.8163  22.8048
 11.8393  22.8517
 11.8622  22.8472
 11.8853  22.935
 11.9083  23.2425
 11.9313  24.0753
 11.9543  26.0701
 11.9773  27.3744
 12.0003  27.8263
 12.0233  26.4389
 12.0463  25.8775
 12.0693  26.225
 12.0923  27.9601
 12.1153  29.0403
 12.1382  27.9997
 12.1613  25.6926
 12.1843  23.8365
 12.2073  23.1835
 12.2302  23.0329
 12.2533  22.9329
 12.2763  22.828
 12.2993  22.8006
 12.3223  22.7926
 12.3453  22.786
 12.3683  22.7314
 12.3913  22.6554
 12.4142  22.6358
 12.4373  22.6642
 12.4603  22.7679
 12.4833  22.8171
 12.5062  22.8703
 12.5292  22.7789
 12.5523  22.8179
 12.5753  22.902
 12.5983  22.9762
 12.6212  23.0195
 12.6443  23.015
 12.6673  22.9699
 12.6903  22.9373
 12.7133  23.0269
 12.7363  23.1243
 12.7593  23.2105
 12.7822  23.3021
 12.8052  23.2787
 12.8283  23.4066
 12.8513  23.5177
 12.8742  23.6911
 12.8972  23.7278
 12.9203  23.7967
 12.9433  23.9163
 12.9663  24.016
 12.9893  24.0893
 13.0123  24.118
 13.0353  24.2762
 13.0582  24.5339
 13.0813  24.7737
 13.1043  24.9999
 13.1273  25.2181
 13.1502  25.3665
 13.1732  25.513
 13.1963  25.7368
 13.2193  26.1504
 13.2423  26.5088
 13.2652  26.8437
 13.2883  27.1173
 13.3113  27.2015
 13.3343  27.4496
 13.3573  27.8225
 13.3803  28.0283
 13.4033  28.2287
 13.4262  28.4656
 13.4492  28.7276
 13.4723  28.9294
 13.4953  29.1737
 13.5183  29.5161
 13.5412  29.7493
 13.5643  29.8917
 13.5873  29.9317
 13.6103  30.0141
 13.6333  30.0413
 13.6563  30.0044
 13.6793  29.9948
 13.7022  29.886
 13.7253  29.8506
 13.7483  29.8217
 13.7713  29.7999
 13.7942  29.8898
 13.8172  30.1205
 13.8403  30.3044
 13.8633  30.8019
 13.8863  32.6216
 13.9093  37.7862
 13.9323  46.5056
 13.9553  54.096
 13.9783  53.7075
 14.0013  43.9292
 14.0243  34.458
 14.0473  30.2447
 14.0703  28.9265
 14.0932  28.3832
 14.1163  27.974
 14.1393  27.5935
 14.1623  27.2749
 14.1852  27.0718
 14.2083  26.9929
 14.2313  26.8995
 14.2543  26.7448
 14.2773  26.5944
 14.3003  26.534
 14.3233  26.46
 14.3463  26.4287
 14.3692  26.3871
 14.3923  26.2168
 14.4153  26.0393
 14.4383  25.8922
 14.4612  25.7978
 14.4843  25.7805
 14.5073  25.8458
 14.5303  25.7696
 14.5533  25.7795
 14.5763  25.7663
 14.5993  25.7838
 14.6223  25.7392
 14.6453  25.5997
 14.6683  25.4386
 14.6913  25.3462
 14.7143  25.309
 14.7372  25.24
 14.7603  25.1915
 14.7833  25.1598
 14.8063  25.2471
 14.8293  25.2634
 14.8523  25.2671
 14.8753  25.0688
 14.8983  25.024
 14.9213  25.1499
 14.9443  25.1479
 14.9673  25.0175
 14.9903  24.9664
 15.0132  25.0242
 15.0363  25.1161
 15.0593  25.0311
 15.0823  24.9985
 15.1052  25.1407
 15.1283  25.4591
 15.1513  25.9927
 15.1743  26.7777
 15.1973  27.1307
 15.2203  26.8192
 15.2433  25.8934
 15.2663  25.2174
 15.2892  24.9816
 15.3123  24.9033
 15.3353  24.87
 15.3583  24.8198
 15.3812  24.7612
 15.4043  24.7403
 15.4273  24.7416
 15.4503  24.7744
 15.4733  24.7596
 15.4963  24.8361
 15.5193  24.836
 15.5423  24.6886
 15.5653  24.6192
 15.5883  24.6488
 15.6113  24.6142
 15.6343  24.6502
 15.6572  24.6282
 15.6803  24.6469
 15.7033  24.7338
 15.7263  24.8298
 15.7492  24.7767
 15.7723  24.7014
 15.7953  24.6944
 15.8183  24.7941
 15.8413  24.7706
 15.8643  24.6424
 15.8873  24.7018
 15.9103  24.7833
 15.9332  24.7883
 15.9563  24.7796
 15.9793  24.7893
 16.0023  24.8852
 16.0253  24.8772
 16.0482  24.8075
 16.0713  24.7516
 16.0943  24.8356
 16.1172  24.9895
 16.1403  25.0212
 16.1633  25.0566
 16.1863  25.0728
 16.2093  25.2395
 16.2323  25.6614
 16.2553  26.0654
 16.2783  26.0697
 16.3012  25.455
 16.3243  25.0677
 16.3472  24.9226
 16.3703  24.8268
 16.3933  24.7861
 16.4163  24.9221
 16.4393  24.8899
 16.4623  24.9005
 16.4853  24.9251
 16.5083  24.8503
 16.5312  24.774
 16.5543  24.7147
 16.5773  24.677
 16.6002  24.7209
 16.6233  24.7831
 16.6463  24.7588
 16.6693  24.7415
 16.6923  24.6712
 16.7153  24.658
 16.7383  24.6518
 16.7613  24.6207
 16.7843  24.5994
 16.8073  24.6423
 16.8303  24.643
 16.8533  24.623
 16.8763  24.6555
 16.8992  24.5864
 16.9223  24.578
 16.9453  24.5633
 16.9683  24.5436
 16.9913  24.4878
 17.0143  24.3956
 17.0373  24.3944
 17.0603  24.3827
 17.0832  24.4892
 17.1063  24.5168
 17.1293  24.584
 17.1522  24.5515
 17.1753  24.4509
 17.1983  24.4731
 17.2213  24.4219
 17.2443  24.2748
 17.2673  24.2046
 17.2903  24.1105
 17.3133  24.0901
 17.3362  24.151
 17.3593  24.1974
 17.3823  24.1801
 17.4053  24.1523
 17.4283  24.1454
 17.4513  24.125
 17.4743  24.1448
 17.4973  24.183
 17.5203  24.085
 17.5433  24.0906
 17.5663  24.0378
 17.5893  23.9023
 17.6123  23.938
 17.6352  23.9938
 17.6583  23.9611
 17.6813  24.0136
 17.7042  24.0326
 17.7273  23.9875
 17.7503  23.9667
 17.7733  23.9848
 17.7963  23.9805
 17.8193  23.8562
 17.8423  23.804
 17.8653  23.8571
 17.8882  23.9066
 17.9113  24.0126
 17.9343  24.1092
 17.9573  24.1476
 17.9803  24.3196
 18.0033  24.6866
 18.0263  24.9415
 18.0493  25.0856
 18.0723  25.508
 18.0953  25.9225
 18.1183  26.0567
 18.1413  25.5632
 18.1643  24.7589
 18.1872  24.2058
 18.2103  23.9145
 18.2333  23.7803
 18.2563  23.6588
 18.2793  23.5899
 18.3023  23.6664
 18.3253  23.6705
 18.3483  23.6828
 18.3712  23.8403
 18.3943  23.8749
 18.4173  23.8722
 18.4402  23.7845
 18.4633  23.721
 18.4863  23.7073
 18.5093  23.6539
 18.5323  23.6294
 18.5553  23.722
 18.5783  23.8508
 18.6013  23.8321
 18.6242  23.7793
 18.6473  23.7132
 18.6703  23.651
 18.6933  23.7968
 18.7163  23.8583
 18.7392  23.8168
 18.7623  23.6853
 18.7853  23.649
 18.8083  23.6541
 18.8313  23.6665
 18.8543  23.643
 18.8773  23.6395
 18.9003  23.7614
 18.9232  23.7533
 18.9463  23.7342
 18.9693  23.7085
 18.9922  23.6448
 19.0153  23.5977
 19.0383  23.5655
 19.0613  23.6216
 19.0843  23.7287
 19.1073  23.7229
 19.1303  23.6456
 19.1533  23.6273
 19.1762  23.6311
 19.1993  23.6859
 19.2223  23.7133
 19.2453  23.715
 19.2683  23.7968
 19.2913  23.7496
 19.3143  23.6997
 19.3373  23.7264
 19.3603  23.6547
 19.3833  23.6859
 19.4062  23.7051
 19.4293  23.6845
 19.4523  23.7896
 19.4752  23.8781
 19.4983  23.8567
 19.5213  23.881
 19.5443  23.9766
 19.5673  24.01
 19.5903  24.0541
 19.6133  24.1259
 19.6363  24.417
 19.6593  25.0438
 19.6823  26.0179
 19.7053  27.3836
 19.7283  27.593
 19.7513  26.4801
 19.7742  25.8238
 19.7973  25.8251
 19.8203  26.62
 19.8433  27.6436
 19.8663  28.162
 19.8893  27.0312
 19.9123  25.4847
 19.9353  24.7071
 19.9582  24.3549
 19.9813  24.1574
 20.0043  24.0021
 20.0272  23.9471
 20.0503  23.9637
 20.0733  23.8848
 20.0963  23.8786
 20.1193  23.8821
 20.1423  23.8911
 20.1653  23.9628
 20.1883  24.0435
 20.2112  23.8968
 20.2343  23.891
 20.2573  23.9617
 20.2803  23.9877
 20.3033  23.9433
 20.3263  23.8283
 20.3493  23.9234
 20.3723  24.0297
 20.3953  24.0623
 20.4183  23.9696
 20.4413  23.9756
 20.4643  23.9898
 20.4873  24.0684
 20.5102  23.9616
 20.5333  23.907
 20.5563  23.9782
 20.5792  24.0245
 20.6023  24.164
 20.6253  24.1376
 20.6483  24.1167
 20.6713  24.2679
 20.6943  24.6647
 20.7173  25.3616
 20.7403  26.4948
 20.7632  27.6624
 20.7863  28.06
 20.8093  27.1793
 20.8323  25.6341
 20.8553  24.7399
 20.8783  24.4263
 20.9013  24.2647
 20.9243  24.1977
 20.9473  24.2409
 20.9703  24.1461
 20.9933  24.1562
 21.0163  24.1066
 21.0393  24.1176
 21.0622  24.0594
 21.0853  24.0485
 21.1083  24.0883
 21.1313  24.0149
 21.1543  23.9035
 21.1773  23.9395
 21.2003  24.0393
 21.2233  24.0396
 21.2462  24.0417
 21.2693  24.1393
 21.2923  24.1582
 21.3152  24.0517
 21.3383  24.0494
 21.3613  24.1134
 21.3843  24.069
 21.4073  23.9395
 21.4303  23.986
 21.4533  24.0546
 21.4763  24.0967
 21.4992  24.1466
 21.5223  24.1631
 21.5453  24.1826
 21.5683  24.1783
 21.5913  24.2754
 21.6142  24.3219
 21.6373  24.286
 21.6603  24.2691
 21.6833  24.2639
 21.7063  24.2984
 21.7293  24.3955
 21.7523  24.3933
 21.7753  24.3865
 21.7982  24.3434
 21.8213  24.3645
 21.8443  24.2889
 21.8672  24.271
 21.8903  24.2502
 21.9133  24.3016
 21.9363  24.3849
 21.9593  24.3877
 21.9823  24.3838
 22.0053  24.3863
 22.0283  24.4516
 22.0512  24.5179
 22.0743  24.4549
 22.0973  24.4408
 22.1203  24.5307
 22.1433  24.5771
 22.1663  24.5381
 22.1893  24.5379
 22.2123  24.6199
 22.2353  24.6166
 22.2583  24.5702
 22.2813  24.6266
 22.3043  24.6785
 22.3273  24.6207
 22.3502  24.6194
 22.3733  24.7136
 22.3963  24.7508
 22.4193  24.6742
 22.4423  24.8087
 22.4653  24.8362
 22.4883  24.8694
 22.5113  24.9364
 22.5343  24.9554
 22.5573  24.9858
 22.5803  24.9844
 22.6033  24.9672
 22.6263  25.0597
 22.6493  25.1538
 22.6723  25.1872
 22.6953  25.3561
 22.7183  25.3886
 22.7413  25.4
 22.7643  25.4182
 22.7873  25.4087
 22.8103  25.494
 22.8333  25.6158
 22.8563  25.6687
 22.8793  25.7911
 22.9022  25.9289
 22.9253  26.1479
 22.9483  26.2889
 22.9713  26.4011
 22.9943  26.5888