File: test-data-xrd/xrd-map-34-ID-E/Data_0123.chi
F:\20151113_APS_34IDE\\Brian\Particle1\OCV\Data_0123.tif
2-Theta Angle (Degrees)
Intensity
       2000
 0.01725  0.0000000E+00
 0.04025  0.0000000E+00
 0.06325  0.0000000E+00
 0.08625  0.0000000E+00
 0.10925  0.0000000E+00
 0.13225  0.0000000E+00
 0.15525  0.0000000E+00
 0.17825  0.0000000E+00
 0.20125  0.0000000E+00
 0.22425  0.0000000E+00
 0.24725  0.0000000E+00
 0.27025  0.0000000E+00
 0.29325  0.0000000E+00
 0.31625  0.0000000E+00
 0.33925  0.0000000E+00
 0.36225  0.0000000E+00
 0.38525  0.0000000E+00
 0.40825  0.0000000E+00
 0.43125  0.0000000E+00
 0.45425  0.0000000E+00
 0.47725  0.0000000E+00
 0.50025  0.0000000E+00
 0.52325  0.0000000E+00
 0.54625  0.0000000E+00
 0.56925  0.0000000E+00
 0.59225  0.0000000E+00
 0.61525  0.0000000E+00
 0.63825  0.0000000E+00
 0.66125  0.0000000E+00
 0.68425  0.0000000E+00
 0.70725  0.0000000E+00
 0.73025  0.0000000E+00
 0.75325  0.0000000E+00
 0.77625  0.0000000E+00
 0.79925  0.0000000E+00
 0.82225  0.0000000E+00
 0.84525  0.0000000E+00
 0.86825  0.0000000E+00
 0.89125  0.0000000E+00
 0.91425  0.0000000E+00
 0.93725  0.0000000E+00
 0.96025  0.0000000E+00
 0.98325  0.0000000E+00
 1.00625  0.0000000E+00
 1.02925  0.0000000E+00
 1.05225  0.0000000E+00
 1.07525  0.0000000E+00
 1.09825  0.0000000E+00
 1.12125  0.0000000E+00
 1.14425  0.0000000E+00
 1.16725  0.0000000E+00
 1.19025  0.0000000E+00
 1.21325  0.0000000E+00
 1.23625  0.0000000E+00
 1.25925  0.0000000E+00
 1.28225  0.0000000E+00
 1.30525  0.0000000E+00
 1.32825  0.0000000E+00
 1.35125  0.0000000E+00
 1.37425  0.0000000E+00
 1.39725  0.0000000E+00
 1.42025  0.0000000E+00
 1.44325  0.0000000E+00
 1.46625  0.0000000E+00
 1.48925  0.0000000E+00
 1.51225  0.0000000E+00
 1.53525  0.0000000E+00
 1.55825  0.0000000E+00
 1.58125  0.0000000E+00
 1.60425  0.0000000E+00
 1.62725  0.0000000E+00
 1.65025  0.0000000E+00
 1.67325  0.0000000E+00
 1.69625  0.0000000E+00
 1.71925  0.0000000E+00
 1.74225  0.0000000E+00
 1.76525  0.0000000E+00
 1.78825  0.0000000E+00
 1.81125  0.0000000E+00
 1.83425  0.0000000E+00
 1.85725  0.0000000E+00
 1.88025  0.0000000E+00
 1.90325  0.0000000E+00
 1.92625  0.0000000E+00
 1.94925  0.0000000E+00
 1.97225  0.0000000E+00
 1.99525  0.0000000E+00
 2.01825  0.0000000E+00
 2.04125  0.0000000E+00
 2.06425  0.0000000E+00
 2.08725  0.0000000E+00
 2.11025  0.0000000E+00
 2.13325  0.0000000E+00
 2.15625  0.0000000E+00
 2.17925  0.0000000E+00
 2.20225  0.0000000E+00
 2.22525  0.0000000E+00
 2.24825  0.0000000E+00
 2.27125  0.0000000E+00
 2.29425  0.0000000E+00
 2.31725  0.0000000E+00
 2.34025  0.0000000E+00
 2.36325  0.0000000E+00
 2.38625  0.0000000E+00
 2.40925  0.0000000E+00
 2.43225  0.0000000E+00
 2.45525  0.0000000E+00
 2.47825  0.0000000E+00
 2.50125  0.0000000E+00
 2.52425  0.0000000E+00
 2.54725  0.0000000E+00
 2.57025  0.0000000E+00
 2.59325  0.0000000E+00
 2.61625  0.0000000E+00
 2.63925  0.0000000E+00
 2.66225  0.0000000E+00
 2.68525  0.0000000E+00
 2.70825  0.0000000E+00
 2.73125  0.0000000E+00
 2.75425  0.0000000E+00
 2.77725  0.0000000E+00
 2.80025  0.0000000E+00
 2.82325  34.1153
 2.84625  35.1154
 2.86925  34.6695
 2.89225  35.5454
 2.91525  37.761
 2.93825  39.2119
 2.96125  39.9639
 2.98425  37.0307
 3.00725  36.2938
 3.03025  35.7095
 3.05325  35.3642
 3.07625  35.0301
 3.09925  35.2488
 3.12225  35.9328
 3.14525  36.5449
 3.16825  36.7913
 3.19125  36.7792
 3.21425  36.2237
 3.23725  35.6753
 3.26025  34.9851
 3.28325  34.5617
 3.30625  34.3475
 3.32925  34.4597
 3.35225  35.734
 3.37525  36.5661
 3.39825  35.7436
 3.42125  34.5246
 3.44425  34.0808
 3.46725  33.9993
 3.49025  33.7473
 3.51325  33.1292
 3.53625  32.76
 3.55925  33.138
 3.58225  33.6978
 3.60525  33.9995
 3.62825  33.9566
 3.65125  33.9901
 3.67425  33.6497
 3.69725  33.383
 3.72025  33.1961
 3.74325  33.4211
 3.76625  33.3863
 3.78925  33.2431
 3.81225  33.1548
 3.83525  32.9715
 3.85825  32.9632
 3.88125  33.1562
 3.90425  32.9651
 3.92725  32.7369
 3.95025  32.8819
 3.97325  33.0936
 3.99625  32.9555
 4.01925  32.6158
 4.04225  32.3738
 4.06525  32.6031
 4.08825  32.6451
 4.11125  32.7647
 4.13425  32.4609
 4.15725  32.2727
 4.18025  32.1501
 4.20325  32.2774
 4.22625  32.3677
 4.24925  32.5125
 4.27225  32.8935
 4.29525  32.8214
 4.31825  32.6482
 4.34125  32.7096
 4.36425  32.8748
 4.38725  32.8495
 4.41025  32.7442
 4.43325  32.7188
 4.45625  32.6362
 4.47925  32.5838
 4.50225  32.3168
 4.52525  32.3624
 4.54825  32.3783
 4.57125  32.4028
 4.59425  32.5219
 4.61725  32.6578
 4.64025  32.6982
 4.66325  33.0533
 4.68625  33.2979
 4.70925  33.42
 4.73225  33.1391
 4.75525  32.9746
 4.77825  33.0318
 4.80125  32.8863
 4.82425  32.5909
 4.84725  32.5695
 4.87025  32.7895
 4.89325  32.8717
 4.91625  32.9938
 4.93925  33.0499
 4.96225  33.0087
 4.98525  33.1626
 5.00825  33.3589
 5.03125  33.2972
 5.05425  33.2425
 5.07725  33.2793
 5.10025  33.571
 5.12325  33.8072
 5.14625  34.0979
 5.16925  34.3034
 5.19225  34.3958
 5.21525  34.1031
 5.23825  34.0859
 5.26125  34.2488
 5.28425  34.462
 5.30725  34.4418
 5.33025  34.579
 5.35325  34.516
 5.37625  34.4759
 5.39925  34.7197
 5.42225  34.7629
 5.44525  34.7014
 5.46825  34.5224
 5.49125  34.4343
 5.51425  34.6528
 5.53725  34.9614
 5.56025  35.2257
 5.58325  35.5266
 5.60625  35.6127
 5.62925  35.6849
 5.65225  35.5075
 5.67525  35.5527
 5.69825  35.5242
 5.72125  35.5615
 5.74425  35.7391
 5.76725  35.7545
 5.79025  35.7655
 5.81325  35.7871
 5.83625  36.0348
 5.85925  36.1395
 5.88225  36.3638
 5.90525  36.7856
 5.92825  37.8323
 5.95125  40.5343
 5.97425  42.8918
 5.99725  43.3974
 6.02025  41.528
 6.04325  39.3201
 6.06625  37.7469
 6.08925  37.0578
 6.11225  36.9872
 6.13525  36.9449
 6.15825  36.994
 6.18125  37.1171
 6.20425  37.2127
 6.22725  37.2316
 6.25025  37.2259
 6.27325  37.5117
 6.29625  37.7565
 6.31925  37.8516
 6.34225  38.0114
 6.36525  38.1657
 6.38825  38.3171
 6.41125  38.3207
 6.43425  38.4517
 6.45725  38.5723
 6.48025  38.8101
 6.50325  38.9946
 6.52625  39.3358
 6.54925  39.4601
 6.57225  39.7432
 6.59525  39.9547
 6.61825  40.0157
 6.64125  40.0624
 6.66425  40.2599
 6.68725  40.3731
 6.71025  40.6654
 6.73325  40.9565
 6.75625  41.2197
 6.77925  41.2576
 6.80225  41.2078
 6.82525  41.3806
 6.84825  41.6485
 6.87125  41.9763
 6.89425  42.0277
 6.91725  42.0895
 6.94025  42.1627
 6.96325  42.248
 6.98625  42.3234
 7.00925  42.4172
 7.03225  42.5675
 7.05525  42.863
 7.07825  43.1403
 7.10125  43.3007
 7.12425  43.3795
 7.14725  43.3007
 7.17025  43.3638
 7.19325  43.5214
 7.21625  43.648
 7.23925  43.7028
 7.26225  43.6392
 7.28525  43.7286
 7.30825  44.0075
 7.33125  44.1768
 7.35425  44.308
 7.37725  44.3788
 7.40025  44.5521
 7.42325  44.6848
 7.44625  44.7949
 7.46925  44.7029
 7.49225  44.6851
 7.51525  44.6935
 7.53825  44.6831
 7.56125  44.6935
 7.58425  44.7598
 7.60725  44.7888
 7.63025  44.7499
 7.65325  44.6549
 7.67625  44.6401
 7.69925  44.6794
 7.72225  44.7383
 7.74525  44.7237
 7.76825  44.5068
 7.79125  44.4001
 7.81425  44.3732
 7.83725  44.4185
 7.86025  44.4449
 7.88325  44.2102
 7.90625  44.1473
 7.92925  44.327
 7.95225  44.2376
 7.97525  43.8328
 7.99825  43.5921
 8.02125  43.5808
 8.04425  43.6833
 8.06725  43.4519
 8.09025  43.1739
 8.11325  43.0936
 8.13625  42.8295
 8.15925  42.7683
 8.18225  42.6161
 8.20525  42.3694
 8.22825  42.1398
 8.25125  41.9562
 8.27425  41.6067
 8.29725  41.1599
 8.32025  40.9487
 8.34325  40.5742
 8.36625  40.248
 8.38925  39.87
 8.41225  39.6788
 8.43525  39.32
 8.45825  39.0006
 8.48125  38.7062
 8.50425  38.349
 8.52725  37.9697
 8.55025  37.5179
 8.57325  37.1504
 8.59625  36.7963
 8.61925  36.4699
 8.64225  36.2752
 8.66525  35.8602
 8.68825  35.5349
 8.71125  35.2697
 8.73425  34.8519
 8.75725  34.4093
 8.78025  34.0562
 8.80325  33.6679
 8.82625  33.4346
 8.84925  33.148
 8.87225  32.8038
 8.89525  32.2991
 8.91825  31.9382
 8.94125  31.7224
 8.96425  31.5027
 8.98725  31.2499
 9.01025  31.0036
 9.03325  30.7719
 9.05625  30.5318
 9.07925  30.225
 9.10225  29.9107
 9.12525  29.7337
 9.14825  29.4873
 9.17125  29.2748
 9.19425  29.0892
 9.21725  28.837
 9.24025  28.4686
 9.26325  28.2356
 9.28625  28.0363
 9.30925  27.7972
 9.33225  27.6575
 9.35525  27.6417
 9.37825  27.5711
 9.40125  27.3268
 9.42425  27.1656
 9.44725  27.0998
 9.47025  26.96
 9.49325  26.8505
 9.51625  26.698
 9.53925  26.4403
 9.56225  26.2915
 9.58525  26.1534
 9.60825  26.0847
 9.63125  25.9471
 9.65425  25.7355
 9.67725  25.5615
 9.70025  25.4329
 9.72325  25.3419
 9.74625  25.2505
 9.76925  25.1464
 9.79225  25.183
 9.81525  25.1147
 9.83825  25.0173
 9.86125  24.9583
 9.88425  24.8522
 9.90725  24.8368
 9.93025  24.7196
 9.95325  24.5266
 9.97625  24.4669
 9.99925  24.4831
 10.0222  24.4537
 10.0453  24.3273
 10.0683  24.1669
 10.0913  24.0931
 10.1143  24.0582
 10.1373  23.9539
 10.1603  24.02
 10.1832  24.1362
 10.2063  24.1571
 10.2293  24.0472
 10.2523  23.8985
 10.2752  23.7987
 10.2982  23.7882
 10.3213  23.6959
 10.3443  23.6108
 10.3673  23.5982
 10.3902  23.6451
 10.4133  23.7167
 10.4363  23.6077
 10.4593  23.4134
 10.4823  23.3665
 10.5053  23.4205
 10.5283  23.3122
 10.5512  23.2354
 10.5742  23.2847
 10.5973  23.2046
 10.6203  23.2898
 10.6433  23.2705
 10.6662  23.2208
 10.6893  23.1779
 10.7123  23.1195
 10.7353  23.0889
 10.7583  23.041
 10.7813  22.9731
 10.8043  22.9971
 10.8272  22.9674
 10.8503  22.8533
 10.8733  22.8247
 10.8963  22.8447
 10.9192  22.8237
 10.9422  22.8805
 10.9653  22.8823
 10.9883  22.8095
 11.0113  22.7141
 11.0343  22.6395
 11.0573  22.5888
 11.0803  22.6676
 11.1033  22.6763
 11.1263  22.6354
 11.1493  22.6023
 11.1723  22.6131
 11.1953  22.6421
 11.2182  22.586
 11.2413  22.5361
 11.2643  22.5011
 11.2873  22.4473
 11.3102  22.5247
 11.3333  22.5551
 11.3563  22.4829
 11.3793  22.4433
 11.4023  22.5656
 11.4253  22.6968
 11.4483  22.8041
 11.4713  22.8318
 11.4942  22.7078
 11.5173  22.6669
 11.5403  23.0919
 11.5633  23.7825
 11.5862  24.2899
 11.6093  24.1691
 11.6323  23.5685
 11.6553  23.0516
 11.6783  22.7993
 11.7013  22.6354
 11.7243  22.5087
 11.7473  22.5543
 11.7703  22.5612
 11.7933  22.5314
 11.8163  22.532
 11.8393  22.5572
 11.8622  22.5274
 11.8853  22.4014
 11.9083  22.3948
 11.9313  22.5472
 11.9543  22.784
 11.9773  22.8705
 12.0003  22.8491
 12.0233  22.8368
 12.0463  22.8576
 12.0693  23.0183
 12.0923  23.3408
 12.1153  23.2892
 12.1382  23.1207
 12.1613  22.9524
 12.1843  22.7302
 12.2073  22.6636
 12.2302  22.6189
 12.2533  22.5376
 12.2763  22.5161
 12.2993  22.6378
 12.3223  22.6737
 12.3453  22.7178
 12.3683  22.7076
 12.3913  22.6545
 12.4142  22.5758
 12.4373  22.5914
 12.4603  22.6517
 12.4833  22.7223
 12.5062  22.5851
 12.5292  22.6075
 12.5523  22.7306
 12.5753  22.7662
 12.5983  22.769
 12.6212  22.8782
 12.6443  22.8344
 12.6673  22.8731
 12.6903  22.9645
 12.7133  23.0501
 12.7363  22.9294
 12.7593  23.0885
 12.7822  23.7691
 12.8052  23.453
 12.8283  23.3712
 12.8513  23.4474
 12.8742  23.7088
 12.8972  23.6864
 12.9203  23.7155
 12.9433  23.7201
 12.9663  23.7234
 12.9893  23.797
 13.0123  23.9391
 13.0353  24.1561
 13.0582  24.4162
 13.0813  24.5471
 13.1043  24.8054
 13.1273  25.0505
 13.1502  25.2122
 13.1732  25.4064
 13.1963  25.5769
 13.2193  25.856
 13.2423  26.2562
 13.2652  26.6096
 13.2883  26.974
 13.3113  27.1839
 13.3343  27.5585
 13.3573  27.9719
 13.3803  28.2355
 13.4033  28.4285
 13.4262  28.5976
 13.4492  28.8764
 13.4723  29.1729
 13.4953  29.4481
 13.5183  29.5474
 13.5412  29.5559
 13.5643  29.7028
 13.5873  29.7289
 13.6103  29.7956
 13.6333  29.8732
 13.6563  29.9718
 13.6793  30.0096
 13.7022  29.8119
 13.7253  29.6706
 13.7483  29.5366
 13.7713  29.4633
 13.7942  29.3907
 13.8172  29.2343
 13.8403  29.1045
 13.8633  29.1225
 13.8863  29.3288
 13.9093  29.9735
 13.9323  31.0157
 13.9553  31.6219
 13.9783  31.1529
 14.0013  29.8316
 14.0243  28.5191
 14.0473  27.8122
 14.0703  27.6134
 14.0932  27.4276
 14.1163  27.2673
 14.1393  27.2047
 14.1623  27.0883
 14.1852  26.9369
 14.2083  26.742
 14.2313  26.5297
 14.2543  26.3902
 14.2773  26.2769
 14.3003  26.1423
 14.3233  26.0198
 14.3463  26.0522
 14.3692  26.1006
 14.3923  26.0374
 14.4153  25.875
 14.4383  25.7584
 14.4612  25.6908
 14.4843  25.7327
 14.5073  25.7115
 14.5303  25.6102
 14.5533  25.5355
 14.5763  25.4958
 14.5993  25.3766
 14.6223  25.3801
 14.6453  25.4159
 14.6683  25.3067
 14.6913  25.2456
 14.7143  25.1948
 14.7372  25.117
 14.7603  25.0922
 14.7833  24.9987
 14.8063  24.876
 14.8293  24.8234
 14.8523  24.9205
 14.8753  24.9331
 14.8983  24.9757
 14.9213  24.9299
 14.9443  24.7782
 14.9673  24.66
 14.9903  24.7035
 15.0132  24.7873
 15.0363  24.8672
 15.0593  24.9002
 15.0823  24.8573
 15.1052  24.8836
 15.1283  24.8993
 15.1513  25.0847
 15.1743  25.2637
 15.1973  25.241
 15.2203  25.1435
 15.2433  24.9655
 15.2663  24.7628
 15.2892  24.5784
 15.3123  24.4313
 15.3353  24.3873
 15.3583  24.4454
 15.3812  24.435
 15.4043  24.4988
 15.4273  24.469
 15.4503  24.4235
 15.4733  24.4175
 15.4963  24.4658
 15.5193  24.5078
 15.5423  24.4287
 15.5653  24.4761
 15.5883  24.5421
 15.6113  24.5841
 15.6343  24.5534
 15.6572  24.5558
 15.6803  24.5648
 15.7033  24.6456
 15.7263  24.7304
 15.7492  24.6817
 15.7723  24.6641
 15.7953  24.6689
 15.8183  24.7046
 15.8413  24.5243
 15.8643  24.4946
 15.8873  24.4655
 15.9103  24.5665
 15.9332  24.5409
 15.9563  24.4395
 15.9793  24.5489
 16.0023  24.635
 16.0253  24.614
 16.0482  24.5752
 16.0713  24.664
 16.0943  24.8004
 16.1172  24.9282
 16.1403  24.9149
 16.1633  25.0145
 16.1863  25.3205
 16.2093  26.0685
 16.2323  27.4076
 16.2553  28.469
 16.2783  27.5676
 16.3012  25.9687
 16.3243  25.1183
 16.3472  24.8229
 16.3703  24.6686
 16.3933  24.5933
 16.4163  24.7804
 16.4393  24.8138
 16.4623  24.7633
 16.4853  24.7076
 16.5083  24.6805
 16.5312  24.6727
 16.5543  24.6923
 16.5773  24.6179
 16.6002  24.5845
 16.6233  24.4952
 16.6463  24.398
 16.6693  24.4421
 16.6923  24.4902
 16.7153  24.5557
 16.7383  24.5319
 16.7613  24.6125
 16.7843  24.6002
 16.8073  24.5384
 16.8303  24.4086
 16.8533  24.3696
 16.8763  24.311
 16.8992  24.235
 16.9223  24.2894
 16.9453  24.2745
 16.9683  24.2003
 16.9913  24.2059
 17.0143  24.184
 17.0373  24.1324
 17.0603  24.0908
 17.0832  24.2093
 17.1063  24.2369
 17.1293  24.0772
 17.1522  24.0641
 17.1753  23.9953
 17.1983  23.9883
 17.2213  24.0467
 17.2443  24.0645
 17.2673  24.0328
 17.2903  24.1233
 17.3133  24.1101
 17.3362  24.0377
 17.3593  23.9348
 17.3823  23.8973
 17.4053  23.9199
 17.4283  24.0083
 17.4513  23.9975
 17.4743  24.0207
 17.4973  24.0064
 17.5203  23.9952
 17.5433  23.9812
 17.5663  23.825
 17.5893  23.7481
 17.6123  23.9204
 17.6352  24.0266
 17.6583  23.9801
 17.6813  23.8898
 17.7042  23.7885
 17.7273  23.6578
 17.7503  23.6642
 17.7733  23.7703
 17.7963  23.7438
 17.8193  23.7684
 17.8423  23.6654
 17.8653  23.5228
 17.8882  23.5269
 17.9113  23.6524
 17.9343  23.7019
 17.9573  23.6569
 17.9803  23.6895
 18.0033  23.8026
 18.0263  23.8174
 18.0493  23.9862
 18.0723  24.1029
 18.0953  24.1587
 18.1183  24.1771
 18.1413  24.0767
 18.1643  23.8645
 18.1872  23.6656
 18.2103  23.5969
 18.2333  23.5072
 18.2563  23.5305
 18.2793  23.399
 18.3023  23.4709
 18.3253  23.4327
 18.3483  23.4337
 18.3712  23.5247
 18.3943  23.5214
 18.4173  23.5668
 18.4402  23.5225
 18.4633  23.5357
 18.4863  23.5461
 18.5093  23.492
 18.5323  23.4327
 18.5553  23.4229
 18.5783  23.416
 18.6013  23.485
 18.6242  23.4913
 18.6473  23.4376
 18.6703  23.4664
 18.6933  23.6357
 18.7163  23.6191
 18.7392  23.5436
 18.7623  23.506
 18.7853  23.5229
 18.8083  23.5525
 18.8313  23.4152
 18.8543  23.295
 18.8773  23.4079
 18.9003  23.4607
 18.9232  23.5426
 18.9463  23.5976
 18.9693  23.5243
 18.9922  23.5069
 19.0153  23.533
 19.0383  23.6425
 19.0613  23.5765
 19.0843  23.4973
 19.1073  23.4426
 19.1303  23.5011
 19.1533  23.5111
 19.1762  23.4669
 19.1993  23.4867
 19.2223  23.4884
 19.2453  23.5115
 19.2683  23.5651
 19.2913  23.5167
 19.3143  23.509
 19.3373  23.5343
 19.3603  23.5528
 19.3833  23.516
 19.4062  23.5208
 19.4293  23.4193
 19.4523  23.4256
 19.4752  23.4898
 19.4983  23.4495
 19.5213  23.4671
 19.5443  23.5871
 19.5673  23.5925
 19.5903  23.6794
 19.6133  23.7559
 19.6363  23.9529
 19.6593  24.2994
 19.6823  24.9339
 19.7053  25.9911
 19.7283  26.7449
 19.7513  26.5073
 19.7742  25.3648
 19.7973  24.5628
 19.8203  24.403
 19.8433  24.6653
 19.8663  24.837
 19.8893  24.9099
 19.9123  24.6552
 19.9353  24.0458
 19.9582  23.7984
 19.9813  23.7239
 20.0043  23.6947
 20.0272  23.7125
 20.0503  23.7532
 20.0733  23.6621
 20.0963  23.6403
 20.1193  23.6654
 20.1423  23.6507
 20.1653  23.6559
 20.1883  23.7321
 20.2112  23.6406
 20.2343  23.6203
 20.2573  23.6234
 20.2803  23.6065
 20.3033  23.5307
 20.3263  23.4739
 20.3493  23.5476
 20.3723  23.5783
 20.3953  23.6114
 20.4183  23.6419
 20.4413  23.6079
 20.4643  23.6326
 20.4873  23.772
 20.5102  23.6496
 20.5333  23.5151
 20.5563  23.5705
 20.5792  23.6231
 20.6023  23.7558
 20.6253  23.8339
 20.6483  23.8979
 20.6713  23.9863
 20.6943  24.1146
 20.7173  24.3289
 20.7403  24.5539
 20.7632  24.7087
 20.7863  24.6241
 20.8093  24.3483
 20.8323  23.9794
 20.8553  23.842
 20.8783  23.855
 20.9013  23.9539
 20.9243  23.9682
 20.9473  23.9616
 20.9703  23.8942
 20.9933  23.8139
 21.0163  23.9274
 21.0393  23.9773
 21.0622  23.9257
 21.0853  23.9536
 21.1083  23.7997
 21.1313  23.7473
 21.1543  23.6371
 21.1773  23.6161
 21.2003  23.7391
 21.2233  23.8605
 21.2462  23.8906
 21.2693  23.8851
 21.2923  23.8492
 21.3152  23.7689
 21.3383  23.8198
 21.3613  23.8405
 21.3843  23.7835
 21.4073  23.8142
 21.4303  23.8784
 21.4533  23.8366
 21.4763  23.8429
 21.4992  23.8822
 21.5223  23.8935
 21.5453  23.9485
 21.5683  23.9655
 21.5913  24.0241
 21.6142  23.9982
 21.6373  23.9897
 21.6603  24.0414
 21.6833  24.1317
 21.7063  24.1338
 21.7293  24.1
 21.7523  24.0419
 21.7753  24.0192
 21.7982  24.1257
 21.8213  24.2091
 21.8443  24.1395
 21.8672  24.1292
 21.8903  24.1185
 21.9133  24.1332
 21.9363  24.1256
 21.9593  24.1531
 21.9823  24.3375
 22.0053  24.2299
 22.0283  24.1294
 22.0512  24.1213
 22.0743  24.0605
 22.0973  24.1502
 22.1203  24.286
 22.1433  24.3385
 22.1663  24.3291
 22.1893  24.3161
 22.2123  24.2683
 22.2353  24.1847
 22.2583  24.197
 22.2813  24.2785
 22.3043  24.4593
 22.3273  24.4221
 22.3502  24.3291
 22.3733  24.337
 22.3963  24.4382
 22.4193  24.4353
 22.4423  24.4462
 22.4653  24.5028
 22.4883  24.4881
 22.5113  24.5362
 22.5343  24.6229
 22.5573  24.6759
 22.5803  24.6292
 22.6033  24.7028
 22.6263  24.8603
 22.6493  24.9232
 22.6723  25.0803
 22.6953  25.121
 22.7183  25.2883
 22.7413  25.4484
 22.7643  25.5115
 22.7873  25.3603
 22.8103  25.2981
 22.8333  25.4179
 22.8563  25.4042
 22.8793  25.517
 22.9022  25.6199
 22.9253  25.8447
 22.9483  25.8959
 22.9713  26.0018
 22.9943  26.0725