File: test-data-xrd/xrd-map-34-ID-E/Data_0113.chi
F:\20151113_APS_34IDE\\Brian\Particle1\OCV\Data_0113.tif
2-Theta Angle (Degrees)
Intensity
       2000
 0.01725  0.0000000E+00
 0.04025  0.0000000E+00
 0.06325  0.0000000E+00
 0.08625  0.0000000E+00
 0.10925  0.0000000E+00
 0.13225  0.0000000E+00
 0.15525  0.0000000E+00
 0.17825  0.0000000E+00
 0.20125  0.0000000E+00
 0.22425  0.0000000E+00
 0.24725  0.0000000E+00
 0.27025  0.0000000E+00
 0.29325  0.0000000E+00
 0.31625  0.0000000E+00
 0.33925  0.0000000E+00
 0.36225  0.0000000E+00
 0.38525  0.0000000E+00
 0.40825  0.0000000E+00
 0.43125  0.0000000E+00
 0.45425  0.0000000E+00
 0.47725  0.0000000E+00
 0.50025  0.0000000E+00
 0.52325  0.0000000E+00
 0.54625  0.0000000E+00
 0.56925  0.0000000E+00
 0.59225  0.0000000E+00
 0.61525  0.0000000E+00
 0.63825  0.0000000E+00
 0.66125  0.0000000E+00
 0.68425  0.0000000E+00
 0.70725  0.0000000E+00
 0.73025  0.0000000E+00
 0.75325  0.0000000E+00
 0.77625  0.0000000E+00
 0.79925  0.0000000E+00
 0.82225  0.0000000E+00
 0.84525  0.0000000E+00
 0.86825  0.0000000E+00
 0.89125  0.0000000E+00
 0.91425  0.0000000E+00
 0.93725  0.0000000E+00
 0.96025  0.0000000E+00
 0.98325  0.0000000E+00
 1.00625  0.0000000E+00
 1.02925  0.0000000E+00
 1.05225  0.0000000E+00
 1.07525  0.0000000E+00
 1.09825  0.0000000E+00
 1.12125  0.0000000E+00
 1.14425  0.0000000E+00
 1.16725  0.0000000E+00
 1.19025  0.0000000E+00
 1.21325  0.0000000E+00
 1.23625  0.0000000E+00
 1.25925  0.0000000E+00
 1.28225  0.0000000E+00
 1.30525  0.0000000E+00
 1.32825  0.0000000E+00
 1.35125  0.0000000E+00
 1.37425  0.0000000E+00
 1.39725  0.0000000E+00
 1.42025  0.0000000E+00
 1.44325  0.0000000E+00
 1.46625  0.0000000E+00
 1.48925  0.0000000E+00
 1.51225  0.0000000E+00
 1.53525  0.0000000E+00
 1.55825  0.0000000E+00
 1.58125  0.0000000E+00
 1.60425  0.0000000E+00
 1.62725  0.0000000E+00
 1.65025  0.0000000E+00
 1.67325  0.0000000E+00
 1.69625  0.0000000E+00
 1.71925  0.0000000E+00
 1.74225  0.0000000E+00
 1.76525  0.0000000E+00
 1.78825  0.0000000E+00
 1.81125  0.0000000E+00
 1.83425  0.0000000E+00
 1.85725  0.0000000E+00
 1.88025  0.0000000E+00
 1.90325  0.0000000E+00
 1.92625  0.0000000E+00
 1.94925  0.0000000E+00
 1.97225  0.0000000E+00
 1.99525  0.0000000E+00
 2.01825  0.0000000E+00
 2.04125  0.0000000E+00
 2.06425  0.0000000E+00
 2.08725  0.0000000E+00
 2.11025  0.0000000E+00
 2.13325  0.0000000E+00
 2.15625  0.0000000E+00
 2.17925  0.0000000E+00
 2.20225  0.0000000E+00
 2.22525  0.0000000E+00
 2.24825  0.0000000E+00
 2.27125  0.0000000E+00
 2.29425  0.0000000E+00
 2.31725  0.0000000E+00
 2.34025  0.0000000E+00
 2.36325  0.0000000E+00
 2.38625  0.0000000E+00
 2.40925  0.0000000E+00
 2.43225  0.0000000E+00
 2.45525  0.0000000E+00
 2.47825  0.0000000E+00
 2.50125  0.0000000E+00
 2.52425  0.0000000E+00
 2.54725  0.0000000E+00
 2.57025  0.0000000E+00
 2.59325  0.0000000E+00
 2.61625  0.0000000E+00
 2.63925  0.0000000E+00
 2.66225  0.0000000E+00
 2.68525  0.0000000E+00
 2.70825  0.0000000E+00
 2.73125  0.0000000E+00
 2.75425  0.0000000E+00
 2.77725  0.0000000E+00
 2.80025  0.0000000E+00
 2.82325  32.9372
 2.84625  33.117
 2.86925  34.415
 2.89225  35.6141
 2.91525  36.7943
 2.93825  36.7396
 2.96125  35.3136
 2.98425  34.673
 3.00725  35.0676
 3.03025  35.7614
 3.05325  35.6225
 3.07625  35.5569
 3.09925  36.0656
 3.12225  36.2304
 3.14525  36.7514
 3.16825  36.3427
 3.19125  35.4767
 3.21425  35.2097
 3.23725  34.5197
 3.26025  34.092
 3.28325  34.0119
 3.30625  34.0837
 3.32925  34.4373
 3.35225  34.2824
 3.37525  34.3079
 3.39825  33.8343
 3.42125  34.1917
 3.44425  33.9441
 3.46725  33.6606
 3.49025  33.5974
 3.51325  33.5058
 3.53625  33.3951
 3.55925  33.3796
 3.58225  33.1058
 3.60525  32.9035
 3.62825  32.9228
 3.65125  32.8804
 3.67425  33.0026
 3.69725  32.8174
 3.72025  32.7675
 3.74325  32.7192
 3.76625  32.671
 3.78925  32.6974
 3.81225  32.5951
 3.83525  32.4987
 3.85825  32.2411
 3.88125  32.698
 3.90425  32.5276
 3.92725  32.2534
 3.95025  32.4405
 3.97325  32.4611
 3.99625  32.2092
 4.01925  31.967
 4.04225  31.9251
 4.06525  32.1754
 4.08825  32.4184
 4.11125  32.6928
 4.13425  32.7002
 4.15725  32.3562
 4.18025  31.9976
 4.20325  32.0406
 4.22625  32.268
 4.24925  31.9914
 4.27225  31.7277
 4.29525  31.7696
 4.31825  31.7773
 4.34125  32.0128
 4.36425  31.952
 4.38725  31.9787
 4.41025  32.1047
 4.43325  32.1033
 4.45625  32.1651
 4.47925  32.3964
 4.50225  32.4088
 4.52525  32.2289
 4.54825  32.2711
 4.57125  32.268
 4.59425  32.282
 4.61725  32.2834
 4.64025  32.1601
 4.66325  32.1959
 4.68625  32.5131
 4.70925  32.9595
 4.73225  33.2454
 4.75525  33.0406
 4.77825  32.59
 4.80125  32.183
 4.82425  32.0301
 4.84725  32.1129
 4.87025  32.3576
 4.89325  32.459
 4.91625  32.6561
 4.93925  32.6562
 4.96225  32.5281
 4.98525  32.7717
 5.00825  32.7814
 5.03125  32.708
 5.05425  32.845
 5.07725  32.9603
 5.10025  33.11
 5.12325  33.3705
 5.14625  33.3606
 5.16925  33.2529
 5.19225  33.5658
 5.21525  33.8549
 5.23825  33.9156
 5.26125  33.9014
 5.28425  33.8566
 5.30725  34.1258
 5.33025  34.0414
 5.35325  33.9799
 5.37625  34.2812
 5.39925  34.4954
 5.42225  34.3338
 5.44525  34.204
 5.46825  34.4038
 5.49125  34.471
 5.51425  34.5846
 5.53725  34.6486
 5.56025  34.8778
 5.58325  34.9211
 5.60625  34.8818
 5.62925  34.7565
 5.65225  34.8362
 5.67525  35.0534
 5.69825  35.1869
 5.72125  35.2173
 5.74425  35.2607
 5.76725  35.4152
 5.79025  35.6373
 5.81325  35.7543
 5.83625  35.7935
 5.85925  36.0664
 5.88225  36.54
 5.90525  37.6156
 5.92825  40.1375
 5.95125  45.065
 5.97425  52.0095
 5.99725  53.0736
 6.02025  48.0268
 6.04325  40.9461
 6.06625  38.0846
 6.08925  36.936
 6.11225  36.6262
 6.13525  36.448
 6.15825  36.5174
 6.18125  36.7995
 6.20425  36.7559
 6.22725  36.8368
 6.25025  36.9776
 6.27325  37.2551
 6.29625  37.3866
 6.31925  37.3464
 6.34225  37.3974
 6.36525  37.4101
 6.38825  37.6021
 6.41125  37.8673
 6.43425  38.1497
 6.45725  38.3592
 6.48025  38.4415
 6.50325  38.5743
 6.52625  38.8899
 6.54925  39.0216
 6.57225  39.0958
 6.59525  39.2233
 6.61825  39.4503
 6.64125  39.6342
 6.66425  39.9405
 6.68725  39.9653
 6.71025  40.0348
 6.73325  40.4162
 6.75625  40.6649
 6.77925  40.7485
 6.80225  40.9462
 6.82525  41.1288
 6.84825  41.3509
 6.87125  41.4785
 6.89425  41.5536
 6.91725  41.6946
 6.94025  41.6836
 6.96325  41.5895
 6.98625  41.7033
 7.00925  41.8393
 7.03225  41.9718
 7.05525  42.4036
 7.07825  42.6168
 7.10125  42.5659
 7.12425  42.5553
 7.14725  42.633
 7.17025  42.7606
 7.19325  42.8699
 7.21625  42.8322
 7.23925  42.9153
 7.26225  42.9454
 7.28525  43.0186
 7.30825  43.2595
 7.33125  43.4176
 7.35425  43.3455
 7.37725  43.3689
 7.40025  43.4072
 7.42325  43.5512
 7.44625  43.6187
 7.46925  43.6529
 7.49225  43.6347
 7.51525  43.8272
 7.53825  43.8975
 7.56125  44.0491
 7.58425  44.1733
 7.60725  44.0811
 7.63025  44.0002
 7.65325  43.9195
 7.67625  43.7131
 7.69925  43.7278
 7.72225  43.8012
 7.74525  43.805
 7.76825  43.8734
 7.79125  43.8229
 7.81425  43.52
 7.83725  43.3431
 7.86025  43.439
 7.88325  43.5345
 7.90625  43.5624
 7.92925  43.4709
 7.95225  43.429
 7.97525  43.2617
 7.99825  43.0854
 8.02125  42.8443
 8.04425  42.7597
 8.06725  42.6098
 8.09025  42.5782
 8.11325  42.5697
 8.13625  42.2024
 8.15925  41.972
 8.18225  41.8021
 8.20525  41.5953
 8.22825  41.3025
 8.25125  41.0412
 8.27425  40.7351
 8.29725  40.4715
 8.32025  40.2144
 8.34325  39.8084
 8.36625  39.504
 8.38925  39.1191
 8.41225  38.6532
 8.43525  38.1456
 8.45825  37.9142
 8.48125  37.6085
 8.50425  37.2651
 8.52725  37.0637
 8.55025  36.7269
 8.57325  36.4805
 8.59625  36.1675
 8.61925  35.7971
 8.64225  35.5145
 8.66525  35.1613
 8.68825  35.013
 8.71125  34.7272
 8.73425  34.2877
 8.75725  33.8329
 8.78025  33.5342
 8.80325  33.1984
 8.82625  32.9245
 8.84925  32.6356
 8.87225  32.2909
 8.89525  31.8319
 8.91825  31.379
 8.94125  31.119
 8.96425  30.806
 8.98725  30.4308
 9.01025  30.133
 9.03325  30.0018
 9.05625  29.9082
 9.07925  29.6672
 9.10225  29.3165
 9.12525  29.056
 9.14825  28.9256
 9.17125  28.7375
 9.19425  28.4916
 9.21725  28.109
 9.24025  27.9526
 9.26325  27.9751
 9.28625  27.7756
 9.30925  27.542
 9.33225  27.3485
 9.35525  27.1186
 9.37825  27.0676
 9.40125  26.88
 9.42425  26.6155
 9.44725  26.4485
 9.47025  26.3956
 9.49325  26.3791
 9.51625  26.1672
 9.53925  26.044
 9.56225  25.862
 9.58525  25.7103
 9.60825  25.6179
 9.63125  25.5016
 9.65425  25.312
 9.67725  25.1075
 9.70025  24.9199
 9.72325  24.8463
 9.74625  24.8659
 9.76925  24.8868
 9.79225  24.869
 9.81525  24.6334
 9.83825  24.5424
 9.86125  24.4873
 9.88425  24.3741
 9.90725  24.2644
 9.93025  24.0494
 9.95325  23.9775
 9.97625  24.07
 9.99925  24.0662
 10.0222  23.9995
 10.0453  23.8922
 10.0683  23.7681
 10.0913  23.6581
 10.1143  23.6485
 10.1373  23.666
 10.1603  23.6187
 10.1832  23.6829
 10.2063  23.6619
 10.2293  23.6873
 10.2523  23.6084
 10.2752  23.553
 10.2982  23.4263
 10.3213  23.3274
 10.3443  23.2343
 10.3673  23.3386
 10.3902  23.3424
 10.4133  23.221
 10.4363  23.0421
 10.4593  23.0366
 10.4823  23.2134
 10.5053  23.139
 10.5283  23.081
 10.5512  22.9776
 10.5742  22.8723
 10.5973  22.8162
 10.6203  22.8785
 10.6433  22.9629
 10.6662  22.9821
 10.6893  22.8294
 10.7123  22.8071
 10.7353  22.7786
 10.7583  22.6783
 10.7813  22.5681
 10.8043  22.4642
 10.8272  22.5056
 10.8503  22.5866
 10.8733  22.6357
 10.8963  22.5536
 10.9192  22.5296
 10.9422  22.4701
 10.9653  22.3958
 10.9883  22.3622
 11.0113  22.3139
 11.0343  22.3365
 11.0573  22.2734
 11.0803  22.1668
 11.1033  22.2301
 11.1263  22.3837
 11.1493  22.4696
 11.1723  22.354
 11.1953  22.2517
 11.2182  22.2737
 11.2413  22.3112
 11.2643  22.3289
 11.2873  22.3032
 11.3102  22.3363
 11.3333  22.4079
 11.3563  22.4538
 11.3793  22.4519
 11.4023  22.4832
 11.4253  22.5139
 11.4483  22.5509
 11.4713  22.7423
 11.4942  22.8977
 11.5173  23.2212
 11.5403  24.6079
 11.5633  27.3163
 11.5862  31.0448
 11.6093  33.3653
 11.6323  31.0227
 11.6553  26.352
 11.6783  23.647
 11.7013  22.9801
 11.7243  22.744
 11.7473  22.5927
 11.7703  22.4827
 11.7933  22.4429
 11.8163  22.447
 11.8393  22.286
 11.8622  22.2341
 11.8853  22.231
 11.9083  22.2862
 11.9313  22.3822
 11.9543  22.5709
 11.9773  22.7902
 12.0003  22.8952
 12.0233  22.7868
 12.0463  22.8375
 12.0693  23.3132
 12.0923  24.0009
 12.1153  23.7671
 12.1382  23.2043
 12.1613  22.7743
 12.1843  22.4743
 12.2073  22.3573
 12.2302  22.3382
 12.2533  22.3342
 12.2763  22.3365
 12.2993  22.3843
 12.3223  22.4008
 12.3453  22.2993
 12.3683  22.2055
 12.3913  22.2778
 12.4142  22.2422
 12.4373  22.2339
 12.4603  22.3501
 12.4833  22.4431
 12.5062  22.5575
 12.5292  22.5394
 12.5523  22.5839
 12.5753  22.6028
 12.5983  22.4962
 12.6212  22.5975
 12.6443  22.6348
 12.6673  22.63
 12.6903  22.7345
 12.7133  22.7426
 12.7363  22.7406
 12.7593  22.7407
 12.7822  22.826
 12.8052  22.8754
 12.8283  23.0576
 12.8513  23.1992
 12.8742  23.2754
 12.8972  23.3733
 12.9203  23.5612
 12.9433  23.6417
 12.9663  23.637
 12.9893  23.6711
 13.0123  23.8325
 13.0353  23.9688
 13.0582  24.1129
 13.0813  24.2054
 13.1043  24.4759
 13.1273  24.7728
 13.1502  25.0726
 13.1732  25.2676
 13.1963  25.5017
 13.2193  25.8
 13.2423  26.1347
 13.2652  26.2929
 13.2883  26.4619
 13.3113  26.731
 13.3343  27.0836
 13.3573  27.4572
 13.3803  27.6927
 13.4033  27.9615
 13.4262  28.2083
 13.4492  28.4031
 13.4723  28.5538
 13.4953  28.8672
 13.5183  29.0541
 13.5412  29.2588
 13.5643  29.3951
 13.5873  29.5149
 13.6103  29.5606
 13.6333  29.532
 13.6563  29.3533
 13.6793  29.2987
 13.7022  29.2773
 13.7253  29.2477
 13.7483  29.1768
 13.7713  29.1149
 13.7942  29.0845
 13.8172  29.0128
 13.8403  29.0771
 13.8633  29.5456
 13.8863  30.7691
 13.9093  33.2914
 13.9323  36.4456
 13.9553  38.248
 13.9783  36.8017
 14.0013  33.2358
 14.0243  30.0936
 14.0473  28.6445
 14.0703  28.0027
 14.0932  27.5565
 14.1163  27.2278
 14.1393  27.0332
 14.1623  26.9399
 14.1852  26.7028
 14.2083  26.4384
 14.2313  26.3057
 14.2543  26.2516
 14.2773  26.1604
 14.3003  25.96
 14.3233  25.7676
 14.3463  25.7942
 14.3692  25.8564
 14.3923  25.8418
 14.4153  25.6578
 14.4383  25.5957
 14.4612  25.5688
 14.4843  25.4504
 14.5073  25.3859
 14.5303  25.3395
 14.5533  25.3306
 14.5763  25.351
 14.5993  25.2351
 14.6223  25.1982
 14.6453  25.1122
 14.6683  24.9862
 14.6913  24.8998
 14.7143  24.9003
 14.7372  24.8952
 14.7603  24.7507
 14.7833  24.7534
 14.8063  24.8136
 14.8293  24.7632
 14.8523  24.8222
 14.8753  24.7533
 14.8983  24.6384
 14.9213  24.6094
 14.9443  24.5817
 14.9673  24.5637
 14.9903  24.6736
 15.0132  24.7281
 15.0363  24.635
 15.0593  24.5797
 15.0823  24.5935
 15.1052  24.6774
 15.1283  24.8945
 15.1513  25.6623
 15.1743  26.7616
 15.1973  27.324
 15.2203  26.8761
 15.2433  25.7932
 15.2663  25.007
 15.2892  24.6154
 15.3123  24.5459
 15.3353  24.5571
 15.3583  24.54
 15.3812  24.4486
 15.4043  24.31
 15.4273  24.2378
 15.4503  24.2908
 15.4733  24.2998
 15.4963  24.3757
 15.5193  24.404
 15.5423  24.4068
 15.5653  24.3918
 15.5883  24.4486
 15.6113  24.3679
 15.6343  24.2878
 15.6572  24.2184
 15.6803  24.3532
 15.7033  24.3943
 15.7263  24.3181
 15.7492  24.2525
 15.7723  24.2838
 15.7953  24.3349
 15.8183  24.4208
 15.8413  24.3817
 15.8643  24.4095
 15.8873  24.5687
 15.9103  24.7094
 15.9332  24.5579
 15.9563  24.4298
 15.9793  24.3855
 16.0023  24.4741
 16.0253  24.5042
 16.0482  24.5507
 16.0713  24.5782
 16.0943  24.5849
 16.1172  24.6212
 16.1403  24.7189
 16.1633  24.8781
 16.1863  25.075
 16.2093  25.5637
 16.2323  26.4101
 16.2553  27.1742
 16.2783  26.6483
 16.3012  25.3971
 16.3243  24.7502
 16.3472  24.5398
 16.3703  24.4657
 16.3933  24.4079
 16.4163  24.5461
 16.4393  24.5567
 16.4623  24.5402
 16.4853  24.4606
 16.5083  24.3806
 16.5312  24.3422
 16.5543  24.3469
 16.5773  24.2994
 16.6002  24.3168
 16.6233  24.2892
 16.6463  24.2802
 16.6693  24.3454
 16.6923  24.3476
 16.7153  24.3257
 16.7383  24.4099
 16.7613  24.3471
 16.7843  24.2812
 16.8073  24.1784
 16.8303  24.1182
 16.8533  24.101
 16.8763  24.1749
 16.8992  24.1827
 16.9223  24.1796
 16.9453  24.1086
 16.9683  24.1008
 16.9913  24.127
 17.0143  24.0811
 17.0373  24.1443
 17.0603  24.0676
 17.0832  23.9474
 17.1063  23.9488
 17.1293  24.0192
 17.1522  23.9909
 17.1753  23.9318
 17.1983  23.9721
 17.2213  23.9516
 17.2443  23.8949
 17.2673  23.8609
 17.2903  23.8658
 17.3133  23.8808
 17.3362  23.8648
 17.3593  23.7753
 17.3823  23.7291
 17.4053  23.7297
 17.4283  23.7789
 17.4513  23.8181
 17.4743  23.8267
 17.4973  23.8463
 17.5203  23.7655
 17.5433  23.5932
 17.5663  23.5332
 17.5893  23.5587
 17.6123  23.7004
 17.6352  23.7602
 17.6583  23.7385
 17.6813  23.6067
 17.7042  23.6807
 17.7273  23.668
 17.7503  23.5732
 17.7733  23.582
 17.7963  23.6617
 17.8193  23.664
 17.8423  23.6022
 17.8653  23.5274
 17.8882  23.6114
 17.9113  23.7436
 17.9343  23.6098
 17.9573  23.6325
 17.9803  23.727
 18.0033  23.9265
 18.0263  24.1263
 18.0493  24.6059
 18.0723  25.1402
 18.0953  25.6378
 18.1183  25.5824
 18.1413  25.1071
 18.1643  24.4561
 18.1872  24.0591
 18.2103  23.822
 18.2333  23.579
 18.2563  23.4762
 18.2793  23.4397
 18.3023  23.4326
 18.3253  23.3817
 18.3483  23.3921
 18.3712  23.3916
 18.3943  23.4556
 18.4173  23.5472
 18.4402  23.4571
 18.4633  23.3974
 18.4863  23.3692
 18.5093  23.309
 18.5323  23.3376
 18.5553  23.3819
 18.5783  23.4307
 18.6013  23.4206
 18.6242  23.39
 18.6473  23.3661
 18.6703  23.3551
 18.6933  23.3957
 18.7163  23.3532
 18.7392  23.2995
 18.7623  23.3004
 18.7853  23.2868
 18.8083  23.4014
 18.8313  23.3531
 18.8543  23.2722
 18.8773  23.2214
 18.9003  23.2843
 18.9232  23.397
 18.9463  23.512
 18.9693  23.4723
 18.9922  23.4655
 19.0153  23.3434
 19.0383  23.2689
 19.0613  23.2892
 19.0843  23.2915
 19.1073  23.2429
 19.1303  23.3338
 19.1533  23.3901
 19.1762  23.3013
 19.1993  23.3026
 19.2223  23.3389
 19.2453  23.2393
 19.2683  23.3372
 19.2913  23.3666
 19.3143  23.3867
 19.3373  23.3239
 19.3603  23.3405
 19.3833  23.4101
 19.4062  23.4081
 19.4293  23.4017
 19.4523  23.3802
 19.4752  23.4581
 19.4983  23.5255
 19.5213  23.5325
 19.5443  23.5888
 19.5673  23.6104
 19.5903  23.6691
 19.6133  23.7419
 19.6363  23.935
 19.6593  24.4525
 19.6823  25.1674
 19.7053  26.0276
 19.7283  26.5084
 19.7513  26.2175
 19.7742  25.6441
 19.7973  25.253
 19.8203  25.3941
 19.8433  25.9577
 19.8663  26.5632
 19.8893  27.1106
 19.9123  26.6196
 19.9353  25.1709
 19.9582  24.1177
 19.9813  23.7463
 20.0043  23.6694
 20.0272  23.6319
 20.0503  23.6254
 20.0733  23.5651
 20.0963  23.4781
 20.1193  23.5281
 20.1423  23.5043
 20.1653  23.5091
 20.1883  23.4072
 20.2112  23.4987
 20.2343  23.5376
 20.2573  23.4937
 20.2803  23.433
 20.3033  23.4654
 20.3263  23.4255
 20.3493  23.467
 20.3723  23.4451
 20.3953  23.4679
 20.4183  23.5561
 20.4413  23.5237
 20.4643  23.4425
 20.4873  23.4716
 20.5102  23.5051
 20.5333  23.4764
 20.5563  23.5871
 20.5792  23.6744
 20.6023  23.7629
 20.6253  23.7523
 20.6483  23.7872
 20.6713  23.8962
 20.6943  24.1515
 20.7173  24.6516
 20.7403  25.2947
 20.7632  25.7194
 20.7863  25.3665
 20.8093  24.7562
 20.8323  24.2021
 20.8553  23.9322
 20.8783  23.8675
 20.9013  23.8324
 20.9243  23.7404
 20.9473  23.7068
 20.9703  23.7003
 20.9933  23.7062
 21.0163  23.7239
 21.0393  23.7456
 21.0622  23.804
 21.0853  23.9007
 21.1083  23.8935
 21.1313  23.8439
 21.1543  23.6986
 21.1773  23.7427
 21.2003  23.7819
 21.2233  23.7557
 21.2462  23.726
 21.2693  23.7082
 21.2923  23.6784
 21.3152  23.6913
 21.3383  23.7359
 21.3613  23.7963
 21.3843  23.8101
 21.4073  23.782
 21.4303  23.7765
 21.4533  23.8093
 21.4763  23.8288
 21.4992  23.8227
 21.5223  23.8244
 21.5453  23.867
 21.5683  23.8067
 21.5913  23.8732
 21.6142  23.9631
 21.6373  24.0108
 21.6603  24.0048
 21.6833  23.9321
 21.7063  23.871
 21.7293  23.8449
 21.7523  23.8666
 21.7753  23.8807
 21.7982  23.9656
 21.8213  24.0194
 21.8443  24.0727
 21.8672  24.0427
 21.8903  24.0514
 21.9133  23.9841
 21.9363  23.9732
 21.9593  23.8644
 21.9823  23.93
 22.0053  23.9733
 22.0283  24.0262
 22.0512  24.0586
 22.0743  24.0428
 22.0973  24.0022
 22.1203  24.0792
 22.1433  24.1295
 22.1663  24.1935
 22.1893  24.1577
 22.2123  24.1719
 22.2353  24.201
 22.2583  24.2314
 22.2813  24.2543
 22.3043  24.2946
 22.3273  24.2889
 22.3502  24.3332
 22.3733  24.2768
 22.3963  24.2248
 22.4193  24.2852
 22.4423  24.3896
 22.4653  24.5077
 22.4883  24.5042
 22.5113  24.6466
 22.5343  24.6176
 22.5573  24.5262
 22.5803  24.562
 22.6033  24.6861
 22.6263  24.7085
 22.6493  24.6746
 22.6723  24.6853
 22.6953  24.8118
 22.7183  24.9106
 22.7413  25.003
 22.7643  25.1335
 22.7873  25.0404
 22.8103  25.0933
 22.8333  25.2201
 22.8563  25.3231
 22.8793  25.3831
 22.9022  25.5185
 22.9253  25.664
 22.9483  25.7173
 22.9713  25.8238
 22.9943  26.049