File: test-data-xrd/xrd-map-34-ID-E/Data_0094.chi
F:\20151113_APS_34IDE\\Brian\Particle1\OCV\Data_0094.tif
2-Theta Angle (Degrees)
Intensity
       2000
 0.01725  0.0000000E+00
 0.04025  0.0000000E+00
 0.06325  0.0000000E+00
 0.08625  0.0000000E+00
 0.10925  0.0000000E+00
 0.13225  0.0000000E+00
 0.15525  0.0000000E+00
 0.17825  0.0000000E+00
 0.20125  0.0000000E+00
 0.22425  0.0000000E+00
 0.24725  0.0000000E+00
 0.27025  0.0000000E+00
 0.29325  0.0000000E+00
 0.31625  0.0000000E+00
 0.33925  0.0000000E+00
 0.36225  0.0000000E+00
 0.38525  0.0000000E+00
 0.40825  0.0000000E+00
 0.43125  0.0000000E+00
 0.45425  0.0000000E+00
 0.47725  0.0000000E+00
 0.50025  0.0000000E+00
 0.52325  0.0000000E+00
 0.54625  0.0000000E+00
 0.56925  0.0000000E+00
 0.59225  0.0000000E+00
 0.61525  0.0000000E+00
 0.63825  0.0000000E+00
 0.66125  0.0000000E+00
 0.68425  0.0000000E+00
 0.70725  0.0000000E+00
 0.73025  0.0000000E+00
 0.75325  0.0000000E+00
 0.77625  0.0000000E+00
 0.79925  0.0000000E+00
 0.82225  0.0000000E+00
 0.84525  0.0000000E+00
 0.86825  0.0000000E+00
 0.89125  0.0000000E+00
 0.91425  0.0000000E+00
 0.93725  0.0000000E+00
 0.96025  0.0000000E+00
 0.98325  0.0000000E+00
 1.00625  0.0000000E+00
 1.02925  0.0000000E+00
 1.05225  0.0000000E+00
 1.07525  0.0000000E+00
 1.09825  0.0000000E+00
 1.12125  0.0000000E+00
 1.14425  0.0000000E+00
 1.16725  0.0000000E+00
 1.19025  0.0000000E+00
 1.21325  0.0000000E+00
 1.23625  0.0000000E+00
 1.25925  0.0000000E+00
 1.28225  0.0000000E+00
 1.30525  0.0000000E+00
 1.32825  0.0000000E+00
 1.35125  0.0000000E+00
 1.37425  0.0000000E+00
 1.39725  0.0000000E+00
 1.42025  0.0000000E+00
 1.44325  0.0000000E+00
 1.46625  0.0000000E+00
 1.48925  0.0000000E+00
 1.51225  0.0000000E+00
 1.53525  0.0000000E+00
 1.55825  0.0000000E+00
 1.58125  0.0000000E+00
 1.60425  0.0000000E+00
 1.62725  0.0000000E+00
 1.65025  0.0000000E+00
 1.67325  0.0000000E+00
 1.69625  0.0000000E+00
 1.71925  0.0000000E+00
 1.74225  0.0000000E+00
 1.76525  0.0000000E+00
 1.78825  0.0000000E+00
 1.81125  0.0000000E+00
 1.83425  0.0000000E+00
 1.85725  0.0000000E+00
 1.88025  0.0000000E+00
 1.90325  0.0000000E+00
 1.92625  0.0000000E+00
 1.94925  0.0000000E+00
 1.97225  0.0000000E+00
 1.99525  0.0000000E+00
 2.01825  0.0000000E+00
 2.04125  0.0000000E+00
 2.06425  0.0000000E+00
 2.08725  0.0000000E+00
 2.11025  0.0000000E+00
 2.13325  0.0000000E+00
 2.15625  0.0000000E+00
 2.17925  0.0000000E+00
 2.20225  0.0000000E+00
 2.22525  0.0000000E+00
 2.24825  0.0000000E+00
 2.27125  0.0000000E+00
 2.29425  0.0000000E+00
 2.31725  0.0000000E+00
 2.34025  0.0000000E+00
 2.36325  0.0000000E+00
 2.38625  0.0000000E+00
 2.40925  0.0000000E+00
 2.43225  0.0000000E+00
 2.45525  0.0000000E+00
 2.47825  0.0000000E+00
 2.50125  0.0000000E+00
 2.52425  0.0000000E+00
 2.54725  0.0000000E+00
 2.57025  0.0000000E+00
 2.59325  0.0000000E+00
 2.61625  0.0000000E+00
 2.63925  0.0000000E+00
 2.66225  0.0000000E+00
 2.68525  0.0000000E+00
 2.70825  0.0000000E+00
 2.73125  0.0000000E+00
 2.75425  0.0000000E+00
 2.77725  0.0000000E+00
 2.80025  0.0000000E+00
 2.82325  34.1925
 2.84625  34.4582
 2.86925  34.1092
 2.89225  35.0219
 2.91525  35.9612
 2.93825  36.2565
 2.96125  36.8807
 2.98425  36.3767
 3.00725  35.6517
 3.03025  35.1785
 3.05325  34.6955
 3.07625  34.3539
 3.09925  34.4939
 3.12225  34.8967
 3.14525  35.135
 3.16825  35.1518
 3.19125  35.226
 3.21425  35.5146
 3.23725  35.7842
 3.26025  35.7951
 3.28325  35.9052
 3.30625  35.5338
 3.32925  34.6243
 3.35225  34.5716
 3.37525  34.3475
 3.39825  34.1624
 3.42125  33.7597
 3.44425  33.8088
 3.46725  34.2326
 3.49025  34.1056
 3.51325  33.6682
 3.53625  33.8222
 3.55925  34.0045
 3.58225  33.9065
 3.60525  33.453
 3.62825  33.092
 3.65125  33.3968
 3.67425  33.5551
 3.69725  33.6448
 3.72025  33.4514
 3.74325  33.1668
 3.76625  33.2675
 3.78925  33.1028
 3.81225  32.4574
 3.83525  32.4321
 3.85825  32.4499
 3.88125  32.5234
 3.90425  32.9722
 3.92725  33.2988
 3.95025  33.3878
 3.97325  33.2592
 3.99625  33.0183
 4.01925  32.7668
 4.04225  32.681
 4.06525  32.6508
 4.08825  32.4105
 4.11125  32.5655
 4.13425  32.844
 4.15725  32.8108
 4.18025  32.5141
 4.20325  32.3345
 4.22625  32.3714
 4.24925  32.57
 4.27225  32.5534
 4.29525  32.5072
 4.31825  32.4617
 4.34125  32.2956
 4.36425  32.2382
 4.38725  32.1578
 4.41025  32.2204
 4.43325  32.4189
 4.45625  32.6581
 4.47925  32.8092
 4.50225  32.6312
 4.52525  32.5384
 4.54825  32.6803
 4.57125  32.9379
 4.59425  32.839
 4.61725  32.9303
 4.64025  32.955
 4.66325  32.9835
 4.68625  32.8073
 4.70925  32.7243
 4.73225  32.5432
 4.75525  32.3726
 4.77825  32.2864
 4.80125  32.3328
 4.82425  32.5517
 4.84725  32.6506
 4.87025  32.8448
 4.89325  32.8995
 4.91625  32.991
 4.93925  33.0844
 4.96225  33.0189
 4.98525  33.2185
 5.00825  33.4419
 5.03125  33.594
 5.05425  33.6119
 5.07725  33.7039
 5.10025  33.8496
 5.12325  33.8414
 5.14625  33.9498
 5.16925  33.9007
 5.19225  33.7142
 5.21525  33.7103
 5.23825  33.9003
 5.26125  34.1402
 5.28425  34.3232
 5.30725  34.4167
 5.33025  34.3155
 5.35325  34.3624
 5.37625  34.363
 5.39925  34.6049
 5.42225  34.5756
 5.44525  34.5972
 5.46825  34.6634
 5.49125  34.5783
 5.51425  34.6856
 5.53725  34.9152
 5.56025  35.0167
 5.58325  35.1477
 5.60625  35.2269
 5.62925  35.287
 5.65225  35.4806
 5.67525  35.7562
 5.69825  35.7091
 5.72125  35.6079
 5.74425  35.593
 5.76725  35.743
 5.79025  35.9648
 5.81325  35.7991
 5.83625  36.0242
 5.85925  36.3304
 5.88225  36.9256
 5.90525  37.8165
 5.92825  40.663
 5.95125  52.0902
 5.97425  59.2473
 5.99725  56.6488
 6.02025  45.8713
 6.04325  40.4188
 6.06625  38.3682
 6.08925  37.7976
 6.11225  37.696
 6.13525  37.5387
 6.15825  37.3447
 6.18125  37.3898
 6.20425  37.5379
 6.22725  37.692
 6.25025  37.7981
 6.27325  38.2047
 6.29625  38.3149
 6.31925  38.2891
 6.34225  38.274
 6.36525  38.2237
 6.38825  38.5067
 6.41125  38.7198
 6.43425  38.9064
 6.45725  39.1093
 6.48025  39.1636
 6.50325  39.4598
 6.52625  39.4358
 6.54925  39.5496
 6.57225  39.694
 6.59525  39.7215
 6.61825  39.8099
 6.64125  39.8661
 6.66425  40.1068
 6.68725  40.2113
 6.71025  40.468
 6.73325  40.7518
 6.75625  40.9959
 6.77925  41.2723
 6.80225  41.3494
 6.82525  41.4987
 6.84825  41.6758
 6.87125  41.6546
 6.89425  41.7462
 6.91725  41.906
 6.94025  42.0159
 6.96325  42.2269
 6.98625  42.4059
 7.00925  42.5317
 7.03225  42.6088
 7.05525  42.6328
 7.07825  42.7168
 7.10125  42.8852
 7.12425  43.2707
 7.14725  43.3473
 7.17025  43.3929
 7.19325  43.408
 7.21625  43.5938
 7.23925  43.728
 7.26225  43.6745
 7.28525  43.6286
 7.30825  43.7362
 7.33125  43.9863
 7.35425  44.0191
 7.37725  43.9548
 7.40025  44.1961
 7.42325  44.397
 7.44625  44.4581
 7.46925  44.4768
 7.49225  44.474
 7.51525  44.5698
 7.53825  44.4536
 7.56125  44.3232
 7.58425  44.3122
 7.60725  44.5617
 7.63025  44.6875
 7.65325  44.7268
 7.67625  44.6065
 7.69925  44.6078
 7.72225  44.65
 7.74525  44.6733
 7.76825  44.5176
 7.79125  44.5787
 7.81425  44.6136
 7.83725  44.622
 7.86025  44.3605
 7.88325  44.0745
 7.90625  43.8774
 7.92925  43.9051
 7.95225  43.9271
 7.97525  43.6973
 7.99825  43.5988
 8.02125  43.5658
 8.04425  43.4679
 8.06725  43.335
 8.09025  43.1086
 8.11325  43.0493
 8.13625  43.0116
 8.15925  42.8426
 8.18225  42.5843
 8.20525  42.2576
 8.22825  41.8966
 8.25125  41.6416
 8.27425  41.4092
 8.29725  41.1729
 8.32025  40.77
 8.34325  40.4216
 8.36625  40.0762
 8.38925  39.7072
 8.41225  39.4868
 8.43525  39.1484
 8.45825  38.9649
 8.48125  38.7041
 8.50425  38.2084
 8.52725  37.7672
 8.55025  37.3852
 8.57325  37.1142
 8.59625  36.7392
 8.61925  36.3652
 8.64225  36.0238
 8.66525  35.5013
 8.68825  35.1477
 8.71125  34.7283
 8.73425  34.234
 8.75725  33.8766
 8.78025  33.8329
 8.80325  33.5098
 8.82625  33.1496
 8.84925  32.8272
 8.87225  32.5323
 8.89525  32.3177
 8.91825  31.9875
 8.94125  31.6511
 8.96425  31.3404
 8.98725  30.9998
 9.01025  30.6661
 9.03325  30.3408
 9.05625  30.0324
 9.07925  29.6831
 9.10225  29.3676
 9.12525  29.0952
 9.14825  28.9935
 9.17125  28.877
 9.19425  28.751
 9.21725  28.5902
 9.24025  28.4091
 9.26325  28.1348
 9.28625  27.8874
 9.30925  27.6507
 9.33225  27.4292
 9.35525  27.2144
 9.37825  27.1273
 9.40125  27.0298
 9.42425  26.8205
 9.44725  26.6467
 9.47025  26.498
 9.49325  26.3682
 9.51625  26.1077
 9.53925  26.05
 9.56225  26.0282
 9.58525  25.9686
 9.60825  25.9069
 9.63125  25.801
 9.65425  25.6547
 9.67725  25.5029
 9.70025  25.3322
 9.72325  25.3531
 9.74625  25.3601
 9.76925  25.2279
 9.79225  25.2194
 9.81525  25.2173
 9.83825  25.1348
 9.86125  25.0138
 9.88425  24.8796
 9.90725  24.7017
 9.93025  24.4423
 9.95325  24.268
 9.97625  24.3483
 9.99925  24.4256
 10.0222  24.4559
 10.0453  24.3414
 10.0683  24.2743
 10.0913  24.173
 10.1143  24.0628
 10.1373  23.9587
 10.1603  24.0212
 10.1832  24.0068
 10.2063  23.8886
 10.2293  23.8385
 10.2523  23.7125
 10.2752  23.6563
 10.2982  23.695
 10.3213  23.6938
 10.3443  23.6636
 10.3673  23.5603
 10.3902  23.5766
 10.4133  23.6062
 10.4363  23.4154
 10.4593  23.3572
 10.4823  23.3416
 10.5053  23.2571
 10.5283  23.1985
 10.5512  23.1452
 10.5742  23.1626
 10.5973  23.1976
 10.6203  23.2454
 10.6433  23.1804
 10.6662  23.0972
 10.6893  22.9844
 10.7123  23.0319
 10.7353  23.0375
 10.7583  22.9606
 10.7813  22.9941
 10.8043  23.0546
 10.8272  23.0471
 10.8503  22.985
 10.8733  23.0037
 10.8963  22.9244
 10.9192  22.9033
 10.9422  22.8166
 10.9653  22.7231
 10.9883  22.686
 11.0113  22.6223
 11.0343  22.6435
 11.0573  22.5848
 11.0803  22.6957
 11.1033  22.7713
 11.1263  22.8257
 11.1493  22.8281
 11.1723  22.7593
 11.1953  22.7091
 11.2182  22.6497
 11.2413  22.5065
 11.2643  22.4058
 11.2873  22.4689
 11.3102  22.6507
 11.3333  22.7151
 11.3563  22.5869
 11.3793  22.5392
 11.4023  22.8151
 11.4253  22.9663
 11.4483  23.08
 11.4713  23.2728
 11.4942  23.435
 11.5173  24.0726
 11.5403  26.14
 11.5633  29.7453
 11.5862  32.0705
 11.6093  30.6792
 11.6323  27.4682
 11.6553  24.9246
 11.6783  23.5334
 11.7013  23.036
 11.7243  22.798
 11.7473  22.6788
 11.7703  22.6427
 11.7933  22.7031
 11.8163  22.7043
 11.8393  22.5887
 11.8622  22.5409
 11.8853  22.6252
 11.9083  22.7906
 11.9313  23.2875
 11.9543  24.2063
 11.9773  25.2144
 12.0003  25.626
 12.0233  24.9042
 12.0463  24.4752
 12.0693  25.4645
 12.0923  26.4625
 12.1153  25.7197
 12.1382  24.3048
 12.1613  23.4193
 12.1843  22.9572
 12.2073  22.7329
 12.2302  22.7058
 12.2533  22.6854
 12.2763  22.6655
 12.2993  22.674
 12.3223  22.65
 12.3453  22.6089
 12.3683  22.6113
 12.3913  22.674
 12.4142  22.8058
 12.4373  22.8607
 12.4603  22.8547
 12.4833  22.934
 12.5062  22.8235
 12.5292  22.889
 12.5523  23.0509
 12.5753  22.9675
 12.5983  22.8905
 12.6212  23.0415
 12.6443  23.0816
 12.6673  23.1016
 12.6903  23.1491
 12.7133  23.1163
 12.7363  23.1519
 12.7593  23.1903
 12.7822  23.1757
 12.8052  23.2807
 12.8283  23.4982
 12.8513  23.6018
 12.8742  23.5502
 12.8972  23.5137
 12.9203  23.7023
 12.9433  23.8248
 12.9663  23.9415
 12.9893  24.0463
 13.0123  24.145
 13.0353  24.2358
 13.0582  24.3991
 13.0813  24.5608
 13.1043  24.8395
 13.1273  25.1464
 13.1502  25.3906
 13.1732  25.6182
 13.1963  25.8002
 13.2193  26.0663
 13.2423  26.3902
 13.2652  26.6835
 13.2883  26.9474
 13.3113  27.2624
 13.3343  27.4659
 13.3573  27.7728
 13.3803  28.0528
 13.4033  28.2957
 13.4262  28.6212
 13.4492  28.9426
 13.4723  29.1201
 13.4953  29.296
 13.5183  29.5476
 13.5412  29.7484
 13.5643  29.8545
 13.5873  29.9823
 13.6103  30.0934
 13.6333  30.1905
 13.6563  30.255
 13.6793  30.3253
 13.7022  30.2137
 13.7253  30.1431
 13.7483  30.2682
 13.7713  30.4456
 13.7942  30.628
 13.8172  30.9366
 13.8403  31.5181
 13.8633  33.1417
 13.8863  38.2735
 13.9093  51.6123
 13.9323  67.3497
 13.9553  75.1215
 13.9783  64.1128
 14.0013  49.0608
 14.0243  36.6961
 14.0473  31.5225
 14.0703  29.5469
 14.0932  28.7544
 14.1163  28.3053
 14.1393  28.0981
 14.1623  27.9288
 14.1852  27.5879
 14.2083  27.3005
 14.2313  27.1671
 14.2543  27.0573
 14.2773  26.8622
 14.3003  26.7134
 14.3233  26.5822
 14.3463  26.4531
 14.3692  26.3912
 14.3923  26.2863
 14.4153  26.1883
 14.4383  26.1441
 14.4612  26.0984
 14.4843  26.0127
 14.5073  25.9739
 14.5303  25.9451
 14.5533  25.9156
 14.5763  25.7774
 14.5993  25.5664
 14.6223  25.566
 14.6453  25.5615
 14.6683  25.4845
 14.6913  25.3894
 14.7143  25.361
 14.7372  25.3435
 14.7603  25.3179
 14.7833  25.3142
 14.8063  25.2371
 14.8293  25.2379
 14.8523  25.2054
 14.8753  25.1607
 14.8983  25.1455
 14.9213  25.0592
 14.9443  25.0698
 14.9673  25.0598
 14.9903  25.0554
 15.0132  25.1052
 15.0363  25.1848
 15.0593  25.2332
 15.0823  25.2297
 15.1052  25.418
 15.1283  26.0435
 15.1513  27.5472
 15.1743  29.1166
 15.1973  29.1173
 15.2203  28.0302
 15.2433  26.5345
 15.2663  25.5594
 15.2892  25.1967
 15.3123  25.02
 15.3353  24.8755
 15.3583  24.7722
 15.3812  24.7707
 15.4043  24.8398
 15.4273  24.7418
 15.4503  24.6814
 15.4733  24.6281
 15.4963  24.7258
 15.5193  24.7857
 15.5423  24.6292
 15.5653  24.5657
 15.5883  24.6576
 15.6113  24.739
 15.6343  24.744
 15.6572  24.7728
 15.6803  24.7227
 15.7033  24.6295
 15.7263  24.5948
 15.7492  24.6064
 15.7723  24.6697
 15.7953  24.7512
 15.8183  24.7793
 15.8413  24.7212
 15.8643  24.6932
 15.8873  24.737
 15.9103  24.7773
 15.9332  24.7784
 15.9563  24.746
 15.9793  24.752
 16.0023  24.7801
 16.0253  24.7184
 16.0482  24.6761
 16.0713  24.6219
 16.0943  24.7725
 16.1172  24.8335
 16.1403  24.8249
 16.1633  24.8471
 16.1863  24.9659
 16.2093  25.226
 16.2323  25.6179
 16.2553  26.0189
 16.2783  26.0323
 16.3012  25.472
 16.3243  25.0172
 16.3472  24.8402
 16.3703  24.7262
 16.3933  24.7557
 16.4163  24.8187
 16.4393  24.7998
 16.4623  24.7395
 16.4853  24.7528
 16.5083  24.7511
 16.5312  24.7177
 16.5543  24.7189
 16.5773  24.7321
 16.6002  24.7843
 16.6233  24.722
 16.6463  24.6539
 16.6693  24.6204
 16.6923  24.7436
 16.7153  24.7107
 16.7383  24.7432
 16.7613  24.8031
 16.7843  24.6271
 16.8073  24.5596
 16.8303  24.571
 16.8533  24.4919
 16.8763  24.5698
 16.8992  24.6433
 16.9223  24.6463
 16.9453  24.5545
 16.9683  24.4011
 16.9913  24.4186
 17.0143  24.4302
 17.0373  24.378
 17.0603  24.304
 17.0832  24.3979
 17.1063  24.4013
 17.1293  24.3774
 17.1522  24.3575
 17.1753  24.3694
 17.1983  24.4167
 17.2213  24.3188
 17.2443  24.158
 17.2673  24.1252
 17.2903  24.0687
 17.3133  24.0811
 17.3362  24.122
 17.3593  24.1385
 17.3823  24.1733
 17.4053  24.1695
 17.4283  24.1323
 17.4513  24.1203
 17.4743  24.1136
 17.4973  24.1613
 17.5203  24.0885
 17.5433  23.9935
 17.5663  23.9194
 17.5893  23.8809
 17.6123  23.9137
 17.6352  23.9361
 17.6583  23.8674
 17.6813  23.8277
 17.7042  23.9069
 17.7273  23.8481
 17.7503  23.9249
 17.7733  23.9806
 17.7963  24.0491
 17.8193  24.0259
 17.8423  24.0025
 17.8653  23.9069
 17.8882  23.883
 17.9113  23.916
 17.9343  24.0184
 17.9573  24.0456
 17.9803  24.1025
 18.0033  24.3372
 18.0263  24.626
 18.0493  24.8759
 18.0723  25.1652
 18.0953  25.6416
 18.1183  25.8726
 18.1413  25.5756
 18.1643  24.9193
 18.1872  24.2201
 18.2103  23.9193
 18.2333  23.7822
 18.2563  23.7807
 18.2793  23.7383
 18.3023  23.7211
 18.3253  23.7134
 18.3483  23.8149
 18.3712  23.8107
 18.3943  23.7742
 18.4173  23.8755
 18.4402  23.8377
 18.4633  23.724
 18.4863  23.7561
 18.5093  23.7324
 18.5323  23.6777
 18.5553  23.6745
 18.5783  23.6381
 18.6013  23.6668
 18.6242  23.7212
 18.6473  23.6779
 18.6703  23.6194
 18.6933  23.6595
 18.7163  23.6381
 18.7392  23.6915
 18.7623  23.6466
 18.7853  23.6657
 18.8083  23.6512
 18.8313  23.6546
 18.8543  23.5943
 18.8773  23.4962
 18.9003  23.5659
 18.9232  23.6168
 18.9463  23.7056
 18.9693  23.6271
 18.9922  23.5492
 19.0153  23.6115
 19.0383  23.7763
 19.0613  23.7758
 19.0843  23.7919
 19.1073  23.6357
 19.1303  23.6097
 19.1533  23.7321
 19.1762  23.6853
 19.1993  23.6745
 19.2223  23.6961
 19.2453  23.6872
 19.2683  23.6898
 19.2913  23.7174
 19.3143  23.6991
 19.3373  23.741
 19.3603  23.8925
 19.3833  24.0134
 19.4062  23.8931
 19.4293  23.7284
 19.4523  23.6898
 19.4752  23.7522
 19.4983  23.8361
 19.5213  23.9659
 19.5443  24.0523
 19.5673  23.9308
 19.5903  24.073
 19.6133  24.3378
 19.6363  24.7046
 19.6593  25.6888
 19.6823  27.4182
 19.7053  29.2116
 19.7283  29.5179
 19.7513  28.3343
 19.7742  26.8193
 19.7973  26.2186
 19.8203  26.8267
 19.8433  27.8812
 19.8663  28.2549
 19.8893  27.5905
 19.9123  26.1893
 19.9353  24.9338
 19.9582  24.34
 19.9813  24.1868
 20.0043  24.0752
 20.0272  24.0345
 20.0503  24.0439
 20.0733  23.9457
 20.0963  23.8451
 20.1193  23.8278
 20.1423  23.8056
 20.1653  23.8535
 20.1883  23.8886
 20.2112  23.9252
 20.2343  23.9802
 20.2573  23.9569
 20.2803  23.9432
 20.3033  23.9385
 20.3263  24.0202
 20.3493  24.0755
 20.3723  23.9615
 20.3953  23.8877
 20.4183  23.9301
 20.4413  23.8563
 20.4643  23.8579
 20.4873  23.956
 20.5102  23.9583
 20.5333  23.9161
 20.5563  24.004
 20.5792  24.0218
 20.6023  24.0948
 20.6253  24.1043
 20.6483  24.1322
 20.6713  24.262
 20.6943  24.6754
 20.7173  25.4451
 20.7403  26.621
 20.7632  27.5354
 20.7863  27.33
 20.8093  26.2094
 20.8323  25.0307
 20.8553  24.4397
 20.8783  24.1965
 20.9013  24.2001
 20.9243  24.1652
 20.9473  24.1324
 20.9703  24.0559
 20.9933  24.0154
 21.0163  24.0591
 21.0393  24.0691
 21.0622  24.0253
 21.0853  23.9857
 21.1083  24.0154
 21.1313  24.0468
 21.1543  23.9572
 21.1773  23.944
 21.2003  23.9615
 21.2233  23.982
 21.2462  23.9967
 21.2693  23.9841
 21.2923  24.0313
 21.3152  24.0346
 21.3383  24.0992
 21.3613  24.1695
 21.3843  24.1212
 21.4073  24.0776
 21.4303  24.1109
 21.4533  24.0764
 21.4763  24.1234
 21.4992  24.1619
 21.5223  24.1344
 21.5453  24.1111
 21.5683  24.0505
 21.5913  24.1295
 21.6142  24.1888
 21.6373  24.1706
 21.6603  24.262
 21.6833  24.2803
 21.7063  24.2295
 21.7293  24.2987
 21.7523  24.3479
 21.7753  24.2975
 21.7982  24.244
 21.8213  24.3433
 21.8443  24.3955
 21.8672  24.3886
 21.8903  24.4263
 21.9133  24.425
 21.9363  24.4547
 21.9593  24.3831
 21.9823  24.2891
 22.0053  24.2808
 22.0283  24.3178
 22.0512  24.3118
 22.0743  24.3293
 22.0973  24.4258
 22.1203  24.5127
 22.1433  24.5297
 22.1663  24.5091
 22.1893  24.61
 22.2123  24.5722
 22.2353  24.5645
 22.2583  24.5618
 22.2813  24.6196
 22.3043  24.6601
 22.3273  24.6536
 22.3502  24.8188
 22.3733  24.8058
 22.3963  24.6635
 22.4193  24.6209
 22.4423  24.6723
 22.4653  24.7111
 22.4883  24.676
 22.5113  24.7386
 22.5343  24.7492
 22.5573  24.7796
 22.5803  24.8161
 22.6033  24.9042
 22.6263  25.0138
 22.6493  25.0744
 22.6723  25.0907
 22.6953  25.1894
 22.7183  25.1575
 22.7413  25.1935
 22.7643  25.2346
 22.7873  25.3314
 22.8103  25.5063
 22.8333  25.5928
 22.8563  25.6758
 22.8793  25.751
 22.9022  25.984
 22.9253  26.2041
 22.9483  26.276
 22.9713  26.5973
 22.9943  26.9114