File: test-data-xrd/xrd-map-34-ID-E/Data_0118.chi
F:\20151113_APS_34IDE\\Brian\Particle1\OCV\Data_0118.tif
2-Theta Angle (Degrees)
Intensity
       2000
 0.01725  0.0000000E+00
 0.04025  0.0000000E+00
 0.06325  0.0000000E+00
 0.08625  0.0000000E+00
 0.10925  0.0000000E+00
 0.13225  0.0000000E+00
 0.15525  0.0000000E+00
 0.17825  0.0000000E+00
 0.20125  0.0000000E+00
 0.22425  0.0000000E+00
 0.24725  0.0000000E+00
 0.27025  0.0000000E+00
 0.29325  0.0000000E+00
 0.31625  0.0000000E+00
 0.33925  0.0000000E+00
 0.36225  0.0000000E+00
 0.38525  0.0000000E+00
 0.40825  0.0000000E+00
 0.43125  0.0000000E+00
 0.45425  0.0000000E+00
 0.47725  0.0000000E+00
 0.50025  0.0000000E+00
 0.52325  0.0000000E+00
 0.54625  0.0000000E+00
 0.56925  0.0000000E+00
 0.59225  0.0000000E+00
 0.61525  0.0000000E+00
 0.63825  0.0000000E+00
 0.66125  0.0000000E+00
 0.68425  0.0000000E+00
 0.70725  0.0000000E+00
 0.73025  0.0000000E+00
 0.75325  0.0000000E+00
 0.77625  0.0000000E+00
 0.79925  0.0000000E+00
 0.82225  0.0000000E+00
 0.84525  0.0000000E+00
 0.86825  0.0000000E+00
 0.89125  0.0000000E+00
 0.91425  0.0000000E+00
 0.93725  0.0000000E+00
 0.96025  0.0000000E+00
 0.98325  0.0000000E+00
 1.00625  0.0000000E+00
 1.02925  0.0000000E+00
 1.05225  0.0000000E+00
 1.07525  0.0000000E+00
 1.09825  0.0000000E+00
 1.12125  0.0000000E+00
 1.14425  0.0000000E+00
 1.16725  0.0000000E+00
 1.19025  0.0000000E+00
 1.21325  0.0000000E+00
 1.23625  0.0000000E+00
 1.25925  0.0000000E+00
 1.28225  0.0000000E+00
 1.30525  0.0000000E+00
 1.32825  0.0000000E+00
 1.35125  0.0000000E+00
 1.37425  0.0000000E+00
 1.39725  0.0000000E+00
 1.42025  0.0000000E+00
 1.44325  0.0000000E+00
 1.46625  0.0000000E+00
 1.48925  0.0000000E+00
 1.51225  0.0000000E+00
 1.53525  0.0000000E+00
 1.55825  0.0000000E+00
 1.58125  0.0000000E+00
 1.60425  0.0000000E+00
 1.62725  0.0000000E+00
 1.65025  0.0000000E+00
 1.67325  0.0000000E+00
 1.69625  0.0000000E+00
 1.71925  0.0000000E+00
 1.74225  0.0000000E+00
 1.76525  0.0000000E+00
 1.78825  0.0000000E+00
 1.81125  0.0000000E+00
 1.83425  0.0000000E+00
 1.85725  0.0000000E+00
 1.88025  0.0000000E+00
 1.90325  0.0000000E+00
 1.92625  0.0000000E+00
 1.94925  0.0000000E+00
 1.97225  0.0000000E+00
 1.99525  0.0000000E+00
 2.01825  0.0000000E+00
 2.04125  0.0000000E+00
 2.06425  0.0000000E+00
 2.08725  0.0000000E+00
 2.11025  0.0000000E+00
 2.13325  0.0000000E+00
 2.15625  0.0000000E+00
 2.17925  0.0000000E+00
 2.20225  0.0000000E+00
 2.22525  0.0000000E+00
 2.24825  0.0000000E+00
 2.27125  0.0000000E+00
 2.29425  0.0000000E+00
 2.31725  0.0000000E+00
 2.34025  0.0000000E+00
 2.36325  0.0000000E+00
 2.38625  0.0000000E+00
 2.40925  0.0000000E+00
 2.43225  0.0000000E+00
 2.45525  0.0000000E+00
 2.47825  0.0000000E+00
 2.50125  0.0000000E+00
 2.52425  0.0000000E+00
 2.54725  0.0000000E+00
 2.57025  0.0000000E+00
 2.59325  0.0000000E+00
 2.61625  0.0000000E+00
 2.63925  0.0000000E+00
 2.66225  0.0000000E+00
 2.68525  0.0000000E+00
 2.70825  0.0000000E+00
 2.73125  0.0000000E+00
 2.75425  0.0000000E+00
 2.77725  0.0000000E+00
 2.80025  0.0000000E+00
 2.82325  33.4741
 2.84625  31.5753
 2.86925  32.6586
 2.89225  34.3554
 2.91525  35.033
 2.93825  35.4816
 2.96125  35.5582
 2.98425  35.7495
 3.00725  36.1625
 3.03025  36.0296
 3.05325  36.4094
 3.07625  36.1367
 3.09925  35.5499
 3.12225  34.5246
 3.14525  34.7156
 3.16825  35.049
 3.19125  34.8357
 3.21425  34.3073
 3.23725  34.1648
 3.26025  34.213
 3.28325  34.2991
 3.30625  33.9672
 3.32925  33.9396
 3.35225  34.2318
 3.37525  34.4969
 3.39825  34.357
 3.42125  34.0847
 3.44425  34.1195
 3.46725  34.2922
 3.49025  34.4733
 3.51325  34.0255
 3.53625  33.5062
 3.55925  33.2796
 3.58225  33.0057
 3.60525  32.8574
 3.62825  32.9123
 3.65125  33.1008
 3.67425  33.2973
 3.69725  33.1289
 3.72025  32.8016
 3.74325  33.0919
 3.76625  33.3178
 3.78925  32.7528
 3.81225  32.3214
 3.83525  32.149
 3.85825  32.1733
 3.88125  32.4415
 3.90425  32.6519
 3.92725  33.046
 3.95025  32.9128
 3.97325  32.6782
 3.99625  32.5152
 4.01925  32.1777
 4.04225  32.0494
 4.06525  32.1879
 4.08825  32.192
 4.11125  32.0549
 4.13425  31.9225
 4.15725  31.9474
 4.18025  32.0634
 4.20325  32.2677
 4.22625  32.4229
 4.24925  32.3158
 4.27225  32.0487
 4.29525  31.8329
 4.31825  31.9152
 4.34125  31.8104
 4.36425  31.6808
 4.38725  31.6274
 4.41025  31.8107
 4.43325  31.8464
 4.45625  31.8971
 4.47925  31.9345
 4.50225  31.9252
 4.52525  32.1695
 4.54825  32.468
 4.57125  32.3427
 4.59425  32.3606
 4.61725  32.4334
 4.64025  32.7689
 4.66325  32.8796
 4.68625  32.7331
 4.70925  32.6045
 4.73225  32.3963
 4.75525  32.2258
 4.77825  32.2473
 4.80125  32.2495
 4.82425  32.1952
 4.84725  32.2123
 4.87025  32.2707
 4.89325  32.3186
 4.91625  32.5485
 4.93925  32.6436
 4.96225  32.646
 4.98525  32.6849
 5.00825  32.8864
 5.03125  33.2026
 5.05425  33.2894
 5.07725  33.4158
 5.10025  33.2837
 5.12325  33.3268
 5.14625  33.6771
 5.16925  33.7676
 5.19225  33.7708
 5.21525  33.7353
 5.23825  33.75
 5.26125  33.7947
 5.28425  33.7596
 5.30725  33.7769
 5.33025  33.69
 5.35325  33.7492
 5.37625  33.9721
 5.39925  34.2062
 5.42225  34.0178
 5.44525  34.1188
 5.46825  34.2914
 5.49125  34.3992
 5.51425  34.1858
 5.53725  34.1258
 5.56025  34.091
 5.58325  34.1218
 5.60625  34.1697
 5.62925  34.4479
 5.65225  34.5597
 5.67525  34.6959
 5.69825  34.7504
 5.72125  35.1239
 5.74425  35.1994
 5.76725  35.1475
 5.79025  35.2086
 5.81325  35.2706
 5.83625  35.3151
 5.85925  35.2265
 5.88225  35.3627
 5.90525  35.8192
 5.92825  36.612
 5.95125  38.6275
 5.97425  41.0339
 5.99725  41.7752
 6.02025  40.0446
 6.04325  37.9295
 6.06625  36.7278
 6.08925  36.4293
 6.11225  36.4011
 6.13525  36.4049
 6.15825  36.3396
 6.18125  36.5625
 6.20425  36.6018
 6.22725  36.7414
 6.25025  36.8619
 6.27325  37.0568
 6.29625  37.1214
 6.31925  37.1008
 6.34225  37.42
 6.36525  37.7715
 6.38825  37.8753
 6.41125  38.018
 6.43425  38.1159
 6.45725  38.2401
 6.48025  38.2222
 6.50325  38.3993
 6.52625  38.5437
 6.54925  38.6322
 6.57225  38.7778
 6.59525  38.7748
 6.61825  38.7853
 6.64125  39.0861
 6.66425  39.447
 6.68725  39.589
 6.71025  39.7283
 6.73325  39.8437
 6.75625  39.9942
 6.77925  40.1554
 6.80225  40.3249
 6.82525  40.629
 6.84825  40.7691
 6.87125  40.869
 6.89425  41.0269
 6.91725  41.1832
 6.94025  41.1995
 6.96325  41.4676
 6.98625  41.7228
 7.00925  41.9564
 7.03225  41.9644
 7.05525  42.0436
 7.07825  41.9837
 7.10125  42.1819
 7.12425  42.5187
 7.14725  42.7165
 7.17025  42.8955
 7.19325  42.9222
 7.21625  43.0569
 7.23925  43.0937
 7.26225  43.2144
 7.28525  43.2805
 7.30825  43.2274
 7.33125  43.265
 7.35425  43.3869
 7.37725  43.6394
 7.40025  43.786
 7.42325  43.8007
 7.44625  43.7609
 7.46925  43.6368
 7.49225  43.6256
 7.51525  43.6887
 7.53825  43.5187
 7.56125  43.3499
 7.58425  43.4673
 7.60725  43.5958
 7.63025  43.7096
 7.65325  43.7717
 7.67625  43.7502
 7.69925  43.8524
 7.72225  43.9883
 7.74525  44.1384
 7.76825  44.1109
 7.79125  43.8776
 7.81425  43.7324
 7.83725  43.7333
 7.86025  43.6472
 7.88325  43.372
 7.90625  43.0856
 7.92925  43.0088
 7.95225  42.9149
 7.97525  42.872
 7.99825  42.8138
 8.02125  42.7307
 8.04425  42.5506
 8.06725  42.5403
 8.09025  42.3012
 8.11325  42.1491
 8.13625  41.8497
 8.15925  41.6744
 8.18225  41.5038
 8.20525  41.1767
 8.22825  40.8815
 8.25125  40.8006
 8.27425  40.5416
 8.29725  40.2605
 8.32025  40.0331
 8.34325  39.7554
 8.36625  39.5057
 8.38925  39.2213
 8.41225  38.9662
 8.43525  38.5215
 8.45825  38.1834
 8.48125  37.8312
 8.50425  37.4876
 8.52725  37.1385
 8.55025  36.824
 8.57325  36.3778
 8.59625  35.8867
 8.61925  35.4421
 8.64225  35.1439
 8.66525  34.8381
 8.68825  34.6014
 8.71125  34.3416
 8.73425  33.9188
 8.75725  33.4461
 8.78025  33.1727
 8.80325  32.6029
 8.82625  32.3006
 8.84925  32.1313
 8.87225  32.0155
 8.89525  31.7387
 8.91825  31.5144
 8.94125  31.2036
 8.96425  30.9433
 8.98725  30.545
 9.01025  30.0612
 9.03325  29.716
 9.05625  29.5273
 9.07925  29.3082
 9.10225  29.0026
 9.12525  28.8524
 9.14825  28.7015
 9.17125  28.5405
 9.19425  28.4417
 9.21725  28.2149
 9.24025  27.9492
 9.26325  27.8078
 9.28625  27.5956
 9.30925  27.3982
 9.33225  27.2593
 9.35525  27.0837
 9.37825  26.9199
 9.40125  26.8792
 9.42425  26.6865
 9.44725  26.5003
 9.47025  26.4408
 9.49325  26.4328
 9.51625  26.1517
 9.53925  25.7265
 9.56225  25.5512
 9.58525  25.3742
 9.60825  25.2908
 9.63125  25.221
 9.65425  25.0787
 9.67725  24.9807
 9.70025  24.8749
 9.72325  24.9082
 9.74625  24.8373
 9.76925  24.7085
 9.79225  24.5898
 9.81525  24.4979
 9.83825  24.4926
 9.86125  24.5029
 9.88425  24.4785
 9.90725  24.3752
 9.93025  24.3439
 9.95325  24.2911
 9.97625  24.2579
 9.99925  24.1887
 10.0222  23.9912
 10.0453  23.8543
 10.0683  23.7854
 10.0913  23.6704
 10.1143  23.526
 10.1373  23.4804
 10.1603  23.5302
 10.1832  23.4767
 10.2063  23.4435
 10.2293  23.3758
 10.2523  23.3206
 10.2752  23.2532
 10.2982  23.2209
 10.3213  23.1654
 10.3443  23.0435
 10.3673  22.9444
 10.3902  22.9672
 10.4133  23.0858
 10.4363  23.0534
 10.4593  22.9279
 10.4823  22.8179
 10.5053  22.819
 10.5283  22.7507
 10.5512  22.6892
 10.5742  22.6999
 10.5973  22.687
 10.6203  22.7535
 10.6433  22.8685
 10.6662  22.8359
 10.6893  22.697
 10.7123  22.6382
 10.7353  22.5323
 10.7583  22.3704
 10.7813  22.3673
 10.8043  22.4688
 10.8272  22.5481
 10.8503  22.5126
 10.8733  22.479
 10.8963  22.4452
 10.9192  22.5085
 10.9422  22.4123
 10.9653  22.2536
 10.9883  22.2487
 11.0113  22.2379
 11.0343  22.238
 11.0573  22.1249
 11.0803  22.1142
 11.1033  22.161
 11.1263  22.0642
 11.1493  22.0969
 11.1723  22.1548
 11.1953  22.0978
 11.2182  22.1419
 11.2413  22.1478
 11.2643  22.0904
 11.2873  21.9866
 11.3102  21.9333
 11.3333  21.9262
 11.3563  21.9277
 11.3793  22.0581
 11.4023  22.2517
 11.4253  22.2323
 11.4483  22.2583
 11.4713  22.3329
 11.4942  22.2506
 11.5173  22.2017
 11.5403  22.5139
 11.5633  23.0687
 11.5862  23.4887
 11.6093  23.4545
 11.6323  23.0403
 11.6553  22.5033
 11.6783  22.1187
 11.7013  22.0388
 11.7243  22.0307
 11.7473  21.9514
 11.7703  21.9814
 11.7933  22.0299
 11.8163  22.0439
 11.8393  21.9568
 11.8622  21.9614
 11.8853  21.9707
 11.9083  22.0724
 11.9313  22.2294
 11.9543  22.3602
 11.9773  22.3152
 12.0003  22.3198
 12.0233  22.3467
 12.0463  22.3864
 12.0693  22.3842
 12.0923  22.4541
 12.1153  22.4072
 12.1382  22.2335
 12.1613  22.1612
 12.1843  22.3961
 12.2073  22.4352
 12.2302  22.2533
 12.2533  22.1848
 12.2763  22.1327
 12.2993  22.0765
 12.3223  22.1506
 12.3453  22.1303
 12.3683  22.1469
 12.3913  22.2145
 12.4142  22.2087
 12.4373  22.1723
 12.4603  22.1756
 12.4833  22.2553
 12.5062  22.2798
 12.5292  22.2836
 12.5523  22.3705
 12.5753  22.437
 12.5983  22.3926
 12.6212  22.4432
 12.6443  22.4195
 12.6673  22.3571
 12.6903  22.4013
 12.7133  22.4465
 12.7363  22.4141
 12.7593  22.4208
 12.7822  22.4848
 12.8052  22.5848
 12.8283  22.6494
 12.8513  22.7551
 12.8742  22.8936
 12.8972  22.939
 12.9203  23.0136
 12.9433  23.1423
 12.9663  23.3491
 12.9893  23.4371
 13.0123  23.536
 13.0353  23.6149
 13.0582  23.7846
 13.0813  23.9395
 13.1043  24.2552
 13.1273  24.5416
 13.1502  24.7059
 13.1732  24.9473
 13.1963  25.1891
 13.2193  25.4979
 13.2423  25.8186
 13.2652  26.043
 13.2883  26.2963
 13.3113  26.5663
 13.3343  26.844
 13.3573  27.1214
 13.3803  27.5408
 13.4033  28.5209
 13.4262  28.4614
 13.4492  28.1962
 13.4723  28.396
 13.4953  28.6087
 13.5183  28.8127
 13.5412  28.994
 13.5643  29.0165
 13.5873  29.0168
 13.6103  29.1066
 13.6333  29.0754
 13.6563  29.0924
 13.6793  29.2167
 13.7022  29.1535
 13.7253  29.0947
 13.7483  29.0725
 13.7713  28.9523
 13.7942  28.8512
 13.8172  28.7006
 13.8403  28.6911
 13.8633  28.822
 13.8863  29.2399
 13.9093  30.246
 13.9323  31.6156
 13.9553  32.709
 13.9783  32.7569
 14.0013  31.3703
 14.0243  29.2216
 14.0473  27.8744
 14.0703  27.3847
 14.0932  27.0527
 14.1163  26.8359
 14.1393  26.7305
 14.1623  26.6749
 14.1852  26.459
 14.2083  26.2886
 14.2313  26.1604
 14.2543  26.0615
 14.2773  25.9735
 14.3003  25.8675
 14.3233  25.7921
 14.3463  25.8184
 14.3692  25.7876
 14.3923  25.6693
 14.4153  25.5531
 14.4383  25.4684
 14.4612  25.3545
 14.4843  25.1482
 14.5073  25.1071
 14.5303  25.0834
 14.5533  25.1263
 14.5763  25.1408
 14.5993  24.9757
 14.6223  24.9111
 14.6453  24.8502
 14.6683  24.7669
 14.6913  24.7769
 14.7143  24.7776
 14.7372  24.6938
 14.7603  24.5884
 14.7833  24.5729
 14.8063  24.6588
 14.8293  24.6478
 14.8523  24.6144
 14.8753  24.5001
 14.8983  24.5001
 14.9213  24.4294
 14.9443  24.411
 14.9673  24.3762
 14.9903  24.4309
 15.0132  24.5083
 15.0363  24.3842
 15.0593  24.2267
 15.0823  24.192
 15.1052  24.28
 15.1283  24.3154
 15.1513  24.5453
 15.1743  24.9368
 15.1973  25.111
 15.2203  25.0501
 15.2433  24.7758
 15.2663  24.4777
 15.2892  24.285
 15.3123  24.1427
 15.3353  24.1839
 15.3583  24.2479
 15.3812  24.1732
 15.4043  24.0496
 15.4273  23.9653
 15.4503  23.9961
 15.4733  24.0347
 15.4963  24.1635
 15.5193  24.1331
 15.5423  24.1521
 15.5653  24.1316
 15.5883  24.1371
 15.6113  24.026
 15.6343  23.9912
 15.6572  24.021
 15.6803  24.081
 15.7033  24.1408
 15.7263  24.1502
 15.7492  24.0776
 15.7723  24.055
 15.7953  24.0854
 15.8183  24.0698
 15.8413  24.0394
 15.8643  24.1022
 15.8873  24.1758
 15.9103  24.2091
 15.9332  24.1314
 15.9563  24.0367
 15.9793  24.1017
 16.0023  24.1613
 16.0253  24.2422
 16.0482  24.3481
 16.0713  24.3951
 16.0943  24.3976
 16.1172  24.4584
 16.1403  24.4361
 16.1633  24.5265
 16.1863  24.6186
 16.2093  24.7539
 16.2323  25.0333
 16.2553  25.2843
 16.2783  25.175
 16.3012  24.8577
 16.3243  24.5792
 16.3472  24.3562
 16.3703  24.3004
 16.3933  24.3253
 16.4163  24.3381
 16.4393  24.3838
 16.4623  24.3496
 16.4853  24.204
 16.5083  24.1918
 16.5312  24.2433
 16.5543  24.3124
 16.5773  24.3683
 16.6002  24.3358
 16.6233  24.308
 16.6463  24.2712
 16.6693  24.2364
 16.6923  24.2102
 16.7153  24.1358
 16.7383  24.0498
 16.7613  24.1105
 16.7843  24.0768
 16.8073  24.1024
 16.8303  24.1364
 16.8533  24.0074
 16.8763  23.9784
 16.8992  23.9979
 16.9223  23.9701
 16.9453  23.9561
 16.9683  23.9735
 16.9913  23.9301
 17.0143  23.8676
 17.0373  23.8185
 17.0603  23.6949
 17.0832  23.7641
 17.1063  23.7542
 17.1293  23.7929
 17.1522  23.6562
 17.1753  23.6029
 17.1983  23.5763
 17.2213  23.6337
 17.2443  23.7187
 17.2673  23.7527
 17.2903  23.7878
 17.3133  23.734
 17.3362  23.514
 17.3593  23.4806
 17.3823  23.5352
 17.4053  23.5696
 17.4283  23.5006
 17.4513  23.5107
 17.4743  23.4813
 17.4973  23.3879
 17.5203  23.35
 17.5433  23.394
 17.5663  23.3664
 17.5893  23.373
 17.6123  23.515
 17.6352  23.5046
 17.6583  23.3272
 17.6813  23.3507
 17.7042  23.5116
 17.7273  23.5385
 17.7503  23.4212
 17.7733  23.372
 17.7963  23.3672
 17.8193  23.3172
 17.8423  23.2055
 17.8653  23.2159
 17.8882  23.2633
 17.9113  23.2639
 17.9343  23.2456
 17.9573  23.3468
 17.9803  23.5438
 18.0033  23.485
 18.0263  23.4402
 18.0493  23.5256
 18.0723  23.5488
 18.0953  23.5907
 18.1183  23.5893
 18.1413  23.5187
 18.1643  23.327
 18.1872  23.1639
 18.2103  23.1958
 18.2333  23.2068
 18.2563  23.2225
 18.2793  23.2128
 18.3023  23.265
 18.3253  23.2571
 18.3483  23.1561
 18.3712  23.1886
 18.3943  23.2049
 18.4173  23.1984
 18.4402  23.1245
 18.4633  23.1049
 18.4863  23.0916
 18.5093  23.0068
 18.5323  23.0171
 18.5553  23.0048
 18.5783  23.0966
 18.6013  23.183
 18.6242  23.0755
 18.6473  23.0393
 18.6703  22.9854
 18.6933  23.0791
 18.7163  23.1115
 18.7392  23.152
 18.7623  23.1259
 18.7853  23.0905
 18.8083  23.0774
 18.8313  23.1495
 18.8543  23.0494
 18.8773  23.084
 18.9003  23.1435
 18.9232  23.215
 18.9463  23.204
 18.9693  23.0945
 18.9922  23.0587
 19.0153  23.1441
 19.0383  23.1883
 19.0613  23.197
 19.0843  23.1951
 19.1073  23.1506
 19.1303  23.2168
 19.1533  23.2255
 19.1762  23.226
 19.1993  23.1958
 19.2223  23.0982
 19.2453  23.0263
 19.2683  23.0901
 19.2913  23.1185
 19.3143  23.1542
 19.3373  23.1706
 19.3603  23.1453
 19.3833  23.1672
 19.4062  23.1158
 19.4293  23.1004
 19.4523  23.1011
 19.4752  23.1121
 19.4983  23.1511
 19.5213  23.19
 19.5443  23.2714
 19.5673  23.2247
 19.5903  23.2779
 19.6133  23.3658
 19.6363  23.3867
 19.6593  23.5819
 19.6823  23.8401
 19.7053  24.1694
 19.7283  24.1975
 19.7513  23.892
 19.7742  23.7573
 19.7973  24.0152
 19.8203  24.3773
 19.8433  24.6212
 19.8663  24.4952
 19.8893  24.1289
 19.9123  23.7247
 19.9353  23.375
 19.9582  23.2182
 19.9813  23.2268
 20.0043  23.2263
 20.0272  23.2046
 20.0503  23.2887
 20.0733  23.3232
 20.0963  23.2665
 20.1193  23.3133
 20.1423  23.2683
 20.1653  23.1925
 20.1883  23.1579
 20.2112  23.1914
 20.2343  23.2497
 20.2573  23.2233
 20.2803  23.2104
 20.3033  23.2659
 20.3263  23.2073
 20.3493  23.2336
 20.3723  23.1995
 20.3953  23.2103
 20.4183  23.2566
 20.4413  23.2975
 20.4643  23.3214
 20.4873  23.3306
 20.5102  23.3099
 20.5333  23.2386
 20.5563  23.3021
 20.5792  23.3369
 20.6023  23.44
 20.6253  23.4272
 20.6483  23.4611
 20.6713  23.5126
 20.6943  23.6372
 20.7173  23.9452
 20.7403  24.2287
 20.7632  24.3542
 20.7863  24.1879
 20.8093  23.9124
 20.8323  23.7534
 20.8553  23.6339
 20.8783  23.4914
 20.9013  23.513
 20.9243  23.4797
 20.9473  23.4621
 20.9703  23.4132
 20.9933  23.4122
 21.0163  23.3965
 21.0393  23.4255
 21.0622  23.4171
 21.0853  23.4262
 21.1083  23.3761
 21.1313  23.4341
 21.1543  23.3753
 21.1773  23.4553
 21.2003  23.4924
 21.2233  23.4172
 21.2462  23.4144
 21.2693  23.4794
 21.2923  23.5168
 21.3152  23.4271
 21.3383  23.4575
 21.3613  23.5213
 21.3843  23.4566
 21.4073  23.3989
 21.4303  23.4741
 21.4533  23.5065
 21.4763  23.5589
 21.4992  23.6834
 21.5223  23.9158
 21.5453  23.9272
 21.5683  23.7343
 21.5913  23.6627
 21.6142  23.6396
 21.6373  23.6339
 21.6603  23.6149
 21.6833  23.5301
 21.7063  23.6054
 21.7293  23.8129
 21.7523  23.8868
 21.7753  23.738
 21.7982  23.6977
 21.8213  23.6816
 21.8443  23.6457
 21.8672  23.6585
 21.8903  23.6978
 21.9133  23.7104
 21.9363  23.6876
 21.9593  23.7224
 21.9823  23.7153
 22.0053  23.7852
 22.0283  23.8815
 22.0512  23.8933
 22.0743  23.9418
 22.0973  23.9289
 22.1203  23.9704
 22.1433  23.9983
 22.1663  23.9703
 22.1893  23.9496
 22.2123  23.9293
 22.2353  23.9863
 22.2583  24.0535
 22.2813  24.1041
 22.3043  24.1627
 22.3273  24.134
 22.3502  24.189
 22.3733  24.0728
 22.3963  24.0272
 22.4193  24.0768
 22.4423  24.1289
 22.4653  24.1861
 22.4883  24.2348
 22.5113  24.3153
 22.5343  24.3822
 22.5573  24.4461
 22.5803  24.3873
 22.6033  24.3726
 22.6263  24.4634
 22.6493  24.4464
 22.6723  24.4759
 22.6953  24.642
 22.7183  24.7436
 22.7413  24.6689
 22.7643  24.6861
 22.7873  24.6707
 22.8103  24.7943
 22.8333  24.9276
 22.8563  25.0262
 22.8793  25.0912
 22.9022  25.1502
 22.9253  25.3224
 22.9483  25.4069
 22.9713  25.5517
 22.9943  25.606