File: test-data-xrd/xrd-map-34-ID-E/Data_0063.chi
F:\20151113_APS_34IDE\\Brian\Particle1\OCV\Data_0063.tif
2-Theta Angle (Degrees)
Intensity
       2000
 0.01725  0.0000000E+00
 0.04025  0.0000000E+00
 0.06325  0.0000000E+00
 0.08625  0.0000000E+00
 0.10925  0.0000000E+00
 0.13225  0.0000000E+00
 0.15525  0.0000000E+00
 0.17825  0.0000000E+00
 0.20125  0.0000000E+00
 0.22425  0.0000000E+00
 0.24725  0.0000000E+00
 0.27025  0.0000000E+00
 0.29325  0.0000000E+00
 0.31625  0.0000000E+00
 0.33925  0.0000000E+00
 0.36225  0.0000000E+00
 0.38525  0.0000000E+00
 0.40825  0.0000000E+00
 0.43125  0.0000000E+00
 0.45425  0.0000000E+00
 0.47725  0.0000000E+00
 0.50025  0.0000000E+00
 0.52325  0.0000000E+00
 0.54625  0.0000000E+00
 0.56925  0.0000000E+00
 0.59225  0.0000000E+00
 0.61525  0.0000000E+00
 0.63825  0.0000000E+00
 0.66125  0.0000000E+00
 0.68425  0.0000000E+00
 0.70725  0.0000000E+00
 0.73025  0.0000000E+00
 0.75325  0.0000000E+00
 0.77625  0.0000000E+00
 0.79925  0.0000000E+00
 0.82225  0.0000000E+00
 0.84525  0.0000000E+00
 0.86825  0.0000000E+00
 0.89125  0.0000000E+00
 0.91425  0.0000000E+00
 0.93725  0.0000000E+00
 0.96025  0.0000000E+00
 0.98325  0.0000000E+00
 1.00625  0.0000000E+00
 1.02925  0.0000000E+00
 1.05225  0.0000000E+00
 1.07525  0.0000000E+00
 1.09825  0.0000000E+00
 1.12125  0.0000000E+00
 1.14425  0.0000000E+00
 1.16725  0.0000000E+00
 1.19025  0.0000000E+00
 1.21325  0.0000000E+00
 1.23625  0.0000000E+00
 1.25925  0.0000000E+00
 1.28225  0.0000000E+00
 1.30525  0.0000000E+00
 1.32825  0.0000000E+00
 1.35125  0.0000000E+00
 1.37425  0.0000000E+00
 1.39725  0.0000000E+00
 1.42025  0.0000000E+00
 1.44325  0.0000000E+00
 1.46625  0.0000000E+00
 1.48925  0.0000000E+00
 1.51225  0.0000000E+00
 1.53525  0.0000000E+00
 1.55825  0.0000000E+00
 1.58125  0.0000000E+00
 1.60425  0.0000000E+00
 1.62725  0.0000000E+00
 1.65025  0.0000000E+00
 1.67325  0.0000000E+00
 1.69625  0.0000000E+00
 1.71925  0.0000000E+00
 1.74225  0.0000000E+00
 1.76525  0.0000000E+00
 1.78825  0.0000000E+00
 1.81125  0.0000000E+00
 1.83425  0.0000000E+00
 1.85725  0.0000000E+00
 1.88025  0.0000000E+00
 1.90325  0.0000000E+00
 1.92625  0.0000000E+00
 1.94925  0.0000000E+00
 1.97225  0.0000000E+00
 1.99525  0.0000000E+00
 2.01825  0.0000000E+00
 2.04125  0.0000000E+00
 2.06425  0.0000000E+00
 2.08725  0.0000000E+00
 2.11025  0.0000000E+00
 2.13325  0.0000000E+00
 2.15625  0.0000000E+00
 2.17925  0.0000000E+00
 2.20225  0.0000000E+00
 2.22525  0.0000000E+00
 2.24825  0.0000000E+00
 2.27125  0.0000000E+00
 2.29425  0.0000000E+00
 2.31725  0.0000000E+00
 2.34025  0.0000000E+00
 2.36325  0.0000000E+00
 2.38625  0.0000000E+00
 2.40925  0.0000000E+00
 2.43225  0.0000000E+00
 2.45525  0.0000000E+00
 2.47825  0.0000000E+00
 2.50125  0.0000000E+00
 2.52425  0.0000000E+00
 2.54725  0.0000000E+00
 2.57025  0.0000000E+00
 2.59325  0.0000000E+00
 2.61625  0.0000000E+00
 2.63925  0.0000000E+00
 2.66225  0.0000000E+00
 2.68525  0.0000000E+00
 2.70825  0.0000000E+00
 2.73125  0.0000000E+00
 2.75425  0.0000000E+00
 2.77725  0.0000000E+00
 2.80025  0.0000000E+00
 2.82325  33.4149
 2.84625  35.1027
 2.86925  35.0362
 2.89225  35.3192
 2.91525  35.391
 2.93825  35.3865
 2.96125  35.6294
 2.98425  34.4927
 3.00725  34.3262
 3.03025  34.8225
 3.05325  35.3346
 3.07625  35.2869
 3.09925  35.5876
 3.12225  35.5926
 3.14525  35.7711
 3.16825  35.3811
 3.19125  35.3751
 3.21425  35.4386
 3.23725  35.1159
 3.26025  34.4435
 3.28325  34.0747
 3.30625  34.6252
 3.32925  35.1457
 3.35225  35.0578
 3.37525  34.7656
 3.39825  34.6546
 3.42125  34.0628
 3.44425  34.1428
 3.46725  34.2566
 3.49025  34.015
 3.51325  33.5664
 3.53625  33.5699
 3.55925  33.7667
 3.58225  33.8726
 3.60525  33.1124
 3.62825  32.7148
 3.65125  32.9661
 3.67425  33.0804
 3.69725  32.9235
 3.72025  32.599
 3.74325  32.4102
 3.76625  32.5161
 3.78925  32.3828
 3.81225  32.1035
 3.83525  32.4928
 3.85825  32.8596
 3.88125  33.0208
 3.90425  32.7005
 3.92725  32.2765
 3.95025  32.2848
 3.97325  32.7105
 3.99625  32.8461
 4.01925  32.5477
 4.04225  32.356
 4.06525  32.4852
 4.08825  32.6771
 4.11125  32.6427
 4.13425  32.8172
 4.15725  32.5266
 4.18025  31.9755
 4.20325  32.0504
 4.22625  32.0591
 4.24925  31.8185
 4.27225  31.6695
 4.29525  31.6382
 4.31825  31.9068
 4.34125  32.05
 4.36425  32.0757
 4.38725  32.0549
 4.41025  32.0374
 4.43325  31.9187
 4.45625  31.8814
 4.47925  32.1009
 4.50225  32.0097
 4.52525  32.3985
 4.54825  32.9008
 4.57125  32.8989
 4.59425  32.6267
 4.61725  32.4975
 4.64025  32.5218
 4.66325  32.6861
 4.68625  32.8262
 4.70925  32.7967
 4.73225  32.3451
 4.75525  32.2116
 4.77825  32.5529
 4.80125  32.7836
 4.82425  32.695
 4.84725  32.7458
 4.87025  32.8451
 4.89325  32.544
 4.91625  32.5558
 4.93925  32.5446
 4.96225  32.4965
 4.98525  32.7162
 5.00825  32.9623
 5.03125  32.9082
 5.05425  32.8635
 5.07725  32.8683
 5.10025  33.1256
 5.12325  33.3033
 5.14625  33.6628
 5.16925  33.9063
 5.19225  34.5079
 5.21525  35.5058
 5.23825  34.8795
 5.26125  34.2605
 5.28425  33.9185
 5.30725  34.0748
 5.33025  34.1672
 5.35325  34.1026
 5.37625  34.0339
 5.39925  34.1337
 5.42225  34.1321
 5.44525  34.16
 5.46825  34.2562
 5.49125  34.249
 5.51425  34.428
 5.53725  34.3566
 5.56025  34.5367
 5.58325  34.7408
 5.60625  34.85
 5.62925  34.8494
 5.65225  34.8483
 5.67525  35.0102
 5.69825  35.2399
 5.72125  35.4452
 5.74425  35.5446
 5.76725  35.535
 5.79025  35.8045
 5.81325  35.8848
 5.83625  36.0795
 5.85925  36.06
 5.88225  36.3117
 5.90525  36.8015
 5.92825  37.7738
 5.95125  40.3615
 5.97425  43.643
 5.99725  44.4892
 6.02025  41.5724
 6.04325  38.7036
 6.06625  37.2177
 6.08925  36.7348
 6.11225  36.6452
 6.13525  36.4673
 6.15825  36.4021
 6.18125  36.4214
 6.20425  36.7196
 6.22725  36.9789
 6.25025  37.0582
 6.27325  37.2772
 6.29625  37.4482
 6.31925  37.4571
 6.34225  37.6421
 6.36525  37.781
 6.38825  37.8834
 6.41125  37.9502
 6.43425  38.1348
 6.45725  38.3117
 6.48025  38.3781
 6.50325  38.5591
 6.52625  38.7987
 6.54925  38.8197
 6.57225  38.8981
 6.59525  38.9613
 6.61825  39.1698
 6.64125  39.2729
 6.66425  39.5375
 6.68725  39.8022
 6.71025  40.0385
 6.73325  40.267
 6.75625  40.4734
 6.77925  40.6637
 6.80225  40.8368
 6.82525  41.075
 6.84825  41.1705
 6.87125  41.1539
 6.89425  41.3178
 6.91725  41.587
 6.94025  41.6851
 6.96325  41.9007
 6.98625  41.9006
 7.00925  41.8628
 7.03225  41.9707
 7.05525  42.3527
 7.07825  42.3601
 7.10125  42.3878
 7.12425  42.5642
 7.14725  42.5949
 7.17025  42.5576
 7.19325  42.5656
 7.21625  42.8004
 7.23925  43.0887
 7.26225  43.3192
 7.28525  43.4188
 7.30825  43.5144
 7.33125  43.4559
 7.35425  43.4571
 7.37725  43.5029
 7.40025  43.6651
 7.42325  43.717
 7.44625  43.6768
 7.46925  43.6573
 7.49225  43.6535
 7.51525  43.6131
 7.53825  43.835
 7.56125  44.0399
 7.58425  43.9422
 7.60725  43.886
 7.63025  44.0656
 7.65325  44.0326
 7.67625  43.9048
 7.69925  43.8675
 7.72225  43.9626
 7.74525  44.0383
 7.76825  44.1139
 7.79125  44.0818
 7.81425  44.0069
 7.83725  43.8277
 7.86025  43.8605
 7.88325  43.6521
 7.90625  43.3435
 7.92925  43.1605
 7.95225  43.0133
 7.97525  42.9862
 7.99825  43.0544
 8.02125  42.9647
 8.04425  42.8059
 8.06725  42.752
 8.09025  42.5473
 8.11325  42.3687
 8.13625  42.2138
 8.15925  41.9261
 8.18225  41.601
 8.20525  41.4567
 8.22825  41.2373
 8.25125  41.043
 8.27425  40.8625
 8.29725  40.6348
 8.32025  40.3741
 8.34325  39.9784
 8.36625  39.6186
 8.38925  39.3367
 8.41225  39.108
 8.43525  38.7464
 8.45825  38.4746
 8.48125  38.2428
 8.50425  37.7643
 8.52725  37.3914
 8.55025  37.054
 8.57325  36.7719
 8.59625  36.3259
 8.61925  35.936
 8.64225  35.6119
 8.66525  35.2153
 8.68825  34.9272
 8.71125  34.5908
 8.73425  34.2185
 8.75725  33.8301
 8.78025  33.412
 8.80325  33.028
 8.82625  32.9005
 8.84925  32.7152
 8.87225  32.3718
 8.89525  32.1438
 8.91825  31.8083
 8.94125  31.4008
 8.96425  31.1947
 8.98725  30.9468
 9.01025  30.634
 9.03325  30.2705
 9.05625  30.0112
 9.07925  29.8822
 9.10225  29.5432
 9.12525  29.1925
 9.14825  29.1506
 9.17125  28.9996
 9.19425  28.7511
 9.21725  28.4231
 9.24025  28.23
 9.26325  28.0875
 9.28625  27.9398
 9.30925  27.6423
 9.33225  27.4274
 9.35525  27.2096
 9.37825  27.0023
 9.40125  26.9638
 9.42425  26.8573
 9.44725  26.5712
 9.47025  26.5131
 9.49325  26.4137
 9.51625  26.1822
 9.53925  26.0996
 9.56225  25.9244
 9.58525  25.7645
 9.60825  25.7618
 9.63125  25.7725
 9.65425  25.6099
 9.67725  25.378
 9.70025  25.2044
 9.72325  25.3038
 9.74625  25.3204
 9.76925  25.1191
 9.79225  25.0637
 9.81525  25.0792
 9.83825  24.8972
 9.86125  24.7711
 9.88425  24.6251
 9.90725  24.6208
 9.93025  24.6022
 9.95325  24.4234
 9.97625  24.2417
 9.99925  24.2632
 10.0222  24.2235
 10.0453  24.1981
 10.0683  24.1506
 10.0913  23.9749
 10.1143  23.9703
 10.1373  23.9781
 10.1603  23.942
 10.1832  23.8926
 10.2063  23.8677
 10.2293  23.751
 10.2523  23.6413
 10.2752  23.5769
 10.2982  23.6275
 10.3213  23.6356
 10.3443  23.4218
 10.3673  23.3242
 10.3902  23.3506
 10.4133  23.3887
 10.4363  23.38
 10.4593  23.2586
 10.4823  23.2242
 10.5053  23.2041
 10.5283  23.103
 10.5512  23.0471
 10.5742  23.0797
 10.5973  23.0901
 10.6203  23.081
 10.6433  23.0992
 10.6662  23.0874
 10.6893  22.9962
 10.7123  22.9457
 10.7353  22.9124
 10.7583  22.8125
 10.7813  22.7648
 10.8043  22.6971
 10.8272  22.6186
 10.8503  22.7246
 10.8733  22.8269
 10.8963  22.6462
 10.9192  22.612
 10.9422  22.6521
 10.9653  22.6134
 10.9883  22.5881
 11.0113  22.5444
 11.0343  22.467
 11.0573  22.5473
 11.0803  22.6786
 11.1033  22.7097
 11.1263  22.7135
 11.1493  22.7586
 11.1723  22.6057
 11.1953  22.4529
 11.2182  22.4484
 11.2413  22.418
 11.2643  22.3149
 11.2873  22.2923
 11.3102  22.4564
 11.3333  22.4631
 11.3563  22.4488
 11.3793  22.6358
 11.4023  22.8404
 11.4253  22.8951
 11.4483  22.8376
 11.4713  22.8816
 11.4942  22.9675
 11.5173  23.3377
 11.5403  24.3838
 11.5633  26.5231
 11.5862  29.0479
 11.6093  29.3255
 11.6323  27.2147
 11.6553  24.9256
 11.6783  23.6931
 11.7013  23.0157
 11.7243  22.6532
 11.7473  22.4335
 11.7703  22.403
 11.7933  22.4829
 11.8163  22.5009
 11.8393  22.4906
 11.8622  22.5039
 11.8853  22.4688
 11.9083  22.5683
 11.9313  22.7737
 11.9543  22.9227
 11.9773  23.1224
 12.0003  23.3215
 12.0233  23.6141
 12.0463  24.3397
 12.0693  26.0925
 12.0923  27.9179
 12.1153  27.833
 12.1382  25.6849
 12.1613  23.9125
 12.1843  23.1508
 12.2073  22.8278
 12.2302  22.5568
 12.2533  22.526
 12.2763  22.4752
 12.2993  22.5284
 12.3223  22.6295
 12.3453  22.6514
 12.3683  22.697
 12.3913  22.6379
 12.4142  22.5704
 12.4373  22.5586
 12.4603  22.6036
 12.4833  22.6717
 12.5062  22.6462
 12.5292  22.6289
 12.5523  22.6171
 12.5753  22.6555
 12.5983  22.8078
 12.6212  23.0161
 12.6443  23.0537
 12.6673  22.9697
 12.6903  22.9226
 12.7133  23.0176
 12.7363  22.9953
 12.7593  23.0125
 12.7822  23.1991
 12.8052  23.2691
 12.8283  23.3041
 12.8513  23.3788
 12.8742  23.517
 12.8972  23.5502
 12.9203  23.6472
 12.9433  23.7357
 12.9663  23.7508
 12.9893  23.838
 13.0123  23.9647
 13.0353  24.1637
 13.0582  24.3109
 13.0813  24.4161
 13.1043  24.6994
 13.1273  25.0022
 13.1502  25.1417
 13.1732  25.3289
 13.1963  25.5539
 13.2193  25.9221
 13.2423  26.2762
 13.2652  26.4343
 13.2883  26.5932
 13.3113  26.8478
 13.3343  27.2815
 13.3573  27.5974
 13.3803  27.947
 13.4033  28.225
 13.4262  28.4041
 13.4492  28.6459
 13.4723  28.868
 13.4953  29.0077
 13.5183  29.2117
 13.5412  29.3614
 13.5643  29.4971
 13.5873  29.6523
 13.6103  29.6946
 13.6333  29.7467
 13.6563  29.8334
 13.6793  29.8556
 13.7022  29.6613
 13.7253  29.5543
 13.7483  29.5469
 13.7713  29.4877
 13.7942  29.4205
 13.8172  29.3939
 13.8403  29.5154
 13.8633  29.9268
 13.8863  31.1639
 13.9093  33.8799
 13.9323  38.3437
 13.9553  42.5929
 13.9783  41.6792
 14.0013  36.0536
 14.0243  31.373
 14.0473  29.212
 14.0703  28.3173
 14.0932  27.8226
 14.1163  27.5715
 14.1393  27.3885
 14.1623  27.2421
 14.1852  27.0828
 14.2083  26.9477
 14.2313  26.7241
 14.2543  26.5994
 14.2773  26.5062
 14.3003  26.4734
 14.3233  26.1996
 14.3463  25.9697
 14.3692  25.9862
 14.3923  26.0793
 14.4153  26.0989
 14.4383  25.9592
 14.4612  25.7952
 14.4843  25.756
 14.5073  25.6769
 14.5303  25.6344
 14.5533  25.658
 14.5763  25.625
 14.5993  25.5094
 14.6223  25.4398
 14.6453  25.512
 14.6683  25.4932
 14.6913  25.5787
 14.7143  25.4282
 14.7372  25.1952
 14.7603  25.0535
 14.7833  25.0157
 14.8063  24.9733
 14.8293  24.9141
 14.8523  24.8398
 14.8753  24.7958
 14.8983  24.8696
 14.9213  24.9348
 14.9443  24.8822
 14.9673  24.8141
 14.9903  24.7851
 15.0132  24.8913
 15.0363  24.8989
 15.0593  24.8183
 15.0823  24.8279
 15.1052  24.9306
 15.1283  25.2697
 15.1513  26.0591
 15.1743  27.2475
 15.1973  27.9022
 15.2203  27.5131
 15.2433  26.2376
 15.2663  25.234
 15.2892  24.8607
 15.3123  24.7451
 15.3353  24.6741
 15.3583  24.6323
 15.3812  24.5414
 15.4043  24.4887
 15.4273  24.4633
 15.4503  24.4826
 15.4733  24.4372
 15.4963  24.4048
 15.5193  24.506
 15.5423  24.5392
 15.5653  24.5686
 15.5883  24.594
 15.6113  24.5668
 15.6343  24.5456
 15.6572  24.6706
 15.6803  24.7206
 15.7033  24.6846
 15.7263  24.683
 15.7492  24.7396
 15.7723  24.6545
 15.7953  24.5465
 15.8183  24.515
 15.8413  24.4508
 15.8643  24.4575
 15.8873  24.5714
 15.9103  24.694
 15.9332  24.7428
 15.9563  24.6466
 15.9793  24.5829
 16.0023  24.6048
 16.0253  24.5618
 16.0482  24.6402
 16.0713  24.6544
 16.0943  24.6205
 16.1172  24.6312
 16.1403  24.7368
 16.1633  24.7746
 16.1863  24.8812
 16.2093  25.0319
 16.2323  25.2014
 16.2553  25.4421
 16.2783  25.4516
 16.3012  25.0965
 16.3243  24.9094
 16.3472  24.7383
 16.3703  24.5677
 16.3933  24.5048
 16.4163  24.5876
 16.4393  24.6437
 16.4623  24.5875
 16.4853  24.612
 16.5083  24.638
 16.5312  24.6428
 16.5543  24.7428
 16.5773  24.7961
 16.6002  24.9011
 16.6233  24.6576
 16.6463  24.5005
 16.6693  24.4648
 16.6923  24.5341
 16.7153  24.6077
 16.7383  24.6004
 16.7613  24.5905
 16.7843  24.566
 16.8073  24.6083
 16.8303  24.6443
 16.8533  24.5567
 16.8763  24.5951
 16.8992  24.5044
 16.9223  24.4327
 16.9453  24.3772
 16.9683  24.3056
 16.9913  24.2991
 17.0143  24.3407
 17.0373  24.3132
 17.0603  24.3026
 17.0832  24.1933
 17.1063  24.1626
 17.1293  24.1799
 17.1522  24.1907
 17.1753  24.1712
 17.1983  24.2613
 17.2213  24.2155
 17.2443  24.2138
 17.2673  24.1131
 17.2903  24.0827
 17.3133  24.1236
 17.3362  24.1568
 17.3593  24.0139
 17.3823  23.9937
 17.4053  23.9946
 17.4283  23.9687
 17.4513  23.9034
 17.4743  23.9325
 17.4973  23.899
 17.5203  23.8863
 17.5433  23.9237
 17.5663  23.9338
 17.5893  23.926
 17.6123  23.9992
 17.6352  23.9598
 17.6583  23.8942
 17.6813  23.8365
 17.7042  23.858
 17.7273  23.8599
 17.7503  23.8391
 17.7733  23.8337
 17.7963  23.9426
 17.8193  23.9202
 17.8423  23.8124
 17.8653  23.8122
 17.8882  23.7981
 17.9113  23.8842
 17.9343  24.0557
 17.9573  24.1108
 17.9803  24.4147
 18.0033  25.0646
 18.0263  25.6192
 18.0493  25.7222
 18.0723  25.472
 18.0953  25.5099
 18.1183  25.4319
 18.1413  25.1382
 18.1643  24.6816
 18.1872  24.2295
 18.2103  23.972
 18.2333  23.8514
 18.2563  23.7562
 18.2793  23.7076
 18.3023  23.708
 18.3253  23.7804
 18.3483  23.7741
 18.3712  23.8233
 18.3943  23.7488
 18.4173  23.8187
 18.4402  23.753
 18.4633  23.7644
 18.4863  23.7317
 18.5093  23.6673
 18.5323  23.651
 18.5553  23.6442
 18.5783  23.6779
 18.6013  23.6686
 18.6242  23.5299
 18.6473  23.5129
 18.6703  23.5137
 18.6933  23.6329
 18.7163  23.6333
 18.7392  23.5773
 18.7623  23.5493
 18.7853  23.598
 18.8083  23.6883
 18.8313  23.6097
 18.8543  23.563
 18.8773  23.5648
 18.9003  23.5682
 18.9232  23.5785
 18.9463  23.6208
 18.9693  23.548
 18.9922  23.5
 19.0153  23.6174
 19.0383  23.6719
 19.0613  23.6099
 19.0843  23.6322
 19.1073  23.6024
 19.1303  23.5833
 19.1533  23.5971
 19.1762  23.6321
 19.1993  23.6513
 19.2223  23.6427
 19.2453  23.5934
 19.2683  23.6834
 19.2913  23.6358
 19.3143  23.697
 19.3373  23.7697
 19.3603  23.7739
 19.3833  23.806
 19.4062  23.8913
 19.4293  23.9142
 19.4523  23.9021
 19.4752  23.9652
 19.4983  23.9911
 19.5213  24.073
 19.5443  24.2619
 19.5673  24.3674
 19.5903  24.5588
 19.6133  24.9852
 19.6363  26.2123
 19.6593  29.1589
 19.6823  33.4256
 19.7053  35.8041
 19.7283  33.6684
 19.7513  29.832
 19.7742  27.5651
 19.7973  26.8971
 19.8203  27.4472
 19.8433  29.4141
 19.8663  31.2034
 19.8893  30.1053
 19.9123  27.6726
 19.9353  25.4828
 19.9582  24.5833
 19.9813  24.3335
 20.0043  24.2017
 20.0272  24.0302
 20.0503  23.9738
 20.0733  23.9102
 20.0963  23.9481
 20.1193  23.8874
 20.1423  23.7573
 20.1653  23.7662
 20.1883  23.8491
 20.2112  23.7804
 20.2343  23.7836
 20.2573  23.8395
 20.2803  23.84
 20.3033  23.7245
 20.3263  23.7487
 20.3493  23.6884
 20.3723  23.7522
 20.3953  23.8577
 20.4183  23.8982
 20.4413  23.8741
 20.4643  23.8156
 20.4873  23.753
 20.5102  23.7259
 20.5333  23.7168
 20.5563  23.8161
 20.5792  23.9315
 20.6023  24.1281
 20.6253  24.1336
 20.6483  24.1493
 20.6713  24.2443
 20.6943  24.738
 20.7173  25.5816
 20.7403  26.5053
 20.7632  26.727
 20.7863  25.8836
 20.8093  24.9926
 20.8323  24.4849
 20.8553  24.1965
 20.8783  24.1028
 20.9013  24.1631
 20.9243  24.1531
 20.9473  24.0589
 20.9703  23.9898
 20.9933  24.075
 21.0163  24.0317
 21.0393  24.0233
 21.0622  23.9009
 21.0853  23.9845
 21.1083  23.9719
 21.1313  24.0854
 21.1543  23.9977
 21.1773  23.9828
 21.2003  23.9953
 21.2233  23.8927
 21.2462  23.9262
 21.2693  23.9877
 21.2923  23.9896
 21.3152  23.9447
 21.3383  23.9129
 21.3613  23.9515
 21.3843  23.9724
 21.4073  23.9357
 21.4303  23.9409
 21.4533  23.9106
 21.4763  23.9249
 21.4992  23.9798
 21.5223  24.0379
 21.5453  24.0016
 21.5683  24.0087
 21.5913  24.0739
 21.6142  24.0492
 21.6373  24.0406
 21.6603  24.1271
 21.6833  24.2895
 21.7063  24.3239
 21.7293  24.2678
 21.7523  24.1387
 21.7753  24.1345
 21.7982  24.1791
 21.8213  24.2445
 21.8443  24.2432
 21.8672  24.145
 21.8903  24.1692
 21.9133  24.233
 21.9363  24.2688
 21.9593  24.2804
 21.9823  24.3557
 22.0053  24.3504
 22.0283  24.3118
 22.0512  24.3832
 22.0743  24.4498
 22.0973  24.3788
 22.1203  24.3471
 22.1433  24.3811
 22.1663  24.3649
 22.1893  24.2742
 22.2123  24.3566
 22.2353  24.397
 22.2583  24.4134
 22.2813  24.4699
 22.3043  24.5562
 22.3273  24.5856
 22.3502  24.6324
 22.3733  24.625
 22.3963  24.5942
 22.4193  24.5846
 22.4423  24.7183
 22.4653  24.7382
 22.4883  24.6831
 22.5113  24.7214
 22.5343  24.8211
 22.5573  24.8383
 22.5803  24.8244
 22.6033  24.8924
 22.6263  24.9236
 22.6493  25.017
 22.6723  25.0646
 22.6953  25.2328
 22.7183  25.235
 22.7413  25.2444
 22.7643  25.3513
 22.7873  25.329
 22.8103  25.461
 22.8333  25.5927
 22.8563  25.7009
 22.8793  25.7806
 22.9022  25.9535
 22.9253  26.1193
 22.9483  26.1855
 22.9713  26.385
 22.9943  26.7362