File: test-data-xrd/xrd-map-34-ID-E/Data_0065.chi
F:\20151113_APS_34IDE\\Brian\Particle1\OCV\Data_0065.tif
2-Theta Angle (Degrees)
Intensity
       2000
 0.01725  0.0000000E+00
 0.04025  0.0000000E+00
 0.06325  0.0000000E+00
 0.08625  0.0000000E+00
 0.10925  0.0000000E+00
 0.13225  0.0000000E+00
 0.15525  0.0000000E+00
 0.17825  0.0000000E+00
 0.20125  0.0000000E+00
 0.22425  0.0000000E+00
 0.24725  0.0000000E+00
 0.27025  0.0000000E+00
 0.29325  0.0000000E+00
 0.31625  0.0000000E+00
 0.33925  0.0000000E+00
 0.36225  0.0000000E+00
 0.38525  0.0000000E+00
 0.40825  0.0000000E+00
 0.43125  0.0000000E+00
 0.45425  0.0000000E+00
 0.47725  0.0000000E+00
 0.50025  0.0000000E+00
 0.52325  0.0000000E+00
 0.54625  0.0000000E+00
 0.56925  0.0000000E+00
 0.59225  0.0000000E+00
 0.61525  0.0000000E+00
 0.63825  0.0000000E+00
 0.66125  0.0000000E+00
 0.68425  0.0000000E+00
 0.70725  0.0000000E+00
 0.73025  0.0000000E+00
 0.75325  0.0000000E+00
 0.77625  0.0000000E+00
 0.79925  0.0000000E+00
 0.82225  0.0000000E+00
 0.84525  0.0000000E+00
 0.86825  0.0000000E+00
 0.89125  0.0000000E+00
 0.91425  0.0000000E+00
 0.93725  0.0000000E+00
 0.96025  0.0000000E+00
 0.98325  0.0000000E+00
 1.00625  0.0000000E+00
 1.02925  0.0000000E+00
 1.05225  0.0000000E+00
 1.07525  0.0000000E+00
 1.09825  0.0000000E+00
 1.12125  0.0000000E+00
 1.14425  0.0000000E+00
 1.16725  0.0000000E+00
 1.19025  0.0000000E+00
 1.21325  0.0000000E+00
 1.23625  0.0000000E+00
 1.25925  0.0000000E+00
 1.28225  0.0000000E+00
 1.30525  0.0000000E+00
 1.32825  0.0000000E+00
 1.35125  0.0000000E+00
 1.37425  0.0000000E+00
 1.39725  0.0000000E+00
 1.42025  0.0000000E+00
 1.44325  0.0000000E+00
 1.46625  0.0000000E+00
 1.48925  0.0000000E+00
 1.51225  0.0000000E+00
 1.53525  0.0000000E+00
 1.55825  0.0000000E+00
 1.58125  0.0000000E+00
 1.60425  0.0000000E+00
 1.62725  0.0000000E+00
 1.65025  0.0000000E+00
 1.67325  0.0000000E+00
 1.69625  0.0000000E+00
 1.71925  0.0000000E+00
 1.74225  0.0000000E+00
 1.76525  0.0000000E+00
 1.78825  0.0000000E+00
 1.81125  0.0000000E+00
 1.83425  0.0000000E+00
 1.85725  0.0000000E+00
 1.88025  0.0000000E+00
 1.90325  0.0000000E+00
 1.92625  0.0000000E+00
 1.94925  0.0000000E+00
 1.97225  0.0000000E+00
 1.99525  0.0000000E+00
 2.01825  0.0000000E+00
 2.04125  0.0000000E+00
 2.06425  0.0000000E+00
 2.08725  0.0000000E+00
 2.11025  0.0000000E+00
 2.13325  0.0000000E+00
 2.15625  0.0000000E+00
 2.17925  0.0000000E+00
 2.20225  0.0000000E+00
 2.22525  0.0000000E+00
 2.24825  0.0000000E+00
 2.27125  0.0000000E+00
 2.29425  0.0000000E+00
 2.31725  0.0000000E+00
 2.34025  0.0000000E+00
 2.36325  0.0000000E+00
 2.38625  0.0000000E+00
 2.40925  0.0000000E+00
 2.43225  0.0000000E+00
 2.45525  0.0000000E+00
 2.47825  0.0000000E+00
 2.50125  0.0000000E+00
 2.52425  0.0000000E+00
 2.54725  0.0000000E+00
 2.57025  0.0000000E+00
 2.59325  0.0000000E+00
 2.61625  0.0000000E+00
 2.63925  0.0000000E+00
 2.66225  0.0000000E+00
 2.68525  0.0000000E+00
 2.70825  0.0000000E+00
 2.73125  0.0000000E+00
 2.75425  0.0000000E+00
 2.77725  0.0000000E+00
 2.80025  0.0000000E+00
 2.82325  35.6885
 2.84625  35.8385
 2.86925  35.878
 2.89225  35.8925
 2.91525  35.3699
 2.93825  35.7163
 2.96125  36.0812
 2.98425  35.3198
 3.00725  34.828
 3.03025  35.1103
 3.05325  34.8435
 3.07625  34.5009
 3.09925  34.9971
 3.12225  34.8693
 3.14525  34.9812
 3.16825  35.3261
 3.19125  35.4478
 3.21425  35.6067
 3.23725  35.6347
 3.26025  35.491
 3.28325  34.768
 3.30625  34.9873
 3.32925  34.832
 3.35225  34.3086
 3.37525  34.0938
 3.39825  34.318
 3.42125  34.0401
 3.44425  33.85
 3.46725  33.9261
 3.49025  34.0155
 3.51325  33.933
 3.53625  33.9206
 3.55925  34.3177
 3.58225  33.6804
 3.60525  33.3883
 3.62825  33.6408
 3.65125  33.7459
 3.67425  33.3776
 3.69725  32.7937
 3.72025  32.5044
 3.74325  32.7411
 3.76625  32.8999
 3.78925  32.8058
 3.81225  32.4059
 3.83525  32.4334
 3.85825  32.5308
 3.88125  32.7726
 3.90425  32.7641
 3.92725  32.5956
 3.95025  32.4404
 3.97325  32.427
 3.99625  32.9278
 4.01925  32.8262
 4.04225  32.4996
 4.06525  32.3941
 4.08825  32.3061
 4.11125  32.3757
 4.13425  32.2177
 4.15725  31.9702
 4.18025  31.7345
 4.20325  31.8104
 4.22625  31.8143
 4.24925  31.8025
 4.27225  31.8922
 4.29525  31.9478
 4.31825  31.9896
 4.34125  32.0631
 4.36425  31.8358
 4.38725  32.0317
 4.41025  31.8991
 4.43325  31.8213
 4.45625  31.8561
 4.47925  32.066
 4.50225  31.949
 4.52525  31.8819
 4.54825  32.0979
 4.57125  32.4737
 4.59425  32.5815
 4.61725  32.4504
 4.64025  32.3245
 4.66325  32.4142
 4.68625  32.5187
 4.70925  32.7868
 4.73225  32.5428
 4.75525  32.263
 4.77825  32.1847
 4.80125  32.177
 4.82425  32.2339
 4.84725  32.3664
 4.87025  32.4115
 4.89325  32.4505
 4.91625  32.4795
 4.93925  32.4536
 4.96225  32.46
 4.98525  32.4272
 5.00825  32.6725
 5.03125  33.0086
 5.05425  33.2115
 5.07725  33.2884
 5.10025  33.2674
 5.12325  33.1658
 5.14625  33.4794
 5.16925  33.4585
 5.19225  33.4733
 5.21525  33.3746
 5.23825  33.3317
 5.26125  33.548
 5.28425  33.8457
 5.30725  33.9843
 5.33025  33.909
 5.35325  33.9398
 5.37625  34.2815
 5.39925  34.5855
 5.42225  34.5166
 5.44525  34.3544
 5.46825  34.3411
 5.49125  34.3338
 5.51425  34.4152
 5.53725  34.4768
 5.56025  34.5641
 5.58325  34.7254
 5.60625  34.8735
 5.62925  34.8088
 5.65225  34.6688
 5.67525  34.6659
 5.69825  34.7873
 5.72125  35.0105
 5.74425  35.1845
 5.76725  35.198
 5.79025  35.3901
 5.81325  35.1798
 5.83625  35.2298
 5.85925  35.3403
 5.88225  35.6491
 5.90525  36.0669
 5.92825  36.3909
 5.95125  37.5928
 5.97425  38.8515
 5.99725  38.8468
 6.02025  37.7943
 6.04325  36.805
 6.06625  36.4144
 6.08925  36.3518
 6.11225  36.347
 6.13525  36.2668
 6.15825  36.1148
 6.18125  36.3416
 6.20425  36.5563
 6.22725  36.855
 6.25025  37.0174
 6.27325  37.1757
 6.29625  37.3084
 6.31925  37.3927
 6.34225  37.5075
 6.36525  37.57
 6.38825  37.6823
 6.41125  37.8594
 6.43425  37.8978
 6.45725  38.0231
 6.48025  38.1045
 6.50325  38.4279
 6.52625  38.5569
 6.54925  38.7591
 6.57225  39.019
 6.59525  39.0282
 6.61825  38.9337
 6.64125  39.1642
 6.66425  39.5425
 6.68725  39.6566
 6.71025  39.8033
 6.73325  39.9987
 6.75625  40.1697
 6.77925  40.2396
 6.80225  40.4596
 6.82525  40.6401
 6.84825  40.9323
 6.87125  41.0715
 6.89425  41.2822
 6.91725  41.4149
 6.94025  41.5845
 6.96325  41.7442
 6.98625  41.7773
 7.00925  41.6892
 7.03225  41.8188
 7.05525  41.849
 7.07825  41.8252
 7.10125  41.9797
 7.12425  42.2326
 7.14725  42.2582
 7.17025  42.452
 7.19325  42.7377
 7.21625  42.7956
 7.23925  42.8954
 7.26225  42.9761
 7.28525  43.2045
 7.30825  43.3575
 7.33125  43.3553
 7.35425  43.2528
 7.37725  43.2046
 7.40025  43.3539
 7.42325  43.4382
 7.44625  43.4824
 7.46925  43.4258
 7.49225  43.4279
 7.51525  43.5172
 7.53825  43.5885
 7.56125  43.5397
 7.58425  43.5115
 7.60725  43.5727
 7.63025  43.7253
 7.65325  43.9096
 7.67625  43.8616
 7.69925  43.5223
 7.72225  43.431
 7.74525  43.5214
 7.76825  43.5633
 7.79125  43.7007
 7.81425  43.7422
 7.83725  43.7542
 7.86025  43.7062
 7.88325  43.2748
 7.90625  43.09
 7.92925  43.1298
 7.95225  43.0927
 7.97525  43.1062
 7.99825  43.1107
 8.02125  42.9443
 8.04425  42.8432
 8.06725  42.4013
 8.09025  42.1349
 8.11325  41.9939
 8.13625  41.8949
 8.15925  41.8506
 8.18225  41.5934
 8.20525  41.3132
 8.22825  41.0999
 8.25125  40.987
 8.27425  40.6633
 8.29725  40.1043
 8.32025  39.7943
 8.34325  39.6722
 8.36625  39.405
 8.38925  39.1622
 8.41225  38.9918
 8.43525  38.5834
 8.45825  38.139
 8.48125  37.8388
 8.50425  37.4384
 8.52725  37.0275
 8.55025  36.5383
 8.57325  36.1769
 8.59625  35.9282
 8.61925  35.7139
 8.64225  35.3465
 8.66525  34.9582
 8.68825  34.5839
 8.71125  34.2355
 8.73425  33.9392
 8.75725  33.5304
 8.78025  33.1546
 8.80325  32.8294
 8.82625  32.4525
 8.84925  32.098
 8.87225  31.904
 8.89525  31.6293
 8.91825  31.2504
 8.94125  31.0194
 8.96425  30.7899
 8.98725  30.4878
 9.01025  30.0555
 9.03325  29.7751
 9.05625  29.6244
 9.07925  29.5291
 9.10225  29.3439
 9.12525  29.0987
 9.14825  28.8517
 9.17125  28.6031
 9.19425  28.4368
 9.21725  28.3181
 9.24025  28.0891
 9.26325  27.8736
 9.28625  27.613
 9.30925  27.3473
 9.33225  27.1717
 9.35525  26.9869
 9.37825  26.8505
 9.40125  26.5989
 9.42425  26.4843
 9.44725  26.4374
 9.47025  26.2835
 9.49325  26.1394
 9.51625  25.8764
 9.53925  25.6998
 9.56225  25.6418
 9.58525  25.4769
 9.60825  25.4177
 9.63125  25.3153
 9.65425  25.2403
 9.67725  25.0375
 9.70025  24.8924
 9.72325  24.9674
 9.74625  25.0395
 9.76925  24.8062
 9.79225  24.5426
 9.81525  24.5159
 9.83825  24.3379
 9.86125  24.1849
 9.88425  24.1664
 9.90725  24.1622
 9.93025  24.1766
 9.95325  24.0182
 9.97625  24.0236
 9.99925  23.9966
 10.0222  23.9529
 10.0453  23.9207
 10.0683  23.8397
 10.0913  23.6932
 10.1143  23.5216
 10.1373  23.4431
 10.1603  23.3942
 10.1832  23.4679
 10.2063  23.4418
 10.2293  23.4344
 10.2523  23.3408
 10.2752  23.2743
 10.2982  23.1402
 10.3213  23.0846
 10.3443  22.9795
 10.3673  22.9343
 10.3902  22.9507
 10.4133  22.9452
 10.4363  22.8221
 10.4593  22.8555
 10.4823  22.9081
 10.5053  22.8355
 10.5283  22.5942
 10.5512  22.6026
 10.5742  22.6761
 10.5973  22.6482
 10.6203  22.7005
 10.6433  22.6594
 10.6662  22.6064
 10.6893  22.449
 10.7123  22.4018
 10.7353  22.3734
 10.7583  22.4211
 10.7813  22.4242
 10.8043  22.3517
 10.8272  22.48
 10.8503  22.5775
 10.8733  22.578
 10.8963  22.4007
 10.9192  22.3227
 10.9422  22.3052
 10.9653  22.4122
 10.9883  22.5172
 11.0113  22.4704
 11.0343  22.3403
 11.0573  22.3367
 11.0803  22.3567
 11.1033  22.2853
 11.1263  22.2784
 11.1493  22.1528
 11.1723  22.0499
 11.1953  21.9827
 11.2182  22.0518
 11.2413  22.0857
 11.2643  22.1313
 11.2873  22.1224
 11.3102  22.1112
 11.3333  22.1569
 11.3563  22.1439
 11.3793  22.1606
 11.4023  22.323
 11.4253  22.4499
 11.4483  22.4442
 11.4713  22.4333
 11.4942  22.3313
 11.5173  22.3515
 11.5403  22.8175
 11.5633  23.6203
 11.5862  24.1114
 11.6093  23.9198
 11.6323  23.2963
 11.6553  22.6967
 11.6783  22.2167
 11.7013  22.0685
 11.7243  22.0574
 11.7473  22.1063
 11.7703  22.0562
 11.7933  22.1343
 11.8163  22.1696
 11.8393  22.0853
 11.8622  22.0024
 11.8853  22.0333
 11.9083  22.2392
 11.9313  22.2881
 11.9543  22.3464
 11.9773  22.3871
 12.0003  22.4344
 12.0233  22.3755
 12.0463  22.4046
 12.0693  22.5586
 12.0923  22.8042
 12.1153  22.7656
 12.1382  22.5888
 12.1613  22.3731
 12.1843  22.2955
 12.2073  22.1987
 12.2302  22.149
 12.2533  22.1493
 12.2763  22.151
 12.2993  22.125
 12.3223  22.1236
 12.3453  22.1739
 12.3683  22.2183
 12.3913  22.1583
 12.4142  22.1696
 12.4373  22.1778
 12.4603  22.1623
 12.4833  22.2372
 12.5062  22.2279
 12.5292  22.2298
 12.5523  22.3094
 12.5753  22.3521
 12.5983  22.3273
 12.6212  22.3322
 12.6443  22.2958
 12.6673  22.3671
 12.6903  22.4861
 12.7133  22.5484
 12.7363  22.5544
 12.7593  22.6546
 12.7822  22.7457
 12.8052  22.8468
 12.8283  22.9441
 12.8513  23.103
 12.8742  23.1905
 12.8972  23.1738
 12.9203  23.1415
 12.9433  23.1957
 12.9663  23.2739
 12.9893  23.4103
 13.0123  23.6575
 13.0353  23.8389
 13.0582  23.9842
 13.0813  24.0992
 13.1043  24.3477
 13.1273  24.6578
 13.1502  24.8274
 13.1732  24.9354
 13.1963  25.1774
 13.2193  25.5265
 13.2423  25.863
 13.2652  26.0908
 13.2883  26.2958
 13.3113  26.5529
 13.3343  26.8746
 13.3573  27.2023
 13.3803  27.439
 13.4033  27.7619
 13.4262  28.0048
 13.4492  28.2586
 13.4723  28.4971
 13.4953  28.7078
 13.5183  28.8284
 13.5412  28.9242
 13.5643  28.9282
 13.5873  29.1057
 13.6103  29.226
 13.6333  29.2377
 13.6563  29.2933
 13.6793  29.3634
 13.7022  29.1282
 13.7253  28.8438
 13.7483  28.795
 13.7713  28.7348
 13.7942  28.7423
 13.8172  28.6556
 13.8403  28.5779
 13.8633  28.5484
 13.8863  28.6517
 13.9093  29.0067
 13.9323  29.4006
 13.9553  29.6176
 13.9783  29.3936
 14.0013  28.6229
 14.0243  27.7593
 14.0473  27.247
 14.0703  27.0845
 14.0932  26.9084
 14.1163  26.7469
 14.1393  26.6693
 14.1623  26.5633
 14.1852  26.4303
 14.2083  26.3054
 14.2313  26.1587
 14.2543  26.0062
 14.2773  25.8229
 14.3003  25.7214
 14.3233  25.7544
 14.3463  25.7678
 14.3692  25.6455
 14.3923  25.6149
 14.4153  25.5655
 14.4383  25.4952
 14.4612  25.3836
 14.4843  25.3044
 14.5073  25.3186
 14.5303  25.1872
 14.5533  24.9891
 14.5763  24.9252
 14.5993  24.8273
 14.6223  24.8198
 14.6453  24.6849
 14.6683  24.5686
 14.6913  24.627
 14.7143  24.7278
 14.7372  24.7583
 14.7603  24.7928
 14.7833  24.7799
 14.8063  24.8546
 14.8293  24.6808
 14.8523  24.6101
 14.8753  24.603
 14.8983  24.6434
 14.9213  24.6627
 14.9443  24.5781
 14.9673  24.4592
 14.9903  24.3994
 15.0132  24.4812
 15.0363  24.5512
 15.0593  24.5329
 15.0823  24.5775
 15.1052  24.5178
 15.1283  24.5153
 15.1513  24.6452
 15.1743  24.8826
 15.1973  25.0623
 15.2203  24.934
 15.2433  24.5605
 15.2663  24.267
 15.2892  24.1204
 15.3123  24.111
 15.3353  24.058
 15.3583  24.1022
 15.3812  24.0928
 15.4043  24.1053
 15.4273  24.1126
 15.4503  24.0796
 15.4733  24.1268
 15.4963  24.1942
 15.5193  24.1545
 15.5423  24.1239
 15.5653  24.1624
 15.5883  24.1999
 15.6113  24.2518
 15.6343  24.2198
 15.6572  24.2528
 15.6803  24.2131
 15.7033  24.24
 15.7263  24.1204
 15.7492  24.0691
 15.7723  24.1538
 15.7953  24.1903
 15.8183  24.2529
 15.8413  24.1225
 15.8643  24.0428
 15.8873  24.0622
 15.9103  24.2313
 15.9332  24.2637
 15.9563  24.2185
 15.9793  24.2406
 16.0023  24.3015
 16.0253  24.2738
 16.0482  24.2648
 16.0713  24.188
 16.0943  24.2521
 16.1172  24.3615
 16.1403  24.327
 16.1633  24.3564
 16.1863  24.3673
 16.2093  24.5094
 16.2323  24.7184
 16.2553  24.7856
 16.2783  24.789
 16.3012  24.6521
 16.3243  24.4381
 16.3472  24.3129
 16.3703  24.3678
 16.3933  24.3741
 16.4163  24.3993
 16.4393  24.3621
 16.4623  24.292
 16.4853  24.1852
 16.5083  24.1415
 16.5312  24.2197
 16.5543  24.2157
 16.5773  24.2224
 16.6002  24.234
 16.6233  24.0991
 16.6463  24.0067
 16.6693  24.0573
 16.6923  24.1651
 16.7153  24.1828
 16.7383  24.0786
 16.7613  24.0813
 16.7843  24.0376
 16.8073  23.983
 16.8303  23.9345
 16.8533  23.841
 16.8763  23.8273
 16.8992  23.8607
 16.9223  23.9876
 16.9453  24.1092
 16.9683  23.9847
 16.9913  23.8757
 17.0143  23.9012
 17.0373  23.8554
 17.0603  23.7868
 17.0832  23.8923
 17.1063  23.9089
 17.1293  23.8713
 17.1522  23.8588
 17.1753  23.8121
 17.1983  23.8246
 17.2213  23.8263
 17.2443  23.8047
 17.2673  23.7743
 17.2903  23.7097
 17.3133  23.7188
 17.3362  23.736
 17.3593  23.6716
 17.3823  23.6186
 17.4053  23.5179
 17.4283  23.5066
 17.4513  23.5163
 17.4743  23.5747
 17.4973  23.6428
 17.5203  23.6269
 17.5433  23.651
 17.5663  23.5415
 17.5893  23.5255
 17.6123  23.5528
 17.6352  23.5336
 17.6583  23.375
 17.6813  23.3968
 17.7042  23.3742
 17.7273  23.3017
 17.7503  23.3775
 17.7733  23.462
 17.7963  23.4894
 17.8193  23.4344
 17.8423  23.436
 17.8653  23.3731
 17.8882  23.275
 17.9113  23.2994
 17.9343  23.3067
 17.9573  23.266
 17.9803  23.3588
 18.0033  23.5109
 18.0263  23.5771
 18.0493  23.6627
 18.0723  23.6242
 18.0953  23.5817
 18.1183  23.6151
 18.1413  23.6249
 18.1643  23.5017
 18.1872  23.3692
 18.2103  23.2956
 18.2333  23.2861
 18.2563  23.2578
 18.2793  23.2818
 18.3023  23.3204
 18.3253  23.3293
 18.3483  23.3456
 18.3712  23.3212
 18.3943  23.2306
 18.4173  23.2726
 18.4402  23.3044
 18.4633  23.293
 18.4863  23.2749
 18.5093  23.2774
 18.5323  23.2509
 18.5553  23.2076
 18.5783  23.0793
 18.6013  23.0897
 18.6242  23.0799
 18.6473  23.1412
 18.6703  23.1642
 18.6933  23.1382
 18.7163  23.0653
 18.7392  23.0399
 18.7623  23.0796
 18.7853  23.1339
 18.8083  23.203
 18.8313  23.2059
 18.8543  23.2177
 18.8773  23.0976
 18.9003  23.0606
 18.9232  23.0863
 18.9463  23.157
 18.9693  23.113
 18.9922  23.0836
 19.0153  23.056
 19.0383  23.1123
 19.0613  23.1672
 19.0843  23.1488
 19.1073  23.1394
 19.1303  23.206
 19.1533  23.2761
 19.1762  23.1612
 19.1993  23.044
 19.2223  23.0949
 19.2453  23.1334
 19.2683  23.1865
 19.2913  23.1395
 19.3143  23.092
 19.3373  23.1205
 19.3603  23.1742
 19.3833  23.2813
 19.4062  23.2729
 19.4293  23.2244
 19.4523  23.1992
 19.4752  23.1524
 19.4983  23.0595
 19.5213  23.1016
 19.5443  23.2186
 19.5673  23.1986
 19.5903  23.2686
 19.6133  23.2456
 19.6363  23.285
 19.6593  23.4385
 19.6823  23.7373
 19.7053  24.0581
 19.7283  24.0643
 19.7513  23.8907
 19.7742  23.792
 19.7973  23.7446
 19.8203  23.7319
 19.8433  23.8885
 19.8663  23.9146
 19.8893  23.8059
 19.9123  23.7052
 19.9353  23.5194
 19.9582  23.3318
 19.9813  23.3243
 20.0043  23.2931
 20.0272  23.2812
 20.0503  23.3185
 20.0733  23.165
 20.0963  23.1438
 20.1193  23.2679
 20.1423  23.3695
 20.1653  23.361
 20.1883  23.3352
 20.2112  23.3231
 20.2343  23.3438
 20.2573  23.2114
 20.2803  23.2149
 20.3033  23.2997
 20.3263  23.2856
 20.3493  23.289
 20.3723  23.3497
 20.3953  23.3217
 20.4183  23.453
 20.4413  23.4797
 20.4643  23.5026
 20.4873  23.461
 20.5102  23.4277
 20.5333  23.3787
 20.5563  23.426
 20.5792  23.4188
 20.6023  23.4605
 20.6253  23.538
 20.6483  23.5053
 20.6713  23.492
 20.6943  23.5803
 20.7173  23.662
 20.7403  23.7314
 20.7632  23.7824
 20.7863  23.7574
 20.8093  23.687
 20.8323  23.497
 20.8553  23.4442
 20.8783  23.548
 20.9013  23.5826
 20.9243  23.6129
 20.9473  23.5781
 20.9703  23.5178
 20.9933  23.4995
 21.0163  23.5118
 21.0393  23.4823
 21.0622  23.4103
 21.0853  23.4515
 21.1083  23.4725
 21.1313  23.5605
 21.1543  23.5271
 21.1773  23.4759
 21.2003  23.4674
 21.2233  23.4953
 21.2462  23.5132
 21.2693  23.5919
 21.2923  23.5376
 21.3152  23.5227
 21.3383  23.5255
 21.3613  23.6246
 21.3843  23.6267
 21.4073  23.5522
 21.4303  23.5876
 21.4533  23.575
 21.4763  23.558
 21.4992  23.6378
 21.5223  23.7288
 21.5453  23.828
 21.5683  23.8032
 21.5913  23.8142
 21.6142  23.7316
 21.6373  23.6607
 21.6603  23.6273
 21.6833  23.6398
 21.7063  23.6807
 21.7293  23.7258
 21.7523  23.7396
 21.7753  23.7413
 21.7982  23.8238
 21.8213  23.7768
 21.8443  23.7209
 21.8672  23.7921
 21.8903  23.7219
 21.9133  23.7711
 21.9363  23.8436
 21.9593  23.8078
 21.9823  23.8062
 22.0053  23.8032
 22.0283  23.9786
 22.0512  24.0581
 22.0743  23.9434
 22.0973  23.8513
 22.1203  23.9065
 22.1433  24.0481
 22.1663  24.0623
 22.1893  23.9484
 22.2123  23.9702
 22.2353  24.0109
 22.2583  24.1175
 22.2813  24.0345
 22.3043  24.0857
 22.3273  24.0873
 22.3502  24.1639
 22.3733  24.2556
 22.3963  24.1842
 22.4193  24.1995
 22.4423  24.2602
 22.4653  24.3334
 22.4883  24.3874
 22.5113  24.455
 22.5343  24.42
 22.5573  24.4347
 22.5803  24.4077
 22.6033  24.4435
 22.6263  24.5707
 22.6493  24.5841
 22.6723  24.6529
 22.6953  24.8051
 22.7183  24.8263
 22.7413  24.917
 22.7643  24.9672
 22.7873  24.9509
 22.8103  25.0144
 22.8333  25.1489
 22.8563  25.1853
 22.8793  25.2521
 22.9022  25.3402
 22.9253  25.4325
 22.9483  25.446
 22.9713  25.6756
 22.9943  25.8598