File: test-data-xrd/xrd-map-34-ID-E/Data_0077.chi
F:\20151113_APS_34IDE\\Brian\Particle1\OCV\Data_0077.tif
2-Theta Angle (Degrees)
Intensity
       2000
 0.01725  0.0000000E+00
 0.04025  0.0000000E+00
 0.06325  0.0000000E+00
 0.08625  0.0000000E+00
 0.10925  0.0000000E+00
 0.13225  0.0000000E+00
 0.15525  0.0000000E+00
 0.17825  0.0000000E+00
 0.20125  0.0000000E+00
 0.22425  0.0000000E+00
 0.24725  0.0000000E+00
 0.27025  0.0000000E+00
 0.29325  0.0000000E+00
 0.31625  0.0000000E+00
 0.33925  0.0000000E+00
 0.36225  0.0000000E+00
 0.38525  0.0000000E+00
 0.40825  0.0000000E+00
 0.43125  0.0000000E+00
 0.45425  0.0000000E+00
 0.47725  0.0000000E+00
 0.50025  0.0000000E+00
 0.52325  0.0000000E+00
 0.54625  0.0000000E+00
 0.56925  0.0000000E+00
 0.59225  0.0000000E+00
 0.61525  0.0000000E+00
 0.63825  0.0000000E+00
 0.66125  0.0000000E+00
 0.68425  0.0000000E+00
 0.70725  0.0000000E+00
 0.73025  0.0000000E+00
 0.75325  0.0000000E+00
 0.77625  0.0000000E+00
 0.79925  0.0000000E+00
 0.82225  0.0000000E+00
 0.84525  0.0000000E+00
 0.86825  0.0000000E+00
 0.89125  0.0000000E+00
 0.91425  0.0000000E+00
 0.93725  0.0000000E+00
 0.96025  0.0000000E+00
 0.98325  0.0000000E+00
 1.00625  0.0000000E+00
 1.02925  0.0000000E+00
 1.05225  0.0000000E+00
 1.07525  0.0000000E+00
 1.09825  0.0000000E+00
 1.12125  0.0000000E+00
 1.14425  0.0000000E+00
 1.16725  0.0000000E+00
 1.19025  0.0000000E+00
 1.21325  0.0000000E+00
 1.23625  0.0000000E+00
 1.25925  0.0000000E+00
 1.28225  0.0000000E+00
 1.30525  0.0000000E+00
 1.32825  0.0000000E+00
 1.35125  0.0000000E+00
 1.37425  0.0000000E+00
 1.39725  0.0000000E+00
 1.42025  0.0000000E+00
 1.44325  0.0000000E+00
 1.46625  0.0000000E+00
 1.48925  0.0000000E+00
 1.51225  0.0000000E+00
 1.53525  0.0000000E+00
 1.55825  0.0000000E+00
 1.58125  0.0000000E+00
 1.60425  0.0000000E+00
 1.62725  0.0000000E+00
 1.65025  0.0000000E+00
 1.67325  0.0000000E+00
 1.69625  0.0000000E+00
 1.71925  0.0000000E+00
 1.74225  0.0000000E+00
 1.76525  0.0000000E+00
 1.78825  0.0000000E+00
 1.81125  0.0000000E+00
 1.83425  0.0000000E+00
 1.85725  0.0000000E+00
 1.88025  0.0000000E+00
 1.90325  0.0000000E+00
 1.92625  0.0000000E+00
 1.94925  0.0000000E+00
 1.97225  0.0000000E+00
 1.99525  0.0000000E+00
 2.01825  0.0000000E+00
 2.04125  0.0000000E+00
 2.06425  0.0000000E+00
 2.08725  0.0000000E+00
 2.11025  0.0000000E+00
 2.13325  0.0000000E+00
 2.15625  0.0000000E+00
 2.17925  0.0000000E+00
 2.20225  0.0000000E+00
 2.22525  0.0000000E+00
 2.24825  0.0000000E+00
 2.27125  0.0000000E+00
 2.29425  0.0000000E+00
 2.31725  0.0000000E+00
 2.34025  0.0000000E+00
 2.36325  0.0000000E+00
 2.38625  0.0000000E+00
 2.40925  0.0000000E+00
 2.43225  0.0000000E+00
 2.45525  0.0000000E+00
 2.47825  0.0000000E+00
 2.50125  0.0000000E+00
 2.52425  0.0000000E+00
 2.54725  0.0000000E+00
 2.57025  0.0000000E+00
 2.59325  0.0000000E+00
 2.61625  0.0000000E+00
 2.63925  0.0000000E+00
 2.66225  0.0000000E+00
 2.68525  0.0000000E+00
 2.70825  0.0000000E+00
 2.73125  0.0000000E+00
 2.75425  0.0000000E+00
 2.77725  0.0000000E+00
 2.80025  0.0000000E+00
 2.82325  38.8617
 2.84625  36.407
 2.86925  36.2063
 2.89225  35.947
 2.91525  35.282
 2.93825  35.1298
 2.96125  35.6321
 2.98425  36.1072
 3.00725  36.4716
 3.03025  35.9965
 3.05325  35.7466
 3.07625  35.8225
 3.09925  36.0342
 3.12225  35.4314
 3.14525  35.1394
 3.16825  35.1766
 3.19125  34.9771
 3.21425  34.8608
 3.23725  35.0657
 3.26025  34.4741
 3.28325  33.8759
 3.30625  34.1544
 3.32925  34.6194
 3.35225  35.0911
 3.37525  35.2554
 3.39825  34.7067
 3.42125  33.9696
 3.44425  34.2922
 3.46725  34.4817
 3.49025  34.1609
 3.51325  33.4617
 3.53625  33.3055
 3.55925  33.39
 3.58225  33.2341
 3.60525  33.177
 3.62825  33.1295
 3.65125  33.1522
 3.67425  32.9984
 3.69725  32.6835
 3.72025  32.715
 3.74325  33.062
 3.76625  33.2604
 3.78925  32.962
 3.81225  32.7553
 3.83525  32.6349
 3.85825  32.7183
 3.88125  33.0674
 3.90425  32.7905
 3.92725  32.5761
 3.95025  32.5354
 3.97325  32.5388
 3.99625  32.6993
 4.01925  32.4727
 4.04225  32.4884
 4.06525  32.8245
 4.08825  32.8506
 4.11125  32.7109
 4.13425  32.4885
 4.15725  32.5278
 4.18025  32.1374
 4.20325  31.988
 4.22625  32.05
 4.24925  32.1693
 4.27225  32.2535
 4.29525  32.3827
 4.31825  32.3459
 4.34125  32.1044
 4.36425  32.1458
 4.38725  32.0945
 4.41025  32.0843
 4.43325  32.0194
 4.45625  32.2667
 4.47925  32.6886
 4.50225  32.6489
 4.52525  32.5806
 4.54825  32.7033
 4.57125  32.8796
 4.59425  33.0733
 4.61725  33.0334
 4.64025  32.9365
 4.66325  32.7065
 4.68625  32.4406
 4.70925  32.4678
 4.73225  32.555
 4.75525  32.3377
 4.77825  32.4991
 4.80125  32.4047
 4.82425  32.5089
 4.84725  32.5524
 4.87025  32.6154
 4.89325  32.4681
 4.91625  32.5197
 4.93925  32.7239
 4.96225  32.7365
 4.98525  33.0052
 5.00825  33.3628
 5.03125  33.3552
 5.05425  33.0737
 5.07725  33.1359
 5.10025  33.3588
 5.12325  33.4934
 5.14625  33.6741
 5.16925  33.8074
 5.19225  33.8951
 5.21525  33.9316
 5.23825  34.1156
 5.26125  34.0939
 5.28425  33.8908
 5.30725  34.0797
 5.33025  34.2498
 5.35325  34.3561
 5.37625  34.5713
 5.39925  34.8192
 5.42225  34.7507
 5.44525  34.698
 5.46825  34.6575
 5.49125  34.6448
 5.51425  34.8002
 5.53725  34.8152
 5.56025  34.9171
 5.58325  35.0197
 5.60625  34.9515
 5.62925  34.8785
 5.65225  34.9963
 5.67525  35.2571
 5.69825  35.3929
 5.72125  35.3309
 5.74425  35.3732
 5.76725  35.5033
 5.79025  35.6967
 5.81325  35.6322
 5.83625  35.5279
 5.85925  35.6133
 5.88225  35.9267
 5.90525  36.2733
 5.92825  36.8844
 5.95125  38.8428
 5.97425  41.2046
 5.99725  41.3078
 6.02025  39.3763
 6.04325  37.7238
 6.06625  36.9409
 6.08925  36.5279
 6.11225  36.6257
 6.13525  36.7094
 6.15825  36.7507
 6.18125  36.9122
 6.20425  37.0213
 6.22725  37.1548
 6.25025  37.3183
 6.27325  37.5619
 6.29625  37.8015
 6.31925  37.8435
 6.34225  38.1026
 6.36525  38.375
 6.38825  38.4736
 6.41125  38.4916
 6.43425  38.6222
 6.45725  38.8064
 6.48025  38.8508
 6.50325  39.0565
 6.52625  39.0296
 6.54925  39.2973
 6.57225  39.7015
 6.59525  39.825
 6.61825  39.9134
 6.64125  40.1945
 6.66425  40.3203
 6.68725  40.3405
 6.71025  40.3376
 6.73325  40.5002
 6.75625  40.6702
 6.77925  40.9074
 6.80225  41.1069
 6.82525  41.3156
 6.84825  41.4145
 6.87125  41.3622
 6.89425  41.5559
 6.91725  41.789
 6.94025  41.9905
 6.96325  42.2081
 6.98625  42.3514
 7.00925  42.3553
 7.03225  42.4905
 7.05525  42.5022
 7.07825  42.6131
 7.10125  42.7904
 7.12425  43.0117
 7.14725  43.2249
 7.17025  43.4998
 7.19325  43.7047
 7.21625  43.7697
 7.23925  43.9699
 7.26225  44.0615
 7.28525  43.8728
 7.30825  43.8102
 7.33125  44.1358
 7.35425  44.272
 7.37725  44.1833
 7.40025  44.1061
 7.42325  43.9408
 7.44625  43.8248
 7.46925  44.0497
 7.49225  44.2665
 7.51525  44.432
 7.53825  44.433
 7.56125  44.4127
 7.58425  44.4494
 7.60725  44.4228
 7.63025  44.3023
 7.65325  44.32
 7.67625  44.2594
 7.69925  44.4171
 7.72225  44.489
 7.74525  44.6054
 7.76825  44.5086
 7.79125  44.4368
 7.81425  44.2368
 7.83725  44.0327
 7.86025  43.9467
 7.88325  43.7474
 7.90625  43.6623
 7.92925  43.6765
 7.95225  43.708
 7.97525  43.704
 7.99825  43.6561
 8.02125  43.504
 8.04425  43.3118
 8.06725  43.1386
 8.09025  43.0523
 8.11325  42.9677
 8.13625  42.8277
 8.15925  42.6183
 8.18225  42.4078
 8.20525  42.2062
 8.22825  41.8069
 8.25125  41.6664
 8.27425  41.4173
 8.29725  40.8785
 8.32025  40.5304
 8.34325  40.4708
 8.36625  40.3634
 8.38925  39.854
 8.41225  39.3956
 8.43525  38.8772
 8.45825  38.554
 8.48125  38.3177
 8.50425  37.923
 8.52725  37.7442
 8.55025  37.4041
 8.57325  36.9938
 8.59625  36.5311
 8.61925  36.2711
 8.64225  36.0435
 8.66525  35.6253
 8.68825  35.2144
 8.71125  34.8042
 8.73425  34.3726
 8.75725  34.0489
 8.78025  33.8128
 8.80325  33.5077
 8.82625  33.1935
 8.84925  32.8015
 8.87225  32.5188
 8.89525  32.3924
 8.91825  32.1115
 8.94125  31.6834
 8.96425  31.2728
 8.98725  30.9092
 9.01025  30.7008
 9.03325  30.5389
 9.05625  30.247
 9.07925  29.9613
 9.10225  29.5626
 9.12525  29.3077
 9.14825  29.1926
 9.17125  29.0702
 9.19425  28.828
 9.21725  28.5911
 9.24025  28.2706
 9.26325  28.0276
 9.28625  27.8359
 9.30925  27.6502
 9.33225  27.4252
 9.35525  27.2497
 9.37825  27.129
 9.40125  27.1081
 9.42425  26.8465
 9.44725  26.6094
 9.47025  26.531
 9.49325  26.421
 9.51625  26.2378
 9.53925  26.1042
 9.56225  26.0006
 9.58525  25.8822
 9.60825  25.751
 9.63125  25.6899
 9.65425  25.58
 9.67725  25.3907
 9.70025  25.1245
 9.72325  25.0706
 9.74625  24.9865
 9.76925  24.8765
 9.79225  24.8555
 9.81525  24.8243
 9.83825  24.6137
 9.86125  24.4861
 9.88425  24.3447
 9.90725  24.3637
 9.93025  24.3581
 9.95325  24.3245
 9.97625  24.2618
 9.99925  24.2041
 10.0222  24.11
 10.0453  24.0789
 10.0683  23.9694
 10.0913  23.8842
 10.1143  23.8267
 10.1373  23.7666
 10.1603  23.7493
 10.1832  23.6906
 10.2063  23.6935
 10.2293  23.6537
 10.2523  23.4986
 10.2752  23.4027
 10.2982  23.4782
 10.3213  23.4627
 10.3443  23.3524
 10.3673  23.1226
 10.3902  23.1736
 10.4133  23.2747
 10.4363  23.1606
 10.4593  23.0559
 10.4823  23.0891
 10.5053  23.0968
 10.5283  23.1049
 10.5512  23.0784
 10.5742  23.0256
 10.5973  22.848
 10.6203  22.8507
 10.6433  22.9223
 10.6662  22.9526
 10.6893  22.8935
 10.7123  22.8754
 10.7353  22.834
 10.7583  22.7515
 10.7813  22.7673
 10.8043  22.737
 10.8272  22.7721
 10.8503  22.7551
 10.8733  22.6436
 10.8963  22.5164
 10.9192  22.6046
 10.9422  22.6706
 10.9653  22.6584
 10.9883  22.6446
 11.0113  22.5504
 11.0343  22.5004
 11.0573  22.4295
 11.0803  22.4393
 11.1033  22.5945
 11.1263  22.5177
 11.1493  22.4248
 11.1723  22.4363
 11.1953  22.4168
 11.2182  22.492
 11.2413  22.4413
 11.2643  22.3692
 11.2873  22.3385
 11.3102  22.308
 11.3333  22.2558
 11.3563  22.1942
 11.3793  22.3599
 11.4023  22.607
 11.4253  22.577
 11.4483  22.4877
 11.4713  22.4376
 11.4942  22.3937
 11.5173  22.4546
 11.5403  22.791
 11.5633  23.38
 11.5862  24.0665
 11.6093  24.2098
 11.6323  23.6102
 11.6553  22.817
 11.6783  22.4398
 11.7013  22.2869
 11.7243  22.2869
 11.7473  22.305
 11.7703  22.2726
 11.7933  22.2464
 11.8163  22.2541
 11.8393  22.1964
 11.8622  22.1978
 11.8853  22.2689
 11.9083  22.3508
 11.9313  22.3063
 11.9543  22.3346
 11.9773  22.388
 12.0003  22.3031
 12.0233  22.2522
 12.0463  22.3111
 12.0693  22.4934
 12.0923  22.7535
 12.1153  22.7042
 12.1382  22.6293
 12.1613  22.5112
 12.1843  22.3632
 12.2073  22.284
 12.2302  22.3019
 12.2533  22.4102
 12.2763  22.4624
 12.2993  22.5503
 12.3223  22.5843
 12.3453  22.5189
 12.3683  22.4489
 12.3913  22.4485
 12.4142  22.4062
 12.4373  22.5095
 12.4603  22.6031
 12.4833  22.6313
 12.5062  22.6381
 12.5292  22.65
 12.5523  22.7326
 12.5753  22.6821
 12.5983  22.6943
 12.6212  22.8179
 12.6443  22.7874
 12.6673  22.6981
 12.6903  22.7445
 12.7133  22.8069
 12.7363  22.8204
 12.7593  22.902
 12.7822  23.0354
 12.8052  23.067
 12.8283  23.1405
 12.8513  23.1711
 12.8742  23.2487
 12.8972  23.3047
 12.9203  23.4051
 12.9433  23.4727
 12.9663  23.6451
 12.9893  23.6767
 13.0123  23.6584
 13.0353  23.9369
 13.0582  24.2665
 13.0813  24.457
 13.1043  24.7153
 13.1273  25.0139
 13.1502  25.1679
 13.1732  25.2225
 13.1963  25.505
 13.2193  25.8187
 13.2423  26.2119
 13.2652  26.5693
 13.2883  26.7851
 13.3113  26.9308
 13.3343  27.2888
 13.3573  27.6794
 13.3803  27.8642
 13.4033  28.156
 13.4262  28.4301
 13.4492  28.5699
 13.4723  28.8276
 13.4953  29.0556
 13.5183  29.3039
 13.5412  29.5049
 13.5643  29.6307
 13.5873  29.6925
 13.6103  29.5916
 13.6333  29.5305
 13.6563  29.5346
 13.6793  29.6685
 13.7022  29.4757
 13.7253  29.281
 13.7483  29.0813
 13.7713  29.0553
 13.7942  29.0927
 13.8172  29.0903
 13.8403  29.1089
 13.8633  29.334
 13.8863  29.8624
 13.9093  31.0975
 13.9323  35.5779
 13.9553  38.9075
 13.9783  37.1173
 14.0013  31.5343
 14.0243  28.7522
 14.0473  27.9258
 14.0703  27.6131
 14.0932  27.3561
 14.1163  27.1501
 14.1393  27.0765
 14.1623  26.9451
 14.1852  26.7767
 14.2083  26.5609
 14.2313  26.4631
 14.2543  26.3667
 14.2773  26.2202
 14.3003  26.2102
 14.3233  26.1924
 14.3463  26.0466
 14.3692  25.9075
 14.3923  25.8403
 14.4153  25.7427
 14.4383  25.7461
 14.4612  25.6334
 14.4843  25.5101
 14.5073  25.5392
 14.5303  25.538
 14.5533  25.4873
 14.5763  25.3117
 14.5993  25.1392
 14.6223  25.1591
 14.6453  25.2323
 14.6683  25.2724
 14.6913  25.2285
 14.7143  25.2014
 14.7372  24.9771
 14.7603  24.9251
 14.7833  24.9436
 14.8063  24.9173
 14.8293  24.8352
 14.8523  24.7785
 14.8753  24.6274
 14.8983  24.6716
 14.9213  24.6378
 14.9443  24.6466
 14.9673  24.6891
 14.9903  24.7099
 15.0132  24.8299
 15.0363  24.8392
 15.0593  24.7339
 15.0823  24.5534
 15.1052  24.5147
 15.1283  24.6162
 15.1513  24.9305
 15.1743  25.2677
 15.1973  25.3964
 15.2203  25.1429
 15.2433  24.8471
 15.2663  24.688
 15.2892  24.6115
 15.3123  24.4551
 15.3353  24.3559
 15.3583  24.3868
 15.3812  24.3386
 15.4043  24.3385
 15.4273  24.3183
 15.4503  24.298
 15.4733  24.3326
 15.4963  24.436
 15.5193  24.4275
 15.5423  24.4361
 15.5653  24.4632
 15.5883  24.4421
 15.6113  24.3836
 15.6343  24.3598
 15.6572  24.399
 15.6803  24.3279
 15.7033  24.3471
 15.7263  24.4055
 15.7492  24.4337
 15.7723  24.5041
 15.7953  24.562
 15.8183  24.524
 15.8413  24.3994
 15.8643  24.3397
 15.8873  24.4388
 15.9103  24.5686
 15.9332  24.4981
 15.9563  24.4081
 15.9793  24.3787
 16.0023  24.4414
 16.0253  24.4835
 16.0482  24.5149
 16.0713  24.4843
 16.0943  24.6204
 16.1172  24.7005
 16.1403  24.6467
 16.1633  24.6201
 16.1863  24.7178
 16.2093  24.7832
 16.2323  24.8145
 16.2553  24.9702
 16.2783  25.0441
 16.3012  24.8835
 16.3243  24.7033
 16.3472  24.5933
 16.3703  24.5168
 16.3933  24.6074
 16.4163  24.6389
 16.4393  24.5155
 16.4623  24.4449
 16.4853  24.5096
 16.5083  24.6268
 16.5312  24.5361
 16.5543  24.5992
 16.5773  24.5604
 16.6002  24.456
 16.6233  24.3904
 16.6463  24.3403
 16.6693  24.4009
 16.6923  24.3652
 16.7153  24.3239
 16.7383  24.3239
 16.7613  24.3575
 16.7843  24.3462
 16.8073  24.2861
 16.8303  24.2894
 16.8533  24.243
 16.8763  24.2117
 16.8992  24.2327
 16.9223  24.1449
 16.9453  24.0812
 16.9683  24.119
 16.9913  24.109
 17.0143  24.0582
 17.0373  24.0122
 17.0603  23.8927
 17.0832  23.9232
 17.1063  23.9486
 17.1293  23.9683
 17.1522  23.9866
 17.1753  24.0568
 17.1983  24.0828
 17.2213  24.0221
 17.2443  23.9313
 17.2673  23.8327
 17.2903  23.8342
 17.3133  23.9118
 17.3362  23.9372
 17.3593  23.9321
 17.3823  23.8944
 17.4053  23.7444
 17.4283  23.7204
 17.4513  23.8348
 17.4743  23.9042
 17.4973  23.8305
 17.5203  23.7902
 17.5433  23.8529
 17.5663  23.7087
 17.5893  23.5748
 17.6123  23.6152
 17.6352  23.6089
 17.6583  23.6009
 17.6813  23.6548
 17.7042  23.6826
 17.7273  23.6579
 17.7503  23.5576
 17.7733  23.5728
 17.7963  23.6812
 17.8193  23.5198
 17.8423  23.5042
 17.8653  23.5945
 17.8882  23.5297
 17.9113  23.5481
 17.9343  23.6167
 17.9573  23.5727
 17.9803  23.5418
 18.0033  23.6417
 18.0263  23.8183
 18.0493  23.9698
 18.0723  24.3461
 18.0953  24.5973
 18.1183  24.5027
 18.1413  24.0648
 18.1643  23.7427
 18.1872  23.6148
 18.2103  23.5789
 18.2333  23.4929
 18.2563  23.4337
 18.2793  23.3897
 18.3023  23.3343
 18.3253  23.3098
 18.3483  23.2951
 18.3712  23.3825
 18.3943  23.4886
 18.4173  23.4533
 18.4402  23.3593
 18.4633  23.3723
 18.4863  23.417
 18.5093  23.3772
 18.5323  23.3279
 18.5553  23.2903
 18.5783  23.3699
 18.6013  23.3938
 18.6242  23.2761
 18.6473  23.239
 18.6703  23.3294
 18.6933  23.4252
 18.7163  23.3591
 18.7392  23.3374
 18.7623  23.3985
 18.7853  23.3411
 18.8083  23.3783
 18.8313  23.3406
 18.8543  23.2626
 18.8773  23.2904
 18.9003  23.3591
 18.9232  23.4021
 18.9463  23.4321
 18.9693  23.3472
 18.9922  23.3313
 19.0153  23.3481
 19.0383  23.3968
 19.0613  23.3809
 19.0843  23.412
 19.1073  23.3484
 19.1303  23.379
 19.1533  23.4021
 19.1762  23.2539
 19.1993  23.1991
 19.2223  23.1502
 19.2453  23.2243
 19.2683  23.3097
 19.2913  23.3409
 19.3143  23.3716
 19.3373  23.3827
 19.3603  23.473
 19.3833  23.466
 19.4062  23.4549
 19.4293  23.4694
 19.4523  23.4456
 19.4752  23.3472
 19.4983  23.3122
 19.5213  23.4366
 19.5443  23.4917
 19.5673  23.4191
 19.5903  23.4151
 19.6133  23.4513
 19.6363  23.4996
 19.6593  23.6553
 19.6823  23.831
 19.7053  24.1305
 19.7283  24.199
 19.7513  24.0536
 19.7742  23.9205
 19.7973  23.8933
 19.8203  24.045
 19.8433  24.2468
 19.8663  24.3897
 19.8893  24.3636
 19.9123  24.0755
 19.9353  23.6425
 19.9582  23.5628
 19.9813  23.5823
 20.0043  23.5912
 20.0272  23.5511
 20.0503  23.4778
 20.0733  23.4172
 20.0963  23.4038
 20.1193  23.34
 20.1423  23.3971
 20.1653  23.4725
 20.1883  23.4526
 20.2112  23.3986
 20.2343  23.3882
 20.2573  23.3809
 20.2803  23.3737
 20.3033  23.3728
 20.3263  23.3339
 20.3493  23.3332
 20.3723  23.3625
 20.3953  23.4933
 20.4183  23.5816
 20.4413  23.4914
 20.4643  23.4718
 20.4873  23.5192
 20.5102  23.461
 20.5333  23.281
 20.5563  23.4451
 20.5792  23.5365
 20.6023  23.622
 20.6253  23.6937
 20.6483  23.6779
 20.6713  23.621
 20.6943  23.7338
 20.7173  23.8675
 20.7403  24.1177
 20.7632  24.2664
 20.7863  24.1038
 20.8093  23.9815
 20.8323  23.8314
 20.8553  23.8597
 20.8783  23.9454
 20.9013  23.9081
 20.9243  23.8329
 20.9473  23.7508
 20.9703  23.6269
 20.9933  23.6702
 21.0163  23.6895
 21.0393  23.7015
 21.0622  23.6163
 21.0853  23.6348
 21.1083  23.6851
 21.1313  23.7325
 21.1543  23.6284
 21.1773  23.7154
 21.2003  23.7427
 21.2233  23.7583
 21.2462  23.7492
 21.2693  23.7522
 21.2923  23.7322
 21.3152  23.6763
 21.3383  23.7056
 21.3613  23.781
 21.3843  23.7101
 21.4073  23.739
 21.4303  23.7527
 21.4533  23.781
 21.4763  23.7887
 21.4992  23.8126
 21.5223  23.7641
 21.5453  23.7622
 21.5683  23.8023
 21.5913  23.9774
 21.6142  23.9531
 21.6373  23.8683
 21.6603  23.8757
 21.6833  24.0042
 21.7063  23.9502
 21.7293  23.9695
 21.7523  23.96
 21.7753  23.9594
 21.7982  24.0184
 21.8213  24.0292
 21.8443  23.9467
 21.8672  24.0222
 21.8903  24.0523
 21.9133  24.0298
 21.9363  23.9742
 21.9593  23.9571
 21.9823  24.0616
 22.0053  24.1428
 22.0283  24.1953
 22.0512  24.2336
 22.0743  24.1526
 22.0973  24.0697
 22.1203  24.1931
 22.1433  24.2693
 22.1663  24.2271
 22.1893  24.182
 22.2123  24.2008
 22.2353  24.2333
 22.2583  24.233
 22.2813  24.2893
 22.3043  24.255
 22.3273  24.1853
 22.3502  24.3435
 22.3733  24.4195
 22.3963  24.3628
 22.4193  24.3146
 22.4423  24.4383
 22.4653  24.5017
 22.4883  24.4261
 22.5113  24.5315
 22.5343  24.6277
 22.5573  24.6911
 22.5803  24.6062
 22.6033  24.559
 22.6263  24.6328
 22.6493  24.7068
 22.6723  24.7975
 22.6953  24.9201
 22.7183  24.9695
 22.7413  25.0057
 22.7643  25.1507
 22.7873  25.0895
 22.8103  25.1867
 22.8333  25.3394
 22.8563  25.3185
 22.8793  25.3513
 22.9022  25.5395
 22.9253  25.7652
 22.9483  25.8061
 22.9713  26.0016
 22.9943  26.1429