File: test-data-xrd/xrd-map-34-ID-E/Data_0046.chi
F:\20151113_APS_34IDE\\Brian\Particle1\OCV\Data_0046.tif
2-Theta Angle (Degrees)
Intensity
       2000
 0.01725  0.0000000E+00
 0.04025  0.0000000E+00
 0.06325  0.0000000E+00
 0.08625  0.0000000E+00
 0.10925  0.0000000E+00
 0.13225  0.0000000E+00
 0.15525  0.0000000E+00
 0.17825  0.0000000E+00
 0.20125  0.0000000E+00
 0.22425  0.0000000E+00
 0.24725  0.0000000E+00
 0.27025  0.0000000E+00
 0.29325  0.0000000E+00
 0.31625  0.0000000E+00
 0.33925  0.0000000E+00
 0.36225  0.0000000E+00
 0.38525  0.0000000E+00
 0.40825  0.0000000E+00
 0.43125  0.0000000E+00
 0.45425  0.0000000E+00
 0.47725  0.0000000E+00
 0.50025  0.0000000E+00
 0.52325  0.0000000E+00
 0.54625  0.0000000E+00
 0.56925  0.0000000E+00
 0.59225  0.0000000E+00
 0.61525  0.0000000E+00
 0.63825  0.0000000E+00
 0.66125  0.0000000E+00
 0.68425  0.0000000E+00
 0.70725  0.0000000E+00
 0.73025  0.0000000E+00
 0.75325  0.0000000E+00
 0.77625  0.0000000E+00
 0.79925  0.0000000E+00
 0.82225  0.0000000E+00
 0.84525  0.0000000E+00
 0.86825  0.0000000E+00
 0.89125  0.0000000E+00
 0.91425  0.0000000E+00
 0.93725  0.0000000E+00
 0.96025  0.0000000E+00
 0.98325  0.0000000E+00
 1.00625  0.0000000E+00
 1.02925  0.0000000E+00
 1.05225  0.0000000E+00
 1.07525  0.0000000E+00
 1.09825  0.0000000E+00
 1.12125  0.0000000E+00
 1.14425  0.0000000E+00
 1.16725  0.0000000E+00
 1.19025  0.0000000E+00
 1.21325  0.0000000E+00
 1.23625  0.0000000E+00
 1.25925  0.0000000E+00
 1.28225  0.0000000E+00
 1.30525  0.0000000E+00
 1.32825  0.0000000E+00
 1.35125  0.0000000E+00
 1.37425  0.0000000E+00
 1.39725  0.0000000E+00
 1.42025  0.0000000E+00
 1.44325  0.0000000E+00
 1.46625  0.0000000E+00
 1.48925  0.0000000E+00
 1.51225  0.0000000E+00
 1.53525  0.0000000E+00
 1.55825  0.0000000E+00
 1.58125  0.0000000E+00
 1.60425  0.0000000E+00
 1.62725  0.0000000E+00
 1.65025  0.0000000E+00
 1.67325  0.0000000E+00
 1.69625  0.0000000E+00
 1.71925  0.0000000E+00
 1.74225  0.0000000E+00
 1.76525  0.0000000E+00
 1.78825  0.0000000E+00
 1.81125  0.0000000E+00
 1.83425  0.0000000E+00
 1.85725  0.0000000E+00
 1.88025  0.0000000E+00
 1.90325  0.0000000E+00
 1.92625  0.0000000E+00
 1.94925  0.0000000E+00
 1.97225  0.0000000E+00
 1.99525  0.0000000E+00
 2.01825  0.0000000E+00
 2.04125  0.0000000E+00
 2.06425  0.0000000E+00
 2.08725  0.0000000E+00
 2.11025  0.0000000E+00
 2.13325  0.0000000E+00
 2.15625  0.0000000E+00
 2.17925  0.0000000E+00
 2.20225  0.0000000E+00
 2.22525  0.0000000E+00
 2.24825  0.0000000E+00
 2.27125  0.0000000E+00
 2.29425  0.0000000E+00
 2.31725  0.0000000E+00
 2.34025  0.0000000E+00
 2.36325  0.0000000E+00
 2.38625  0.0000000E+00
 2.40925  0.0000000E+00
 2.43225  0.0000000E+00
 2.45525  0.0000000E+00
 2.47825  0.0000000E+00
 2.50125  0.0000000E+00
 2.52425  0.0000000E+00
 2.54725  0.0000000E+00
 2.57025  0.0000000E+00
 2.59325  0.0000000E+00
 2.61625  0.0000000E+00
 2.63925  0.0000000E+00
 2.66225  0.0000000E+00
 2.68525  0.0000000E+00
 2.70825  0.0000000E+00
 2.73125  0.0000000E+00
 2.75425  0.0000000E+00
 2.77725  0.0000000E+00
 2.80025  0.0000000E+00
 2.82325  34.9108
 2.84625  35.1234
 2.86925  35.1852
 2.89225  35.4666
 2.91525  36.7437
 2.93825  36.4709
 2.96125  35.0813
 2.98425  34.3558
 3.00725  34.4426
 3.03025  34.54
 3.05325  35.1361
 3.07625  34.827
 3.09925  34.8581
 3.12225  35.1575
 3.14525  35.6183
 3.16825  35.9413
 3.19125  35.9652
 3.21425  35.5328
 3.23725  34.6975
 3.26025  34.2509
 3.28325  34.0977
 3.30625  33.8212
 3.32925  33.8942
 3.35225  34.1923
 3.37525  34.3725
 3.39825  34.2415
 3.42125  34.0984
 3.44425  34.9665
 3.46725  35.5777
 3.49025  35.4541
 3.51325  34.9022
 3.53625  34.4798
 3.55925  33.8317
 3.58225  33.5494
 3.60525  33.5646
 3.62825  33.6163
 3.65125  33.9019
 3.67425  33.9598
 3.69725  33.5437
 3.72025  32.9559
 3.74325  32.771
 3.76625  32.9092
 3.78925  33.1904
 3.81225  33.4275
 3.83525  33.3439
 3.85825  33.1509
 3.88125  33.1471
 3.90425  32.7852
 3.92725  32.4956
 3.95025  32.7522
 3.97325  32.8665
 3.99625  32.6691
 4.01925  32.4883
 4.04225  32.3785
 4.06525  32.5191
 4.08825  32.3252
 4.11125  32.3242
 4.13425  32.5763
 4.15725  32.5574
 4.18025  32.4991
 4.20325  32.5697
 4.22625  32.6857
 4.24925  32.5955
 4.27225  32.5737
 4.29525  32.5687
 4.31825  32.2891
 4.34125  32.051
 4.36425  32.1319
 4.38725  32.3631
 4.41025  32.3902
 4.43325  32.3245
 4.45625  32.4565
 4.47925  32.3529
 4.50225  32.1866
 4.52525  32.2119
 4.54825  32.4502
 4.57125  32.6973
 4.59425  32.9307
 4.61725  32.9164
 4.64025  32.7969
 4.66325  32.7917
 4.68625  32.6902
 4.70925  32.6609
 4.73225  32.6384
 4.75525  32.5427
 4.77825  32.6252
 4.80125  32.7367
 4.82425  32.7247
 4.84725  32.7367
 4.87025  32.9087
 4.89325  32.9166
 4.91625  32.874
 4.93925  32.6123
 4.96225  32.4527
 4.98525  32.5334
 5.00825  32.7772
 5.03125  33.0999
 5.05425  33.3571
 5.07725  33.2987
 5.10025  33.4178
 5.12325  33.4896
 5.14625  33.607
 5.16925  33.6829
 5.19225  33.8354
 5.21525  34.0353
 5.23825  34.0004
 5.26125  33.8939
 5.28425  33.9189
 5.30725  34.0272
 5.33025  34.1691
 5.35325  34.1084
 5.37625  34.2591
 5.39925  34.3254
 5.42225  34.3243
 5.44525  34.5989
 5.46825  35.0288
 5.49125  35.1161
 5.51425  35.2065
 5.53725  35.2084
 5.56025  35.2089
 5.58325  35.3847
 5.60625  35.4367
 5.62925  35.3388
 5.65225  35.4227
 5.67525  35.6316
 5.69825  35.6313
 5.72125  35.4813
 5.74425  35.5472
 5.76725  35.7706
 5.79025  36.2047
 5.81325  36.4304
 5.83625  36.3316
 5.85925  36.5621
 5.88225  37.6332
 5.90525  40.6231
 5.92825  47.2423
 5.95125  64.8101
 5.97425  81.6927
 5.99725  77.6942
 6.02025  59.6582
 6.04325  44.2956
 6.06625  40.3228
 6.08925  38.4113
 6.11225  38.0468
 6.13525  37.6331
 6.15825  37.3102
 6.18125  37.3041
 6.20425  37.2508
 6.22725  37.5036
 6.25025  37.5252
 6.27325  37.5221
 6.29625  37.6462
 6.31925  37.6081
 6.34225  37.8719
 6.36525  38.064
 6.38825  38.344
 6.41125  38.2612
 6.43425  38.3634
 6.45725  38.6482
 6.48025  38.9044
 6.50325  39.3517
 6.52625  39.4596
 6.54925  39.3858
 6.57225  39.5223
 6.59525  39.6404
 6.61825  39.83
 6.64125  39.9927
 6.66425  40.1623
 6.68725  40.0284
 6.71025  40.1772
 6.73325  40.5422
 6.75625  40.8965
 6.77925  41.1332
 6.80225  41.2808
 6.82525  41.4044
 6.84825  41.6241
 6.87125  41.8361
 6.89425  41.8178
 6.91725  41.7439
 6.94025  41.955
 6.96325  42.2866
 6.98625  42.5177
 7.00925  42.4868
 7.03225  42.5281
 7.05525  42.4804
 7.07825  42.4678
 7.10125  42.677
 7.12425  42.9764
 7.14725  43.118
 7.17025  43.2932
 7.19325  43.3682
 7.21625  43.3501
 7.23925  43.4416
 7.26225  43.6433
 7.28525  43.8934
 7.30825  43.9279
 7.33125  43.8238
 7.35425  43.6768
 7.37725  43.6986
 7.40025  43.7478
 7.42325  43.841
 7.44625  43.8895
 7.46925  43.9637
 7.49225  44.1831
 7.51525  44.2248
 7.53825  44.1617
 7.56125  44.034
 7.58425  44.0532
 7.60725  44.013
 7.63025  44.0687
 7.65325  44.2815
 7.67625  44.2272
 7.69925  44.1526
 7.72225  44.3661
 7.74525  44.5584
 7.76825  44.185
 7.79125  44.0941
 7.81425  43.9045
 7.83725  44.0186
 7.86025  44.1698
 7.88325  44.0385
 7.90625  44.0257
 7.92925  44.1276
 7.95225  44.0686
 7.97525  43.8232
 7.99825  43.6678
 8.02125  43.4969
 8.04425  43.2876
 8.06725  42.9504
 8.09025  42.7486
 8.11325  42.7391
 8.13625  42.6435
 8.15925  42.4358
 8.18225  42.1601
 8.20525  41.9373
 8.22825  41.7329
 8.25125  41.6265
 8.27425  41.4173
 8.29725  41.0783
 8.32025  40.7795
 8.34325  40.5161
 8.36625  40.221
 8.38925  39.7729
 8.41225  39.2696
 8.43525  38.9789
 8.45825  38.7059
 8.48125  38.2567
 8.50425  37.8983
 8.52725  37.6177
 8.55025  37.3279
 8.57325  37.0179
 8.59625  36.6159
 8.61925  36.4059
 8.64225  36.149
 8.66525  35.6307
 8.68825  35.1895
 8.71125  34.8616
 8.73425  34.439
 8.75725  33.9115
 8.78025  33.4916
 8.80325  33.2748
 8.82625  33.1353
 8.84925  32.905
 8.87225  32.5288
 8.89525  32.1442
 8.91825  31.8023
 8.94125  31.4899
 8.96425  31.2682
 8.98725  31.0979
 9.01025  30.7754
 9.03325  30.3594
 9.05625  30.1528
 9.07925  29.8824
 9.10225  29.6105
 9.12525  29.4753
 9.14825  29.2476
 9.17125  28.8598
 9.19425  28.7005
 9.21725  28.5014
 9.24025  28.3208
 9.26325  28.1846
 9.28625  28.0293
 9.30925  27.9621
 9.33225  27.7287
 9.35525  27.4702
 9.37825  27.2138
 9.40125  27.0066
 9.42425  26.8159
 9.44725  26.7174
 9.47025  26.6493
 9.49325  26.4551
 9.51625  26.2727
 9.53925  26.1418
 9.56225  26.0871
 9.58525  25.9587
 9.60825  25.9317
 9.63125  25.8007
 9.65425  25.629
 9.67725  25.4664
 9.70025  25.2963
 9.72325  25.1863
 9.74625  25.2185
 9.76925  25.2532
 9.79225  25.1481
 9.81525  24.9892
 9.83825  24.815
 9.86125  24.6252
 9.88425  24.5721
 9.90725  24.4758
 9.93025  24.5283
 9.95325  24.4269
 9.97625  24.3812
 9.99925  24.2404
 10.0222  24.2507
 10.0453  24.2826
 10.0683  24.2358
 10.0913  24.0574
 10.1143  23.9848
 10.1373  24.0087
 10.1603  23.9804
 10.1832  23.8714
 10.2063  23.7796
 10.2293  23.7653
 10.2523  23.6342
 10.2752  23.5835
 10.2982  23.5242
 10.3213  23.5565
 10.3443  23.5674
 10.3673  23.5546
 10.3902  23.5988
 10.4133  23.5563
 10.4363  23.4697
 10.4593  23.3671
 10.4823  23.4113
 10.5053  23.4245
 10.5283  23.2781
 10.5512  23.112
 10.5742  23.1169
 10.5973  23.1316
 10.6203  23.1145
 10.6433  23.0365
 10.6662  23.0792
 10.6893  23.2682
 10.7123  23.2581
 10.7353  23.0311
 10.7583  22.973
 10.7813  23.0075
 10.8043  22.9314
 10.8272  22.9111
 10.8503  22.9597
 10.8733  22.9638
 10.8963  22.8831
 10.9192  22.8179
 10.9422  22.7225
 10.9653  22.6537
 10.9883  22.6318
 11.0113  22.6894
 11.0343  22.7595
 11.0573  22.7513
 11.0803  22.7488
 11.1033  22.6547
 11.1263  22.6236
 11.1493  22.6036
 11.1723  22.709
 11.1953  22.7632
 11.2182  22.7151
 11.2413  22.7876
 11.2643  22.8326
 11.2873  22.8547
 11.3102  22.6174
 11.3333  22.7081
 11.3563  22.73
 11.3793  22.8616
 11.4023  23.1374
 11.4253  23.3609
 11.4483  23.4855
 11.4713  23.6969
 11.4942  24.0954
 11.5173  25.5664
 11.5403  30.3949
 11.5633  40.3552
 11.5862  49.7983
 11.6093  46.1531
 11.6323  33.3742
 11.6553  26.383
 11.6783  24.217
 11.7013  23.5217
 11.7243  23.2925
 11.7473  23.1267
 11.7703  22.9355
 11.7933  22.7547
 11.8163  22.7759
 11.8393  22.7644
 11.8622  22.6237
 11.8853  22.6357
 11.9083  22.8135
 11.9313  23.1426
 11.9543  23.6094
 11.9773  24.1892
 12.0003  24.2385
 12.0233  23.7625
 12.0463  23.3903
 12.0693  23.528
 12.0923  23.9451
 12.1153  24.0463
 12.1382  23.7824
 12.1613  23.289
 12.1843  22.9295
 12.2073  22.6909
 12.2302  22.5797
 12.2533  22.5889
 12.2763  22.5533
 12.2993  22.5129
 12.3223  22.5513
 12.3453  22.6451
 12.3683  22.6532
 12.3913  22.6394
 12.4142  22.622
 12.4373  22.6847
 12.4603  22.6052
 12.4833  22.7438
 12.5062  22.7186
 12.5292  22.6815
 12.5523  22.7992
 12.5753  22.8632
 12.5983  22.789
 12.6212  22.793
 12.6443  22.7941
 12.6673  22.7279
 12.6903  22.8032
 12.7133  22.9128
 12.7363  22.9543
 12.7593  22.9496
 12.7822  23.0968
 12.8052  23.1462
 12.8283  23.253
 12.8513  23.3985
 12.8742  23.5656
 12.8972  23.6276
 12.9203  23.6517
 12.9433  23.7544
 12.9663  23.7749
 12.9893  23.8432
 13.0123  24.0176
 13.0353  24.1952
 13.0582  24.2946
 13.0813  24.4716
 13.1043  24.7514
 13.1273  25.0594
 13.1502  25.3539
 13.1732  25.6009
 13.1963  25.6875
 13.2193  25.983
 13.2423  26.4375
 13.2652  26.7919
 13.2883  27.2424
 13.3113  27.565
 13.3343  27.6938
 13.3573  27.677
 13.3803  27.7987
 13.4033  28.1433
 13.4262  28.4832
 13.4492  28.7272
 13.4723  28.884
 13.4953  29.1919
 13.5183  29.5192
 13.5412  29.7472
 13.5643  29.9193
 13.5873  30.0223
 13.6103  30.0953
 13.6333  30.3229
 13.6563  30.3881
 13.6793  30.2394
 13.7022  30.1596
 13.7253  30.1822
 13.7483  30.2241
 13.7713  30.3696
 13.7942  30.503
 13.8172  30.8053
 13.8403  31.4165
 13.8633  32.9612
 13.8863  37.9508
 13.9093  51.8123
 13.9323  74.9366
 13.9553  87.6354
 13.9783  74.5894
 14.0013  53.5806
 14.0243  37.6658
 14.0473  31.7557
 14.0703  29.9531
 14.0932  29.1333
 14.1163  28.5773
 14.1393  28.2769
 14.1623  27.9198
 14.1852  27.5962
 14.2083  27.2902
 14.2313  27.0861
 14.2543  26.8621
 14.2773  26.7881
 14.3003  26.6825
 14.3233  26.4899
 14.3463  26.3859
 14.3692  26.354
 14.3923  26.1838
 14.4153  26.0643
 14.4383  26.064
 14.4612  25.9491
 14.4843  25.8523
 14.5073  25.8504
 14.5303  25.7612
 14.5533  25.6505
 14.5763  25.5494
 14.5993  25.417
 14.6223  25.2728
 14.6453  25.301
 14.6683  25.3536
 14.6913  25.3161
 14.7143  25.2229
 14.7372  25.1891
 14.7603  25.1607
 14.7833  25.1622
 14.8063  25.1035
 14.8293  25.1873
 14.8523  25.2542
 14.8753  25.0561
 14.8983  24.97
 14.9213  24.951
 14.9443  24.8967
 14.9673  24.8751
 14.9903  24.8902
 15.0132  24.8998
 15.0363  24.9967
 15.0593  25.0324
 15.0823  25.0737
 15.1052  25.116
 15.1283  25.3191
 15.1513  26.0194
 15.1743  27.2836
 15.1973  28.4576
 15.2203  28.2627
 15.2433  26.8873
 15.2663  25.5516
 15.2892  25.0009
 15.3123  24.9149
 15.3353  24.8466
 15.3583  24.8024
 15.3812  24.8025
 15.4043  24.7149
 15.4273  24.6692
 15.4503  24.7002
 15.4733  24.6598
 15.4963  24.6277
 15.5193  24.6029
 15.5423  24.574
 15.5653  24.5957
 15.5883  24.6331
 15.6113  24.5703
 15.6343  24.5839
 15.6572  24.6353
 15.6803  24.7011
 15.7033  24.8012
 15.7263  24.8701
 15.7492  24.8971
 15.7723  24.8574
 15.7953  24.7061
 15.8183  24.7877
 15.8413  24.7923
 15.8643  24.807
 15.8873  24.8942
 15.9103  24.899
 15.9332  24.8374
 15.9563  24.7687
 15.9793  24.7012
 16.0023  24.7964
 16.0253  24.9146
 16.0482  25.0055
 16.0713  24.8529
 16.0943  24.7278
 16.1172  24.8293
 16.1403  24.9933
 16.1633  25.1467
 16.1863  25.4505
 16.2093  26.1546
 16.2323  26.971
 16.2553  27.4307
 16.2783  26.8884
 16.3012  25.7832
 16.3243  25.1881
 16.3472  24.945
 16.3703  24.773
 16.3933  24.7513
 16.4163  24.8644
 16.4393  24.8913
 16.4623  24.8085
 16.4853  24.7666
 16.5083  24.6911
 16.5312  24.6059
 16.5543  24.6319
 16.5773  24.6151
 16.6002  24.6167
 16.6233  24.6542
 16.6463  24.5595
 16.6693  24.5329
 16.6923  24.5327
 16.7153  24.5041
 16.7383  24.3991
 16.7613  24.4767
 16.7843  24.5061
 16.8073  24.5213
 16.8303  24.4512
 16.8533  24.4093
 16.8763  24.45
 16.8992  24.4146
 16.9223  24.3036
 16.9453  24.3726
 16.9683  24.4126
 16.9913  24.4202
 17.0143  24.4005
 17.0373  24.4233
 17.0603  24.3274
 17.0832  24.3331
 17.1063  24.3108
 17.1293  24.2917
 17.1522  24.1904
 17.1753  24.0765
 17.1983  24.1402
 17.2213  24.1387
 17.2443  24.1673
 17.2673  24.1783
 17.2903  24.1934
 17.3133  24.1575
 17.3362  24.1459
 17.3593  24.076
 17.3823  24.0796
 17.4053  24.1003
 17.4283  24.1213
 17.4513  24.0364
 17.4743  24.0412
 17.4973  23.9347
 17.5203  23.916
 17.5433  23.902
 17.5663  23.9264
 17.5893  23.8388
 17.6123  23.8853
 17.6352  23.9106
 17.6583  23.9365
 17.6813  23.911
 17.7042  23.8728
 17.7273  23.8253
 17.7503  23.8586
 17.7733  23.8813
 17.7963  23.9312
 17.8193  23.9542
 17.8423  23.9785
 17.8653  23.9458
 17.8882  23.8591
 17.9113  23.8427
 17.9343  23.9211
 17.9573  23.9493
 17.9803  24.0836
 18.0033  24.2438
 18.0263  24.4876
 18.0493  25.0292
 18.0723  25.7452
 18.0953  26.3628
 18.1183  26.4764
 18.1413  26.0566
 18.1643  25.0671
 18.1872  24.2377
 18.2103  23.8849
 18.2333  23.7401
 18.2563  23.6841
 18.2793  23.6849
 18.3023  23.6498
 18.3253  23.6696
 18.3483  23.7289
 18.3712  23.6747
 18.3943  23.6108
 18.4173  23.6448
 18.4402  23.6931
 18.4633  23.6803
 18.4863  23.5906
 18.5093  23.6032
 18.5323  23.5938
 18.5553  23.561
 18.5783  23.5741
 18.6013  23.6227
 18.6242  23.5077
 18.6473  23.409
 18.6703  23.4331
 18.6933  23.5312
 18.7163  23.5544
 18.7392  23.5659
 18.7623  23.5597
 18.7853  23.5711
 18.8083  23.6052
 18.8313  23.5861
 18.8543  23.4882
 18.8773  23.5042
 18.9003  23.512
 18.9232  23.6293
 18.9463  23.7396
 18.9693  23.6805
 18.9922  23.4851
 19.0153  23.4867
 19.0383  23.5274
 19.0613  23.5564
 19.0843  23.6361
 19.1073  23.629
 19.1303  23.6094
 19.1533  23.6046
 19.1762  23.6028
 19.1993  23.5817
 19.2223  23.5513
 19.2453  23.5023
 19.2683  23.4963
 19.2913  23.4841
 19.3143  23.5292
 19.3373  23.5685
 19.3603  23.6058
 19.3833  23.6494
 19.4062  23.7688
 19.4293  23.7194
 19.4523  23.7209
 19.4752  23.7738
 19.4983  23.8642
 19.5213  23.9376
 19.5443  23.9843
 19.5673  24.0122
 19.5903  24.0761
 19.6133  24.2885
 19.6363  25.0788
 19.6593  26.9629
 19.6823  29.2792
 19.7053  29.78
 19.7283  28.812
 19.7513  27.5966
 19.7742  26.8073
 19.7973  27.413
 19.8203  30.0016
 19.8433  33.3495
 19.8663  34.5556
 19.8893  32.4264
 19.9123  28.8066
 19.9353  26.0002
 19.9582  24.7237
 19.9813  24.3481
 20.0043  24.1563
 20.0272  24.0262
 20.0503  24.0639
 20.0733  23.9741
 20.0963  23.8598
 20.1193  23.8496
 20.1423  23.8055
 20.1653  23.7665
 20.1883  23.8362
 20.2112  23.815
 20.2343  23.7818
 20.2573  23.7739
 20.2803  23.8363
 20.3033  23.8999
 20.3263  23.8729
 20.3493  23.8755
 20.3723  23.8516
 20.3953  23.8626
 20.4183  23.8818
 20.4413  23.8583
 20.4643  23.7972
 20.4873  23.8593
 20.5102  23.8978
 20.5333  23.8187
 20.5563  23.8715
 20.5792  23.9825
 20.6023  24.0298
 20.6253  24.1415
 20.6483  24.2175
 20.6713  24.3471
 20.6943  24.8285
 20.7173  25.9131
 20.7403  27.8532
 20.7632  29.5535
 20.7863  28.807
 20.8093  26.7283
 20.8323  25.1008
 20.8553  24.5288
 20.8783  24.3039
 20.9013  24.2119
 20.9243  24.2482
 20.9473  24.2021
 20.9703  24.0778
 20.9933  24.0194
 21.0163  23.9672
 21.0393  23.9127
 21.0622  23.8085
 21.0853  23.9175
 21.1083  23.9789
 21.1313  24.0379
 21.1543  23.8791
 21.1773  23.8615
 21.2003  23.9814
 21.2233  23.9665
 21.2462  24.0234
 21.2693  24.0348
 21.2923  24.0167
 21.3152  23.9802
 21.3383  23.9365
 21.3613  23.9588
 21.3843  23.9958
 21.4073  24.0264
 21.4303  23.9892
 21.4533  23.9596
 21.4763  23.9846
 21.4992  24.0542
 21.5223  24.0994
 21.5453  24.0798
 21.5683  24.0109
 21.5913  24.08
 21.6142  24.1653
 21.6373  24.1994
 21.6603  24.2005
 21.6833  24.1922
 21.7063  24.3698
 21.7293  24.3101
 21.7523  24.1879
 21.7753  24.1395
 21.7982  24.2367
 21.8213  24.3034
 21.8443  24.2854
 21.8672  24.2785
 21.8903  24.2882
 21.9133  24.2776
 21.9363  24.304
 21.9593  24.2601
 21.9823  24.2371
 22.0053  24.1895
 22.0283  24.3007
 22.0512  24.3312
 22.0743  24.2625
 22.0973  24.3441
 22.1203  24.4443
 22.1433  24.493
 22.1663  24.4321
 22.1893  24.3596
 22.2123  24.341
 22.2353  24.4279
 22.2583  24.5596
 22.2813  24.4934
 22.3043  24.5317
 22.3273  24.5421
 22.3502  24.6179
 22.3733  24.6408
 22.3963  24.5609
 22.4193  24.5374
 22.4423  24.6041
 22.4653  24.6374
 22.4883  24.6613
 22.5113  24.7632
 22.5343  24.8279
 22.5573  24.9121
 22.5803  24.9241
 22.6033  25.0107
 22.6263  24.9641
 22.6493  25.0331
 22.6723  25.069
 22.6953  25.1437
 22.7183  25.1904
 22.7413  25.2409
 22.7643  25.3355
 22.7873  25.3312
 22.8103  25.3212
 22.8333  25.4196
 22.8563  25.4353
 22.8793  25.5544
 22.9022  25.8034
 22.9253  26.0506
 22.9483  26.175
 22.9713  26.2379
 22.9943  26.4045