File: test-data-xrd/xrd-map-34-ID-E/Data_0005.chi
F:\20151113_APS_34IDE\\Brian\Particle1\OCV\Data_0005.tif
2-Theta Angle (Degrees)
Intensity
       2000
 0.01725  0.0000000E+00
 0.04025  0.0000000E+00
 0.06325  0.0000000E+00
 0.08625  0.0000000E+00
 0.10925  0.0000000E+00
 0.13225  0.0000000E+00
 0.15525  0.0000000E+00
 0.17825  0.0000000E+00
 0.20125  0.0000000E+00
 0.22425  0.0000000E+00
 0.24725  0.0000000E+00
 0.27025  0.0000000E+00
 0.29325  0.0000000E+00
 0.31625  0.0000000E+00
 0.33925  0.0000000E+00
 0.36225  0.0000000E+00
 0.38525  0.0000000E+00
 0.40825  0.0000000E+00
 0.43125  0.0000000E+00
 0.45425  0.0000000E+00
 0.47725  0.0000000E+00
 0.50025  0.0000000E+00
 0.52325  0.0000000E+00
 0.54625  0.0000000E+00
 0.56925  0.0000000E+00
 0.59225  0.0000000E+00
 0.61525  0.0000000E+00
 0.63825  0.0000000E+00
 0.66125  0.0000000E+00
 0.68425  0.0000000E+00
 0.70725  0.0000000E+00
 0.73025  0.0000000E+00
 0.75325  0.0000000E+00
 0.77625  0.0000000E+00
 0.79925  0.0000000E+00
 0.82225  0.0000000E+00
 0.84525  0.0000000E+00
 0.86825  0.0000000E+00
 0.89125  0.0000000E+00
 0.91425  0.0000000E+00
 0.93725  0.0000000E+00
 0.96025  0.0000000E+00
 0.98325  0.0000000E+00
 1.00625  0.0000000E+00
 1.02925  0.0000000E+00
 1.05225  0.0000000E+00
 1.07525  0.0000000E+00
 1.09825  0.0000000E+00
 1.12125  0.0000000E+00
 1.14425  0.0000000E+00
 1.16725  0.0000000E+00
 1.19025  0.0000000E+00
 1.21325  0.0000000E+00
 1.23625  0.0000000E+00
 1.25925  0.0000000E+00
 1.28225  0.0000000E+00
 1.30525  0.0000000E+00
 1.32825  0.0000000E+00
 1.35125  0.0000000E+00
 1.37425  0.0000000E+00
 1.39725  0.0000000E+00
 1.42025  0.0000000E+00
 1.44325  0.0000000E+00
 1.46625  0.0000000E+00
 1.48925  0.0000000E+00
 1.51225  0.0000000E+00
 1.53525  0.0000000E+00
 1.55825  0.0000000E+00
 1.58125  0.0000000E+00
 1.60425  0.0000000E+00
 1.62725  0.0000000E+00
 1.65025  0.0000000E+00
 1.67325  0.0000000E+00
 1.69625  0.0000000E+00
 1.71925  0.0000000E+00
 1.74225  0.0000000E+00
 1.76525  0.0000000E+00
 1.78825  0.0000000E+00
 1.81125  0.0000000E+00
 1.83425  0.0000000E+00
 1.85725  0.0000000E+00
 1.88025  0.0000000E+00
 1.90325  0.0000000E+00
 1.92625  0.0000000E+00
 1.94925  0.0000000E+00
 1.97225  0.0000000E+00
 1.99525  0.0000000E+00
 2.01825  0.0000000E+00
 2.04125  0.0000000E+00
 2.06425  0.0000000E+00
 2.08725  0.0000000E+00
 2.11025  0.0000000E+00
 2.13325  0.0000000E+00
 2.15625  0.0000000E+00
 2.17925  0.0000000E+00
 2.20225  0.0000000E+00
 2.22525  0.0000000E+00
 2.24825  0.0000000E+00
 2.27125  0.0000000E+00
 2.29425  0.0000000E+00
 2.31725  0.0000000E+00
 2.34025  0.0000000E+00
 2.36325  0.0000000E+00
 2.38625  0.0000000E+00
 2.40925  0.0000000E+00
 2.43225  0.0000000E+00
 2.45525  0.0000000E+00
 2.47825  0.0000000E+00
 2.50125  0.0000000E+00
 2.52425  0.0000000E+00
 2.54725  0.0000000E+00
 2.57025  0.0000000E+00
 2.59325  0.0000000E+00
 2.61625  0.0000000E+00
 2.63925  0.0000000E+00
 2.66225  0.0000000E+00
 2.68525  0.0000000E+00
 2.70825  0.0000000E+00
 2.73125  0.0000000E+00
 2.75425  0.0000000E+00
 2.77725  0.0000000E+00
 2.80025  0.0000000E+00
 2.82325  27.1744
 2.84625  32.2429
 2.86925  33.9331
 2.89225  34.2409
 2.91525  34.7302
 2.93825  35.9176
 2.96125  36.0725
 2.98425  35.3074
 3.00725  36.2705
 3.03025  36.3124
 3.05325  35.5195
 3.07625  34.773
 3.09925  34.5931
 3.12225  34.981
 3.14525  36.092
 3.16825  36.2661
 3.19125  35.5714
 3.21425  35.157
 3.23725  35.3384
 3.26025  35.5473
 3.28325  35.4906
 3.30625  34.9142
 3.32925  34.6952
 3.35225  34.5109
 3.37525  34.4357
 3.39825  34.3871
 3.42125  34.6771
 3.44425  34.6832
 3.46725  34.4449
 3.49025  34.1788
 3.51325  33.8319
 3.53625  33.6455
 3.55925  33.5094
 3.58225  33.4038
 3.60525  33.1853
 3.62825  33.4524
 3.65125  33.5529
 3.67425  33.5546
 3.69725  33.3598
 3.72025  32.8265
 3.74325  32.9667
 3.76625  33.2323
 3.78925  33.3619
 3.81225  33.5009
 3.83525  33.1945
 3.85825  33.1079
 3.88125  33.1233
 3.90425  32.9208
 3.92725  32.9657
 3.95025  33.066
 3.97325  33.1635
 3.99625  33.1968
 4.01925  32.6962
 4.04225  32.3681
 4.06525  32.327
 4.08825  32.36
 4.11125  32.6102
 4.13425  32.6773
 4.15725  32.7401
 4.18025  32.7423
 4.20325  32.7067
 4.22625  32.5426
 4.24925  32.4343
 4.27225  32.23
 4.29525  32.3868
 4.31825  32.6411
 4.34125  32.9293
 4.36425  32.862
 4.38725  32.5393
 4.41025  32.6775
 4.43325  32.6378
 4.45625  32.3158
 4.47925  32.3667
 4.50225  32.5646
 4.52525  32.6818
 4.54825  32.6086
 4.57125  32.4943
 4.59425  32.5312
 4.61725  32.5764
 4.64025  32.8441
 4.66325  33.0766
 4.68625  33.1239
 4.70925  33.0923
 4.73225  32.794
 4.75525  32.7021
 4.77825  32.7595
 4.80125  32.6364
 4.82425  32.7202
 4.84725  32.906
 4.87025  33.0738
 4.89325  33.1011
 4.91625  33.0239
 4.93925  32.8992
 4.96225  32.6329
 4.98525  32.8852
 5.00825  33.1191
 5.03125  33.1936
 5.05425  33.1032
 5.07725  33.1464
 5.10025  33.4191
 5.12325  33.7893
 5.14625  33.9662
 5.16925  33.8838
 5.19225  33.932
 5.21525  33.9673
 5.23825  34.2053
 5.26125  34.2522
 5.28425  34.1742
 5.30725  34.1406
 5.33025  34.07
 5.35325  34.13
 5.37625  34.3356
 5.39925  34.4943
 5.42225  34.3344
 5.44525  34.3152
 5.46825  34.626
 5.49125  34.9189
 5.51425  35.0611
 5.53725  35.2473
 5.56025  35.17
 5.58325  35.1632
 5.60625  35.2723
 5.62925  35.2835
 5.65225  35.3183
 5.67525  35.4251
 5.69825  35.5917
 5.72125  35.6749
 5.74425  35.8313
 5.76725  35.8821
 5.79025  35.925
 5.81325  35.8484
 5.83625  35.9043
 5.85925  36.1478
 5.88225  36.4626
 5.90525  37.0115
 5.92825  38.038
 5.95125  40.1059
 5.97425  42.5192
 5.99725  42.9204
 6.02025  40.809
 6.04325  38.4546
 6.06625  37.5235
 6.08925  37.0795
 6.11225  36.8285
 6.13525  36.7152
 6.15825  36.9325
 6.18125  37.2736
 6.20425  37.3278
 6.22725  37.4728
 6.25025  37.6105
 6.27325  37.8031
 6.29625  37.9069
 6.31925  37.9492
 6.34225  38.2165
 6.36525  38.1999
 6.38825  38.312
 6.41125  38.5453
 6.43425  38.7246
 6.45725  38.9383
 6.48025  39.0447
 6.50325  39.1737
 6.52625  39.3963
 6.54925  39.4872
 6.57225  39.5225
 6.59525  39.5918
 6.61825  39.8838
 6.64125  40.0984
 6.66425  40.3554
 6.68725  40.4141
 6.71025  40.5135
 6.73325  40.9895
 6.75625  41.2741
 6.77925  41.4649
 6.80225  41.5827
 6.82525  41.6998
 6.84825  41.8248
 6.87125  41.9632
 6.89425  41.9736
 6.91725  41.987
 6.94025  42.1496
 6.96325  42.3101
 6.98625  42.4359
 7.00925  42.6749
 7.03225  42.8554
 7.05525  43.03
 7.07825  43.2247
 7.10125  43.3448
 7.12425  43.3304
 7.14725  43.227
 7.17025  43.2526
 7.19325  43.4004
 7.21625  43.7384
 7.23925  44.0263
 7.26225  44.1696
 7.28525  44.0661
 7.30825  44.0093
 7.33125  44.1148
 7.35425  44.0832
 7.37725  44.1266
 7.40025  44.3895
 7.42325  44.5963
 7.44625  44.6368
 7.46925  44.4249
 7.49225  44.4534
 7.51525  44.5589
 7.53825  44.6856
 7.56125  44.8481
 7.58425  44.9456
 7.60725  44.9987
 7.63025  44.9628
 7.65325  45.0018
 7.67625  45.0647
 7.69925  45.0906
 7.72225  44.9131
 7.74525  44.7621
 7.76825  44.7822
 7.79125  44.7111
 7.81425  44.7108
 7.83725  44.783
 7.86025  44.8642
 7.88325  44.4863
 7.90625  44.2841
 7.92925  44.2762
 7.95225  44.0218
 7.97525  43.814
 7.99825  43.7237
 8.02125  43.6891
 8.04425  43.7019
 8.06725  43.7242
 8.09025  43.588
 8.11325  43.3616
 8.13625  42.9775
 8.15925  42.8403
 8.18225  42.6248
 8.20525  42.2847
 8.22825  41.9489
 8.25125  41.8221
 8.27425  41.6829
 8.29725  41.4246
 8.32025  41.1758
 8.34325  40.9221
 8.36625  40.7047
 8.38925  40.3177
 8.41225  39.8209
 8.43525  39.4132
 8.45825  39.0641
 8.48125  38.8478
 8.50425  38.5014
 8.52725  38.1809
 8.55025  37.7338
 8.57325  37.4161
 8.59625  37.0978
 8.61925  36.7283
 8.64225  36.4391
 8.66525  36.0722
 8.68825  35.891
 8.71125  35.5771
 8.73425  35.1798
 8.75725  34.7075
 8.78025  34.3728
 8.80325  34.0513
 8.82625  33.6492
 8.84925  33.2194
 8.87225  32.8517
 8.89525  32.513
 8.91825  32.3387
 8.94125  32.1939
 8.96425  31.993
 8.98725  31.5525
 9.01025  31.1909
 9.03325  30.9988
 9.05625  30.8737
 9.07925  30.7093
 9.10225  30.1896
 9.12525  29.8041
 9.14825  29.5307
 9.17125  29.3059
 9.19425  29.0816
 9.21725  28.8263
 9.24025  28.6399
 9.26325  28.5256
 9.28625  28.3137
 9.30925  28.1573
 9.33225  28.0183
 9.35525  27.868
 9.37825  27.7105
 9.40125  27.5359
 9.42425  27.4292
 9.44725  27.2963
 9.47025  27.1405
 9.49325  27.073
 9.51625  26.8855
 9.53925  26.6209
 9.56225  26.4214
 9.58525  26.2694
 9.60825  26.1854
 9.63125  26.0773
 9.65425  25.9942
 9.67725  25.7574
 9.70025  25.6908
 9.72325  25.667
 9.74625  25.5056
 9.76925  25.5432
 9.79225  25.5091
 9.81525  25.4148
 9.83825  25.1831
 9.86125  24.9107
 9.88425  24.8942
 9.90725  24.9063
 9.93025  24.8477
 9.95325  24.7542
 9.97625  24.7203
 9.99925  24.705
 10.0222  24.6928
 10.0453  24.5649
 10.0683  24.5221
 10.0913  24.4891
 10.1143  24.4018
 10.1373  24.3668
 10.1603  24.3389
 10.1832  24.2058
 10.2063  24.1951
 10.2293  24.1375
 10.2523  24.0084
 10.2752  24.0311
 10.2982  23.9834
 10.3213  23.8795
 10.3443  23.8038
 10.3673  23.6633
 10.3902  23.6225
 10.4133  23.64
 10.4363  23.5623
 10.4593  23.531
 10.4823  23.5048
 10.5053  23.4771
 10.5283  23.4881
 10.5512  23.4534
 10.5742  23.4439
 10.5973  23.244
 10.6203  23.2661
 10.6433  23.3239
 10.6662  23.3202
 10.6893  23.2519
 10.7123  23.2328
 10.7353  23.2248
 10.7583  23.1148
 10.7813  23.0928
 10.8043  23.0594
 10.8272  23.0417
 10.8503  23.0423
 10.8733  23.0118
 10.8963  22.9592
 10.9192  23.0269
 10.9422  22.9593
 10.9653  23.0043
 10.9883  23.0114
 11.0113  22.9889
 11.0343  22.8857
 11.0573  22.8122
 11.0803  22.8561
 11.1033  22.9335
 11.1263  22.9012
 11.1493  22.8083
 11.1723  22.7446
 11.1953  22.749
 11.2182  22.6521
 11.2413  22.4877
 11.2643  22.5122
 11.2873  22.5848
 11.3102  22.625
 11.3333  22.5102
 11.3563  22.4736
 11.3793  22.6338
 11.4023  22.9872
 11.4253  23.0643
 11.4483  23.0433
 11.4713  23.0299
 11.4942  23.086
 11.5173  23.3965
 11.5403  24.3587
 11.5633  26.4136
 11.5862  27.91
 11.6093  27.3114
 11.6323  25.0266
 11.6553  23.5766
 11.6783  23.1462
 11.7013  22.8623
 11.7243  22.7934
 11.7473  22.8052
 11.7703  22.782
 11.7933  22.7551
 11.8163  22.7825
 11.8393  22.7466
 11.8622  22.7249
 11.8853  22.7718
 11.9083  22.8412
 11.9313  22.8699
 11.9543  23.207
 11.9773  23.4142
 12.0003  23.3834
 12.0233  23.2557
 12.0463  23.3674
 12.0693  23.8709
 12.0923  24.5808
 12.1153  24.7046
 12.1382  24.1003
 12.1613  23.4503
 12.1843  23.0372
 12.2073  22.8459
 12.2302  22.7309
 12.2533  22.7188
 12.2763  22.718
 12.2993  22.6327
 12.3223  22.68
 12.3453  22.7313
 12.3683  22.7534
 12.3913  22.7239
 12.4142  22.7212
 12.4373  22.745
 12.4603  22.7464
 12.4833  22.9033
 12.5062  22.911
 12.5292  22.9236
 12.5523  22.9938
 12.5753  22.9797
 12.5983  22.9962
 12.6212  23.0495
 12.6443  23.0726
 12.6673  22.9961
 12.6903  22.9792
 12.7133  23.1688
 12.7363  23.4372
 12.7593  23.7446
 12.7822  23.5679
 12.8052  23.4516
 12.8283  23.5104
 12.8513  23.536
 12.8742  23.5451
 12.8972  23.5545
 12.9203  23.7604
 12.9433  23.917
 12.9663  23.9391
 12.9893  24.1093
 13.0123  24.3058
 13.0353  24.4009
 13.0582  24.5093
 13.0813  24.7252
 13.1043  25.084
 13.1273  25.3806
 13.1502  25.5369
 13.1732  25.729
 13.1963  25.9985
 13.2193  26.2236
 13.2423  26.6371
 13.2652  26.8392
 13.2883  26.965
 13.3113  27.1317
 13.3343  27.5507
 13.3573  27.984
 13.3803  28.2734
 13.4033  28.5195
 13.4262  28.6234
 13.4492  28.9292
 13.4723  29.2136
 13.4953  29.4535
 13.5183  29.6317
 13.5412  29.6455
 13.5643  29.7486
 13.5873  29.8709
 13.6103  29.9021
 13.6333  29.8713
 13.6563  29.8861
 13.6793  29.8949
 13.7022  29.7742
 13.7253  29.6921
 13.7483  29.6156
 13.7713  29.5736
 13.7942  29.558
 13.8172  29.4869
 13.8403  29.4195
 13.8633  29.4948
 13.8863  29.7104
 13.9093  30.6208
 13.9323  31.9453
 13.9553  32.8012
 13.9783  32.0179
 14.0013  30.411
 14.0243  29.0612
 14.0473  28.2832
 14.0703  28.0209
 14.0932  27.7805
 14.1163  27.5866
 14.1393  27.3817
 14.1623  27.1984
 14.1852  27.1173
 14.2083  26.9928
 14.2313  26.8532
 14.2543  26.6923
 14.2773  26.5337
 14.3003  26.3869
 14.3233  26.2387
 14.3463  26.2668
 14.3692  26.2756
 14.3923  26.1771
 14.4153  26.0271
 14.4383  26.0215
 14.4612  26.0144
 14.4843  26.009
 14.5073  25.9278
 14.5303  25.8798
 14.5533  25.795
 14.5763  25.6878
 14.5993  25.5571
 14.6223  25.5123
 14.6453  25.525
 14.6683  25.4785
 14.6913  25.4739
 14.7143  25.4549
 14.7372  25.3684
 14.7603  25.3096
 14.7833  25.2552
 14.8063  25.1468
 14.8293  25.0469
 14.8523  25.1295
 14.8753  25.1426
 14.8983  25.1642
 14.9213  25.1118
 14.9443  25.0691
 14.9673  25.0918
 14.9903  24.9695
 15.0132  24.9512
 15.0363  24.9179
 15.0593  24.8749
 15.0823  24.8705
 15.1052  24.9406
 15.1283  25.0434
 15.1513  25.2318
 15.1743  25.4847
 15.1973  25.6104
 15.2203  25.5724
 15.2433  25.2891
 15.2663  24.9564
 15.2892  24.813
 15.3123  24.7716
 15.3353  24.6798
 15.3583  24.6624
 15.3812  24.6211
 15.4043  24.7124
 15.4273  24.831
 15.4503  24.856
 15.4733  24.7963
 15.4963  24.7151
 15.5193  24.5535
 15.5423  24.6049
 15.5653  24.7177
 15.5883  24.7305
 15.6113  24.7154
 15.6343  24.7657
 15.6572  24.8066
 15.6803  24.8518
 15.7033  24.8583
 15.7263  24.7923
 15.7492  24.6436
 15.7723  24.6675
 15.7953  24.7462
 15.8183  24.8127
 15.8413  24.7808
 15.8643  24.7602
 15.8873  24.7758
 15.9103  24.8146
 15.9332  24.8011
 15.9563  24.7773
 15.9793  24.7838
 16.0023  24.8036
 16.0253  24.813
 16.0482  24.8466
 16.0713  24.7897
 16.0943  24.8654
 16.1172  24.935
 16.1403  24.9913
 16.1633  25.092
 16.1863  25.2478
 16.2093  25.6459
 16.2323  26.0487
 16.2553  26.4019
 16.2783  26.3941
 16.3012  25.7857
 16.3243  25.3822
 16.3472  25.1982
 16.3703  25.0257
 16.3933  24.961
 16.4163  25.0318
 16.4393  25.0055
 16.4623  24.9024
 16.4853  24.8644
 16.5083  24.8398
 16.5312  24.8184
 16.5543  24.8326
 16.5773  24.7715
 16.6002  24.7911
 16.6233  24.7655
 16.6463  24.7832
 16.6693  24.826
 16.6923  24.8365
 16.7153  24.6885
 16.7383  24.6736
 16.7613  24.6343
 16.7843  24.4833
 16.8073  24.6008
 16.8303  24.6868
 16.8533  24.7216
 16.8763  24.743
 16.8992  24.6884
 16.9223  24.6088
 16.9453  24.4818
 16.9683  24.4355
 16.9913  24.4486
 17.0143  24.4747
 17.0373  24.468
 17.0603  24.3516
 17.0832  24.271
 17.1063  24.2561
 17.1293  24.3581
 17.1522  24.4758
 17.1753  24.5323
 17.1983  24.5747
 17.2213  24.5033
 17.2443  24.3962
 17.2673  24.2824
 17.2903  24.2477
 17.3133  24.2275
 17.3362  24.2425
 17.3593  24.216
 17.3823  24.2204
 17.4053  24.1672
 17.4283  24.1667
 17.4513  24.2103
 17.4743  24.1878
 17.4973  24.1491
 17.5203  24.1182
 17.5433  24.1488
 17.5663  24.0648
 17.5893  23.9997
 17.6123  23.9933
 17.6352  24.0309
 17.6583  23.9837
 17.6813  24.0307
 17.7042  24.1339
 17.7273  24.07
 17.7503  23.9798
 17.7733  23.9562
 17.7963  24.0033
 17.8193  24.015
 17.8423  24.0125
 17.8653  24.0276
 17.8882  23.9585
 17.9113  23.9455
 17.9343  23.9608
 17.9573  24.0249
 17.9803  24.045
 18.0033  24.2669
 18.0263  24.4801
 18.0493  24.715
 18.0723  24.9486
 18.0953  25.2299
 18.1183  25.228
 18.1413  24.8284
 18.1643  24.2625
 18.1872  23.9384
 18.2103  23.8619
 18.2333  23.8037
 18.2563  23.7704
 18.2793  23.7358
 18.3023  23.7118
 18.3253  23.6985
 18.3483  23.7142
 18.3712  23.72
 18.3943  23.7391
 18.4173  23.8162
 18.4402  23.7607
 18.4633  23.6659
 18.4863  23.6362
 18.5093  23.699
 18.5323  23.6876
 18.5553  23.659
 18.5783  23.6431
 18.6013  23.7854
 18.6242  23.7888
 18.6473  23.718
 18.6703  23.6044
 18.6933  23.6701
 18.7163  23.6294
 18.7392  23.6057
 18.7623  23.5798
 18.7853  23.5206
 18.8083  23.5777
 18.8313  23.5997
 18.8543  23.6226
 18.8773  23.6916
 18.9003  23.6774
 18.9232  23.6928
 18.9463  23.7429
 18.9693  23.6463
 18.9922  23.5386
 19.0153  23.6285
 19.0383  23.6949
 19.0613  23.6169
 19.0843  23.6696
 19.1073  23.7023
 19.1303  23.6251
 19.1533  23.7287
 19.1762  23.7394
 19.1993  23.6981
 19.2223  23.7498
 19.2453  23.751
 19.2683  23.8219
 19.2913  23.7575
 19.3143  23.6965
 19.3373  23.6859
 19.3603  23.7411
 19.3833  23.7524
 19.4062  23.7683
 19.4293  23.7713
 19.4523  23.7775
 19.4752  23.8355
 19.4983  23.8676
 19.5213  23.8158
 19.5443  23.8381
 19.5673  23.8372
 19.5903  23.8214
 19.6133  23.7858
 19.6363  23.9105
 19.6593  24.1357
 19.6823  24.6106
 19.7053  25.2297
 19.7283  25.5138
 19.7513  25.4568
 19.7742  25.08
 19.7973  24.8158
 19.8203  24.9743
 19.8433  25.3813
 19.8663  25.7213
 19.8893  25.2574
 19.9123  24.727
 19.9353  24.3304
 19.9582  24.0855
 19.9813  23.9958
 20.0043  23.9968
 20.0272  23.9641
 20.0503  23.9479
 20.0733  23.9536
 20.0963  23.8588
 20.1193  23.8841
 20.1423  23.8328
 20.1653  23.8905
 20.1883  23.8799
 20.2112  23.8302
 20.2343  23.8739
 20.2573  23.8106
 20.2803  23.7642
 20.3033  23.7413
 20.3263  23.8271
 20.3493  23.9342
 20.3723  23.9647
 20.3953  23.9434
 20.4183  23.9474
 20.4413  23.9788
 20.4643  23.9198
 20.4873  23.8464
 20.5102  23.7797
 20.5333  23.7835
 20.5563  23.9459
 20.5792  24.0341
 20.6023  24.0419
 20.6253  24.0546
 20.6483  24.1021
 20.6713  24.2321
 20.6943  24.5442
 20.7173  25.2976
 20.7403  26.0021
 20.7632  26.3152
 20.7863  25.8629
 20.8093  25.0513
 20.8323  24.4955
 20.8553  24.2551
 20.8783  24.2588
 20.9013  24.2435
 20.9243  24.2554
 20.9473  24.1758
 20.9703  24.0966
 20.9933  24.0756
 21.0163  23.9729
 21.0393  23.9759
 21.0622  23.9736
 21.0853  24.0084
 21.1083  24.009
 21.1313  24.0622
 21.1543  24.0383
 21.1773  24.0878
 21.2003  24.1078
 21.2233  24.0469
 21.2462  24.0088
 21.2693  23.9661
 21.2923  24.0264
 21.3152  24.0327
 21.3383  24.0184
 21.3613  24.0243
 21.3843  24.0392
 21.4073  24.0582
 21.4303  24.0263
 21.4533  24.035
 21.4763  24.0771
 21.4992  24.1204
 21.5223  24.131
 21.5453  24.1608
 21.5683  24.1435
 21.5913  24.1226
 21.6142  24.1935
 21.6373  24.26
 21.6603  24.2767
 21.6833  24.2571
 21.7063  24.3006
 21.7293  24.3474
 21.7523  24.2896
 21.7753  24.1724
 21.7982  24.2698
 21.8213  24.3617
 21.8443  24.2524
 21.8672  24.3465
 21.8903  24.4239
 21.9133  24.4493
 21.9363  24.4233
 21.9593  24.4466
 21.9823  24.4165
 22.0053  24.382
 22.0283  24.4502
 22.0512  24.5137
 22.0743  24.4907
 22.0973  24.4713
 22.1203  24.5388
 22.1433  24.4673
 22.1663  24.5119
 22.1893  24.4713
 22.2123  24.4369
 22.2353  24.4352
 22.2583  24.4337
 22.2813  24.4544
 22.3043  24.5622
 22.3273  24.6153
 22.3502  24.6525
 22.3733  24.6504
 22.3963  24.6357
 22.4193  24.6767
 22.4423  24.7801
 22.4653  24.7771
 22.4883  24.8423
 22.5113  24.9068
 22.5343  25.0228
 22.5573  24.9816
 22.5803  24.8886
 22.6033  24.9647
 22.6263  25.0822
 22.6493  25.0993
 22.6723  25.1669
 22.6953  25.2775
 22.7183  25.2784
 22.7413  25.3249
 22.7643  25.3976
 22.7873  25.4487
 22.8103  25.5183
 22.8333  25.5509
 22.8563  25.5586
 22.8793  25.7158
 22.9022  25.8943
 22.9253  25.9584
 22.9483  26.096
 22.9713  26.2221
 22.9943  26.4307