File: test-data-xrd/xrd-map-34-ID-E/Data_0020.chi
F:\20151113_APS_34IDE\\Brian\Particle1\OCV\Data_0020.tif
2-Theta Angle (Degrees)
Intensity
       2000
 0.01725  0.0000000E+00
 0.04025  0.0000000E+00
 0.06325  0.0000000E+00
 0.08625  0.0000000E+00
 0.10925  0.0000000E+00
 0.13225  0.0000000E+00
 0.15525  0.0000000E+00
 0.17825  0.0000000E+00
 0.20125  0.0000000E+00
 0.22425  0.0000000E+00
 0.24725  0.0000000E+00
 0.27025  0.0000000E+00
 0.29325  0.0000000E+00
 0.31625  0.0000000E+00
 0.33925  0.0000000E+00
 0.36225  0.0000000E+00
 0.38525  0.0000000E+00
 0.40825  0.0000000E+00
 0.43125  0.0000000E+00
 0.45425  0.0000000E+00
 0.47725  0.0000000E+00
 0.50025  0.0000000E+00
 0.52325  0.0000000E+00
 0.54625  0.0000000E+00
 0.56925  0.0000000E+00
 0.59225  0.0000000E+00
 0.61525  0.0000000E+00
 0.63825  0.0000000E+00
 0.66125  0.0000000E+00
 0.68425  0.0000000E+00
 0.70725  0.0000000E+00
 0.73025  0.0000000E+00
 0.75325  0.0000000E+00
 0.77625  0.0000000E+00
 0.79925  0.0000000E+00
 0.82225  0.0000000E+00
 0.84525  0.0000000E+00
 0.86825  0.0000000E+00
 0.89125  0.0000000E+00
 0.91425  0.0000000E+00
 0.93725  0.0000000E+00
 0.96025  0.0000000E+00
 0.98325  0.0000000E+00
 1.00625  0.0000000E+00
 1.02925  0.0000000E+00
 1.05225  0.0000000E+00
 1.07525  0.0000000E+00
 1.09825  0.0000000E+00
 1.12125  0.0000000E+00
 1.14425  0.0000000E+00
 1.16725  0.0000000E+00
 1.19025  0.0000000E+00
 1.21325  0.0000000E+00
 1.23625  0.0000000E+00
 1.25925  0.0000000E+00
 1.28225  0.0000000E+00
 1.30525  0.0000000E+00
 1.32825  0.0000000E+00
 1.35125  0.0000000E+00
 1.37425  0.0000000E+00
 1.39725  0.0000000E+00
 1.42025  0.0000000E+00
 1.44325  0.0000000E+00
 1.46625  0.0000000E+00
 1.48925  0.0000000E+00
 1.51225  0.0000000E+00
 1.53525  0.0000000E+00
 1.55825  0.0000000E+00
 1.58125  0.0000000E+00
 1.60425  0.0000000E+00
 1.62725  0.0000000E+00
 1.65025  0.0000000E+00
 1.67325  0.0000000E+00
 1.69625  0.0000000E+00
 1.71925  0.0000000E+00
 1.74225  0.0000000E+00
 1.76525  0.0000000E+00
 1.78825  0.0000000E+00
 1.81125  0.0000000E+00
 1.83425  0.0000000E+00
 1.85725  0.0000000E+00
 1.88025  0.0000000E+00
 1.90325  0.0000000E+00
 1.92625  0.0000000E+00
 1.94925  0.0000000E+00
 1.97225  0.0000000E+00
 1.99525  0.0000000E+00
 2.01825  0.0000000E+00
 2.04125  0.0000000E+00
 2.06425  0.0000000E+00
 2.08725  0.0000000E+00
 2.11025  0.0000000E+00
 2.13325  0.0000000E+00
 2.15625  0.0000000E+00
 2.17925  0.0000000E+00
 2.20225  0.0000000E+00
 2.22525  0.0000000E+00
 2.24825  0.0000000E+00
 2.27125  0.0000000E+00
 2.29425  0.0000000E+00
 2.31725  0.0000000E+00
 2.34025  0.0000000E+00
 2.36325  0.0000000E+00
 2.38625  0.0000000E+00
 2.40925  0.0000000E+00
 2.43225  0.0000000E+00
 2.45525  0.0000000E+00
 2.47825  0.0000000E+00
 2.50125  0.0000000E+00
 2.52425  0.0000000E+00
 2.54725  0.0000000E+00
 2.57025  0.0000000E+00
 2.59325  0.0000000E+00
 2.61625  0.0000000E+00
 2.63925  0.0000000E+00
 2.66225  0.0000000E+00
 2.68525  0.0000000E+00
 2.70825  0.0000000E+00
 2.73125  0.0000000E+00
 2.75425  0.0000000E+00
 2.77725  0.0000000E+00
 2.80025  0.0000000E+00
 2.82325  35.1012
 2.84625  35.9351
 2.86925  34.8215
 2.89225  34.2673
 2.91525  35.2783
 2.93825  36.596
 2.96125  36.5939
 2.98425  35.7174
 3.00725  35.6977
 3.03025  36.0338
 3.05325  35.8825
 3.07625  35.4581
 3.09925  35.6338
 3.12225  35.3289
 3.14525  35.3576
 3.16825  35.2674
 3.19125  35.1564
 3.21425  35.2611
 3.23725  35.1137
 3.26025  34.6208
 3.28325  34.0756
 3.30625  33.8957
 3.32925  33.8703
 3.35225  33.9419
 3.37525  34.1657
 3.39825  34.6333
 3.42125  34.4324
 3.44425  34.433
 3.46725  34.7397
 3.49025  34.9451
 3.51325  34.2517
 3.53625  33.6896
 3.55925  33.7221
 3.58225  33.6582
 3.60525  33.6525
 3.62825  33.7748
 3.65125  33.6403
 3.67425  33.3552
 3.69725  33.035
 3.72025  33.1161
 3.74325  32.9614
 3.76625  32.8457
 3.78925  32.4039
 3.81225  32.5024
 3.83525  33.0554
 3.85825  33.0383
 3.88125  33.0365
 3.90425  32.8651
 3.92725  32.4806
 3.95025  32.2646
 3.97325  32.6298
 3.99625  32.6446
 4.01925  32.5219
 4.04225  32.7008
 4.06525  32.6429
 4.08825  32.512
 4.11125  32.8114
 4.13425  32.6343
 4.15725  32.3154
 4.18025  32.1013
 4.20325  32.1027
 4.22625  32.2673
 4.24925  32.4999
 4.27225  32.6546
 4.29525  32.9284
 4.31825  32.8586
 4.34125  32.7413
 4.36425  32.7842
 4.38725  32.7443
 4.41025  32.6586
 4.43325  32.67
 4.45625  32.8696
 4.47925  32.9694
 4.50225  33.0336
 4.52525  32.8695
 4.54825  32.6832
 4.57125  32.4438
 4.59425  32.4833
 4.61725  32.5104
 4.64025  32.3399
 4.66325  32.5932
 4.68625  32.6722
 4.70925  32.7264
 4.73225  32.528
 4.75525  32.4861
 4.77825  32.5664
 4.80125  32.5381
 4.82425  32.6205
 4.84725  32.737
 4.87025  32.8182
 4.89325  32.6909
 4.91625  32.6442
 4.93925  32.5955
 4.96225  32.4408
 4.98525  32.6353
 5.00825  33.0286
 5.03125  33.2475
 5.05425  33.2442
 5.07725  33.334
 5.10025  33.5049
 5.12325  33.4367
 5.14625  33.6438
 5.16925  33.7013
 5.19225  34.023
 5.21525  34.0405
 5.23825  34.2773
 5.26125  34.3975
 5.28425  34.4245
 5.30725  34.6485
 5.33025  34.5791
 5.35325  34.323
 5.37625  34.2645
 5.39925  34.5534
 5.42225  34.6251
 5.44525  34.6682
 5.46825  34.8491
 5.49125  34.7837
 5.51425  34.8036
 5.53725  34.7771
 5.56025  34.7654
 5.58325  34.8957
 5.60625  35.113
 5.62925  35.0568
 5.65225  35.0751
 5.67525  35.3456
 5.69825  35.6478
 5.72125  35.661
 5.74425  35.7713
 5.76725  35.8931
 5.79025  36.0697
 5.81325  36.1181
 5.83625  36.014
 5.85925  36.0511
 5.88225  36.3224
 5.90525  36.7912
 5.92825  37.9805
 5.95125  40.1425
 5.97425  43.2788
 5.99725  45.6717
 6.02025  43.4127
 6.04325  39.4729
 6.06625  37.5192
 6.08925  37.1955
 6.11225  36.9624
 6.13525  36.7416
 6.15825  36.8951
 6.18125  37.1662
 6.20425  37.1288
 6.22725  37.1682
 6.25025  37.2929
 6.27325  37.6709
 6.29625  37.949
 6.31925  37.9432
 6.34225  38.0528
 6.36525  38.0935
 6.38825  38.3264
 6.41125  38.4471
 6.43425  38.4772
 6.45725  38.7015
 6.48025  38.8479
 6.50325  39.1219
 6.52625  39.1983
 6.54925  39.2736
 6.57225  39.5399
 6.59525  39.6578
 6.61825  39.6704
 6.64125  39.847
 6.66425  40.1146
 6.68725  40.2918
 6.71025  40.4431
 6.73325  40.6251
 6.75625  40.6714
 6.77925  40.8719
 6.80225  41.062
 6.82525  41.468
 6.84825  41.7756
 6.87125  41.7119
 6.89425  41.8275
 6.91725  41.9098
 6.94025  41.937
 6.96325  41.9016
 6.98625  42.0845
 7.00925  42.287
 7.03225  42.5483
 7.05525  42.6289
 7.07825  42.742
 7.10125  42.8206
 7.12425  43.0923
 7.14725  43.2576
 7.17025  43.4302
 7.19325  43.6213
 7.21625  43.5956
 7.23925  43.5923
 7.26225  43.693
 7.28525  43.9032
 7.30825  43.9382
 7.33125  43.9683
 7.35425  44.0834
 7.37725  44.2537
 7.40025  44.3475
 7.42325  44.3239
 7.44625  44.4368
 7.46925  44.3432
 7.49225  44.1645
 7.51525  44.1127
 7.53825  44.1962
 7.56125  44.295
 7.58425  44.3493
 7.60725  44.2836
 7.63025  44.3549
 7.65325  44.3171
 7.67625  44.4302
 7.69925  44.4903
 7.72225  44.4842
 7.74525  44.5083
 7.76825  44.404
 7.79125  44.1081
 7.81425  43.8977
 7.83725  44.0317
 7.86025  44.1843
 7.88325  44.163
 7.90625  44.1658
 7.92925  44.194
 7.95225  43.8809
 7.97525  43.6144
 7.99825  43.572
 8.02125  43.3835
 8.04425  43.3129
 8.06725  42.92
 8.09025  42.5823
 8.11325  42.6768
 8.13625  42.712
 8.15925  42.5937
 8.18225  42.2123
 8.20525  41.9464
 8.22825  41.6039
 8.25125  41.2608
 8.27425  41.0616
 8.29725  40.8454
 8.32025  40.7528
 8.34325  40.4254
 8.36625  40.063
 8.38925  39.8028
 8.41225  39.6205
 8.43525  39.3584
 8.45825  39.0374
 8.48125  38.5568
 8.50425  37.9775
 8.52725  37.6453
 8.55025  37.3841
 8.57325  37.1455
 8.59625  36.6081
 8.61925  36.0354
 8.64225  35.7397
 8.66525  35.4601
 8.68825  35.1033
 8.71125  34.7789
 8.73425  34.3806
 8.75725  34.0254
 8.78025  33.8872
 8.80325  33.5505
 8.82625  33.1119
 8.84925  32.7335
 8.87225  32.4926
 8.89525  32.2393
 8.91825  31.9549
 8.94125  31.7318
 8.96425  31.3206
 8.98725  30.9098
 9.01025  30.56
 9.03325  30.2516
 9.05625  29.9584
 9.07925  29.7129
 9.10225  29.5993
 9.12525  29.3466
 9.14825  29.106
 9.17125  28.9092
 9.19425  28.6197
 9.21725  28.3962
 9.24025  28.1925
 9.26325  28.1435
 9.28625  27.8166
 9.30925  27.5917
 9.33225  27.3343
 9.35525  27.1874
 9.37825  27.0899
 9.40125  26.9215
 9.42425  26.6599
 9.44725  26.4715
 9.47025  26.4981
 9.49325  26.4199
 9.51625  26.3061
 9.53925  26.1567
 9.56225  26.2215
 9.58525  26.0847
 9.60825  25.995
 9.63125  25.8046
 9.65425  25.4378
 9.67725  25.2334
 9.70025  25.1545
 9.72325  25.1811
 9.74625  25.208
 9.76925  25.1277
 9.79225  24.9507
 9.81525  24.8561
 9.83825  24.9247
 9.86125  24.7662
 9.88425  24.6614
 9.90725  24.5792
 9.93025  24.5719
 9.95325  24.4425
 9.97625  24.3764
 9.99925  24.2768
 10.0222  24.3012
 10.0453  24.2794
 10.0683  24.2356
 10.0913  24.1243
 10.1143  24.0689
 10.1373  24.0009
 10.1603  23.9763
 10.1832  23.9267
 10.2063  23.9016
 10.2293  23.9082
 10.2523  23.749
 10.2752  23.6534
 10.2982  23.6621
 10.3213  23.6963
 10.3443  23.6874
 10.3673  23.6517
 10.3902  23.6194
 10.4133  23.5548
 10.4363  23.4192
 10.4593  23.2378
 10.4823  23.2972
 10.5053  23.3126
 10.5283  23.1453
 10.5512  23.0144
 10.5742  22.9349
 10.5973  22.8909
 10.6203  23.0023
 10.6433  23.1326
 10.6662  23.0915
 10.6893  22.9319
 10.7123  22.8746
 10.7353  22.8328
 10.7583  22.8108
 10.7813  22.7632
 10.8043  22.7024
 10.8272  22.6854
 10.8503  22.6774
 10.8733  22.6694
 10.8963  22.551
 10.9192  22.5732
 10.9422  22.5887
 10.9653  22.5868
 10.9883  22.619
 11.0113  22.4695
 11.0343  22.4925
 11.0573  22.4751
 11.0803  22.4896
 11.1033  22.455
 11.1263  22.4896
 11.1493  22.5845
 11.1723  22.5905
 11.1953  22.455
 11.2182  22.4367
 11.2413  22.429
 11.2643  22.5015
 11.2873  22.4151
 11.3102  22.3664
 11.3333  22.415
 11.3563  22.4479
 11.3793  22.5451
 11.4023  22.7288
 11.4253  22.746
 11.4483  22.7107
 11.4713  22.6807
 11.4942  22.7154
 11.5173  22.8321
 11.5403  23.3893
 11.5633  24.7153
 11.5862  26.5078
 11.6093  29.0716
 11.6323  28.5266
 11.6553  26.1941
 11.6783  24.094
 11.7013  22.978
 11.7243  22.6681
 11.7473  22.5789
 11.7703  22.4005
 11.7933  22.3966
 11.8163  22.4931
 11.8393  22.4638
 11.8622  22.3959
 11.8853  22.4328
 11.9083  22.4944
 11.9313  22.7321
 11.9543  23.1149
 11.9773  23.4446
 12.0003  23.4284
 12.0233  23.234
 12.0463  23.2381
 12.0693  23.7859
 12.0923  24.6776
 12.1153  25.155
 12.1382  24.4861
 12.1613  23.5548
 12.1843  22.9288
 12.2073  22.7391
 12.2302  22.5817
 12.2533  22.5183
 12.2763  22.4542
 12.2993  22.4559
 12.3223  22.478
 12.3453  22.8141
 12.3683  23.0109
 12.3913  23.0193
 12.4142  22.6631
 12.4373  22.6441
 12.4603  22.6631
 12.4833  22.7321
 12.5062  22.6792
 12.5292  22.6405
 12.5523  22.6412
 12.5753  22.5545
 12.5983  22.6692
 12.6212  22.7576
 12.6443  22.7867
 12.6673  22.8492
 12.6903  22.8537
 12.7133  22.921
 12.7363  23.0025
 12.7593  22.9987
 12.7822  22.976
 12.8052  23.0529
 12.8283  23.1467
 12.8513  23.2628
 12.8742  23.4066
 12.8972  23.3551
 12.9203  23.3408
 12.9433  23.5414
 12.9663  23.712
 12.9893  23.8686
 13.0123  23.9981
 13.0353  24.1321
 13.0582  24.295
 13.0813  24.4327
 13.1043  24.7096
 13.1273  25.0387
 13.1502  25.1868
 13.1732  25.2959
 13.1963  25.5733
 13.2193  25.818
 13.2423  26.1125
 13.2652  26.4339
 13.2883  26.7807
 13.3113  27.054
 13.3343  27.2906
 13.3573  27.5982
 13.3803  27.8481
 13.4033  28.0496
 13.4262  28.2866
 13.4492  28.6639
 13.4723  29.0065
 13.4953  29.1807
 13.5183  29.3181
 13.5412  29.5325
 13.5643  29.6096
 13.5873  29.7272
 13.6103  29.8184
 13.6333  29.807
 13.6563  29.7277
 13.6793  29.6918
 13.7022  29.5076
 13.7253  29.5094
 13.7483  29.3303
 13.7713  29.1323
 13.7942  28.9368
 13.8172  28.7729
 13.8403  28.7381
 13.8633  28.8222
 13.8863  28.9971
 13.9093  29.3059
 13.9323  29.845
 13.9553  29.8328
 13.9783  29.4055
 14.0013  28.7519
 14.0243  28.1069
 14.0473  27.6455
 14.0703  27.4876
 14.0932  27.3382
 14.1163  27.287
 14.1393  27.1225
 14.1623  26.9005
 14.1852  26.6635
 14.2083  26.6437
 14.2313  26.5176
 14.2543  26.3402
 14.2773  26.3096
 14.3003  26.2407
 14.3233  26.1153
 14.3463  25.9485
 14.3692  25.9371
 14.3923  25.9724
 14.4153  25.971
 14.4383  25.8755
 14.4612  25.7559
 14.4843  25.6624
 14.5073  25.5497
 14.5303  25.4725
 14.5533  25.4574
 14.5763  25.4929
 14.5993  25.4267
 14.6223  25.4067
 14.6453  25.4111
 14.6683  25.2807
 14.6913  25.2395
 14.7143  25.2578
 14.7372  25.2089
 14.7603  25.1256
 14.7833  25.1156
 14.8063  25.078
 14.8293  24.9623
 14.8523  24.9058
 14.8753  24.8285
 14.8983  24.9356
 14.9213  24.8933
 14.9443  24.8242
 14.9673  24.8434
 14.9903  24.8974
 15.0132  24.9704
 15.0363  24.9671
 15.0593  24.9809
 15.0823  25.0668
 15.1052  25.3231
 15.1283  25.6354
 15.1513  27.4296
 15.1743  34.6315
 15.1973  36.997
 15.2203  34.127
 15.2433  27.9448
 15.2663  25.4716
 15.2892  25.1336
 15.3123  25.0627
 15.3353  24.8984
 15.3583  24.7329
 15.3812  24.6547
 15.4043  24.6032
 15.4273  24.4902
 15.4503  24.4548
 15.4733  24.5893
 15.4963  24.7173
 15.5193  24.6824
 15.5423  24.5426
 15.5653  24.4488
 15.5883  24.4266
 15.6113  24.4605
 15.6343  24.4326
 15.6572  24.48
 15.6803  24.5225
 15.7033  24.4919
 15.7263  24.5171
 15.7492  24.469
 15.7723  24.5078
 15.7953  24.5586
 15.8183  24.5926
 15.8413  24.518
 15.8643  24.6097
 15.8873  24.6511
 15.9103  24.6081
 15.9332  24.6057
 15.9563  24.5041
 15.9793  24.4804
 16.0023  24.4652
 16.0253  24.5162
 16.0482  24.6211
 16.0713  24.7557
 16.0943  24.7918
 16.1172  24.7542
 16.1403  24.6574
 16.1633  24.7306
 16.1863  24.8569
 16.2093  25.0067
 16.2323  25.1729
 16.2553  25.1938
 16.2783  25.1635
 16.3012  24.9252
 16.3243  24.8483
 16.3472  24.7641
 16.3703  24.5594
 16.3933  24.4816
 16.4163  24.5592
 16.4393  24.5811
 16.4623  24.6187
 16.4853  24.681
 16.5083  24.6401
 16.5312  24.4626
 16.5543  24.4019
 16.5773  24.4836
 16.6002  24.5765
 16.6233  24.5184
 16.6463  24.4538
 16.6693  24.4556
 16.6923  24.437
 16.7153  24.3889
 16.7383  24.3184
 16.7613  24.2628
 16.7843  24.2694
 16.8073  24.2993
 16.8303  24.23
 16.8533  24.1617
 16.8763  24.2695
 16.8992  24.2211
 16.9223  24.1606
 16.9453  24.1339
 16.9683  24.2342
 16.9913  24.3115
 17.0143  24.2523
 17.0373  24.1333
 17.0603  24.0545
 17.0832  24.0907
 17.1063  24.094
 17.1293  24.0931
 17.1522  24.0525
 17.1753  24.0159
 17.1983  24.023
 17.2213  24.0368
 17.2443  24.0153
 17.2673  23.8998
 17.2903  23.9057
 17.3133  23.9919
 17.3362  24.0683
 17.3593  24.0157
 17.3823  24.0392
 17.4053  23.9643
 17.4283  23.9018
 17.4513  23.912
 17.4743  23.9065
 17.4973  23.9398
 17.5203  23.9253
 17.5433  23.8499
 17.5663  23.7512
 17.5893  23.6538
 17.6123  23.6462
 17.6352  23.6886
 17.6583  23.7321
 17.6813  23.8281
 17.7042  23.7912
 17.7273  23.6851
 17.7503  23.7673
 17.7733  23.8417
 17.7963  23.8083
 17.8193  23.7474
 17.8423  23.6162
 17.8653  23.5784
 17.8882  23.6259
 17.9113  23.6896
 17.9343  23.7681
 17.9573  23.7405
 17.9803  23.7245
 18.0033  23.7633
 18.0263  23.9449
 18.0493  24.3188
 18.0723  24.8454
 18.0953  25.0809
 18.1183  24.9429
 18.1413  24.5024
 18.1643  24.0892
 18.1872  23.7177
 18.2103  23.5585
 18.2333  23.5688
 18.2563  23.6057
 18.2793  23.5318
 18.3023  23.5526
 18.3253  23.4355
 18.3483  23.5196
 18.3712  23.5409
 18.3943  23.4586
 18.4173  23.4151
 18.4402  23.41
 18.4633  23.4282
 18.4863  23.4403
 18.5093  23.4602
 18.5323  23.571
 18.5553  23.5068
 18.5783  23.4316
 18.6013  23.4429
 18.6242  23.4264
 18.6473  23.3342
 18.6703  23.3304
 18.6933  23.3693
 18.7163  23.4603
 18.7392  23.4682
 18.7623  23.4578
 18.7853  23.4092
 18.8083  23.42
 18.8313  23.4009
 18.8543  23.4226
 18.8773  23.4254
 18.9003  23.4169
 18.9232  23.3948
 18.9463  23.4856
 18.9693  23.4101
 18.9922  23.2053
 19.0153  23.2153
 19.0383  23.3813
 19.0613  23.4027
 19.0843  23.3884
 19.1073  23.3295
 19.1303  23.3408
 19.1533  23.3945
 19.1762  23.4336
 19.1993  23.337
 19.2223  23.2931
 19.2453  23.3014
 19.2683  23.4647
 19.2913  23.4641
 19.3143  23.4797
 19.3373  23.4889
 19.3603  23.5233
 19.3833  23.5637
 19.4062  23.5642
 19.4293  23.5324
 19.4523  23.5243
 19.4752  23.557
 19.4983  23.5654
 19.5213  23.5275
 19.5443  23.6682
 19.5673  23.5497
 19.5903  23.5486
 19.6133  23.4651
 19.6363  23.5424
 19.6593  23.7398
 19.6823  24.0628
 19.7053  24.5075
 19.7283  24.607
 19.7513  24.3454
 19.7742  24.1303
 19.7973  24.0627
 19.8203  24.1084
 19.8433  24.3411
 19.8663  24.3393
 19.8893  24.2711
 19.9123  24.0291
 19.9353  23.6913
 19.9582  23.5998
 19.9813  23.6481
 20.0043  23.7064
 20.0272  23.5936
 20.0503  23.6457
 20.0733  23.4909
 20.0963  23.4656
 20.1193  23.4467
 20.1423  23.4941
 20.1653  23.6107
 20.1883  23.5757
 20.2112  23.4942
 20.2343  23.4665
 20.2573  23.5243
 20.2803  23.5647
 20.3033  23.4935
 20.3263  23.3913
 20.3493  23.3985
 20.3723  23.4771
 20.3953  23.5422
 20.4183  23.6289
 20.4413  23.5844
 20.4643  23.5911
 20.4873  23.6184
 20.5102  23.5955
 20.5333  23.5737
 20.5563  23.6364
 20.5792  23.6616
 20.6023  23.7602
 20.6253  23.8514
 20.6483  23.8386
 20.6713  23.8553
 20.6943  23.9924
 20.7173  24.3181
 20.7403  24.585
 20.7632  24.8786
 20.7863  25.0042
 20.8093  24.717
 20.8323  24.2262
 20.8553  23.9868
 20.8783  23.8533
 20.9013  23.8868
 20.9243  23.8508
 20.9473  23.7508
 20.9703  23.6692
 20.9933  23.7171
 21.0163  23.6682
 21.0393  23.6446
 21.0622  23.7182
 21.0853  23.7619
 21.1083  23.7525
 21.1313  23.8532
 21.1543  23.8045
 21.1773  23.764
 21.2003  23.7758
 21.2233  23.7274
 21.2462  23.6946
 21.2693  23.6927
 21.2923  23.7115
 21.3152  23.72
 21.3383  23.6911
 21.3613  23.7705
 21.3843  23.7684
 21.4073  23.7416
 21.4303  23.7936
 21.4533  23.7831
 21.4763  23.7523
 21.4992  23.8514
 21.5223  23.8496
 21.5453  23.85
 21.5683  23.8357
 21.5913  23.9097
 21.6142  23.8658
 21.6373  23.8991
 21.6603  24.0067
 21.6833  24.0525
 21.7063  23.9851
 21.7293  24.0312
 21.7523  24.0839
 21.7753  23.9705
 21.7982  24.0345
 21.8213  24.1336
 21.8443  24.0919
 21.8672  24.0656
 21.8903  24.0458
 21.9133  24.0418
 21.9363  24.0449
 21.9593  24.0715
 21.9823  24.1759
 22.0053  24.2141
 22.0283  24.2003
 22.0512  24.2218
 22.0743  24.2151
 22.0973  24.1758
 22.1203  24.1816
 22.1433  24.1367
 22.1663  24.2072
 22.1893  24.2472
 22.2123  24.243
 22.2353  24.293
 22.2583  24.2553
 22.2813  24.2782
 22.3043  24.3254
 22.3273  24.331
 22.3502  24.3811
 22.3733  24.3986
 22.3963  24.2888
 22.4193  24.2167
 22.4423  24.3999
 22.4653  24.4912
 22.4883  24.4882
 22.5113  24.5878
 22.5343  24.6682
 22.5573  24.6839
 22.5803  24.6497
 22.6033  24.728
 22.6263  24.8227
 22.6493  24.9272
 22.6723  24.9312
 22.6953  25.0276
 22.7183  25.1337
 22.7413  25.1758
 22.7643  25.1527
 22.7873  25.1767
 22.8103  25.1912
 22.8333  25.2559
 22.8563  25.2899
 22.8793  25.3765
 22.9022  25.5344
 22.9253  25.7563
 22.9483  25.9199
 22.9713  26.0206
 22.9943  26.0947