File: test-data-xrd/xrd-map-34-ID-E/Data_0057.chi
F:\20151113_APS_34IDE\\Brian\Particle1\OCV\Data_0057.tif
2-Theta Angle (Degrees)
Intensity
       2000
 0.01725  0.0000000E+00
 0.04025  0.0000000E+00
 0.06325  0.0000000E+00
 0.08625  0.0000000E+00
 0.10925  0.0000000E+00
 0.13225  0.0000000E+00
 0.15525  0.0000000E+00
 0.17825  0.0000000E+00
 0.20125  0.0000000E+00
 0.22425  0.0000000E+00
 0.24725  0.0000000E+00
 0.27025  0.0000000E+00
 0.29325  0.0000000E+00
 0.31625  0.0000000E+00
 0.33925  0.0000000E+00
 0.36225  0.0000000E+00
 0.38525  0.0000000E+00
 0.40825  0.0000000E+00
 0.43125  0.0000000E+00
 0.45425  0.0000000E+00
 0.47725  0.0000000E+00
 0.50025  0.0000000E+00
 0.52325  0.0000000E+00
 0.54625  0.0000000E+00
 0.56925  0.0000000E+00
 0.59225  0.0000000E+00
 0.61525  0.0000000E+00
 0.63825  0.0000000E+00
 0.66125  0.0000000E+00
 0.68425  0.0000000E+00
 0.70725  0.0000000E+00
 0.73025  0.0000000E+00
 0.75325  0.0000000E+00
 0.77625  0.0000000E+00
 0.79925  0.0000000E+00
 0.82225  0.0000000E+00
 0.84525  0.0000000E+00
 0.86825  0.0000000E+00
 0.89125  0.0000000E+00
 0.91425  0.0000000E+00
 0.93725  0.0000000E+00
 0.96025  0.0000000E+00
 0.98325  0.0000000E+00
 1.00625  0.0000000E+00
 1.02925  0.0000000E+00
 1.05225  0.0000000E+00
 1.07525  0.0000000E+00
 1.09825  0.0000000E+00
 1.12125  0.0000000E+00
 1.14425  0.0000000E+00
 1.16725  0.0000000E+00
 1.19025  0.0000000E+00
 1.21325  0.0000000E+00
 1.23625  0.0000000E+00
 1.25925  0.0000000E+00
 1.28225  0.0000000E+00
 1.30525  0.0000000E+00
 1.32825  0.0000000E+00
 1.35125  0.0000000E+00
 1.37425  0.0000000E+00
 1.39725  0.0000000E+00
 1.42025  0.0000000E+00
 1.44325  0.0000000E+00
 1.46625  0.0000000E+00
 1.48925  0.0000000E+00
 1.51225  0.0000000E+00
 1.53525  0.0000000E+00
 1.55825  0.0000000E+00
 1.58125  0.0000000E+00
 1.60425  0.0000000E+00
 1.62725  0.0000000E+00
 1.65025  0.0000000E+00
 1.67325  0.0000000E+00
 1.69625  0.0000000E+00
 1.71925  0.0000000E+00
 1.74225  0.0000000E+00
 1.76525  0.0000000E+00
 1.78825  0.0000000E+00
 1.81125  0.0000000E+00
 1.83425  0.0000000E+00
 1.85725  0.0000000E+00
 1.88025  0.0000000E+00
 1.90325  0.0000000E+00
 1.92625  0.0000000E+00
 1.94925  0.0000000E+00
 1.97225  0.0000000E+00
 1.99525  0.0000000E+00
 2.01825  0.0000000E+00
 2.04125  0.0000000E+00
 2.06425  0.0000000E+00
 2.08725  0.0000000E+00
 2.11025  0.0000000E+00
 2.13325  0.0000000E+00
 2.15625  0.0000000E+00
 2.17925  0.0000000E+00
 2.20225  0.0000000E+00
 2.22525  0.0000000E+00
 2.24825  0.0000000E+00
 2.27125  0.0000000E+00
 2.29425  0.0000000E+00
 2.31725  0.0000000E+00
 2.34025  0.0000000E+00
 2.36325  0.0000000E+00
 2.38625  0.0000000E+00
 2.40925  0.0000000E+00
 2.43225  0.0000000E+00
 2.45525  0.0000000E+00
 2.47825  0.0000000E+00
 2.50125  0.0000000E+00
 2.52425  0.0000000E+00
 2.54725  0.0000000E+00
 2.57025  0.0000000E+00
 2.59325  0.0000000E+00
 2.61625  0.0000000E+00
 2.63925  0.0000000E+00
 2.66225  0.0000000E+00
 2.68525  0.0000000E+00
 2.70825  0.0000000E+00
 2.73125  0.0000000E+00
 2.75425  0.0000000E+00
 2.77725  0.0000000E+00
 2.80025  0.0000000E+00
 2.82325  35.3561
 2.84625  34.2006
 2.86925  33.4468
 2.89225  34.626
 2.91525  35.1264
 2.93825  35.1728
 2.96125  34.5007
 2.98425  35.0367
 3.00725  35.5568
 3.03025  35.5809
 3.05325  35.7298
 3.07625  35.8467
 3.09925  36.1146
 3.12225  35.5147
 3.14525  34.9195
 3.16825  35.0226
 3.19125  35.6611
 3.21425  35.7542
 3.23725  35.094
 3.26025  34.8929
 3.28325  34.4955
 3.30625  34.1186
 3.32925  34.0928
 3.35225  34.6408
 3.37525  35.0298
 3.39825  34.6085
 3.42125  33.8583
 3.44425  33.78
 3.46725  33.6194
 3.49025  33.3823
 3.51325  33.649
 3.53625  33.9241
 3.55925  33.8327
 3.58225  33.51
 3.60525  33.3003
 3.62825  33.4052
 3.65125  33.568
 3.67425  33.3673
 3.69725  33.0569
 3.72025  33.0702
 3.74325  33.4525
 3.76625  33.4604
 3.78925  32.9131
 3.81225  32.5062
 3.83525  32.3944
 3.85825  32.4143
 3.88125  32.6172
 3.90425  32.6138
 3.92725  32.6081
 3.95025  32.8637
 3.97325  33.1898
 3.99625  33.2797
 4.01925  32.8594
 4.04225  32.381
 4.06525  32.4238
 4.08825  32.3183
 4.11125  32.0713
 4.13425  32.1113
 4.15725  32.4776
 4.18025  32.2065
 4.20325  32.4208
 4.22625  32.6931
 4.24925  32.6142
 4.27225  32.447
 4.29525  32.308
 4.31825  32.3055
 4.34125  32.2842
 4.36425  32.4555
 4.38725  32.5176
 4.41025  32.3716
 4.43325  32.1753
 4.45625  31.892
 4.47925  32.0317
 4.50225  32.2354
 4.52525  32.3893
 4.54825  32.4684
 4.57125  32.7781
 4.59425  32.8429
 4.61725  32.7227
 4.64025  32.6622
 4.66325  32.7411
 4.68625  32.7839
 4.70925  32.9967
 4.73225  32.9672
 4.75525  32.7891
 4.77825  32.6214
 4.80125  32.6473
 4.82425  32.7134
 4.84725  32.8379
 4.87025  32.9336
 4.89325  32.8185
 4.91625  32.7881
 4.93925  32.9406
 4.96225  32.9413
 4.98525  33.0966
 5.00825  33.0571
 5.03125  33.0801
 5.05425  33.2509
 5.07725  33.3733
 5.10025  33.4743
 5.12325  33.3745
 5.14625  33.4423
 5.16925  33.7627
 5.19225  33.9628
 5.21525  34.064
 5.23825  34.2173
 5.26125  34.2498
 5.28425  34.1783
 5.30725  34.1732
 5.33025  34.1924
 5.35325  34.2388
 5.37625  34.2128
 5.39925  34.2514
 5.42225  34.2793
 5.44525  34.4554
 5.46825  34.5337
 5.49125  34.6557
 5.51425  34.7619
 5.53725  34.8189
 5.56025  35.0938
 5.58325  35.241
 5.60625  35.4098
 5.62925  35.4776
 5.65225  35.4746
 5.67525  35.6913
 5.69825  35.7195
 5.72125  35.8738
 5.74425  36.1642
 5.76725  36.5535
 5.79025  37.0978
 5.81325  37.3348
 5.83625  37.6355
 5.85925  38.0136
 5.88225  39.3541
 5.90525  44.3895
 5.92825  55.2464
 5.95125  92.3735
 5.97425  120.488
 5.99725  113.038
 6.02025  72.3084
 6.04325  49.5504
 6.06625  42.9863
 6.08925  39.4944
 6.11225  38.5646
 6.13525  38.2317
 6.15825  37.8728
 6.18125  37.7085
 6.20425  37.6141
 6.22725  37.5347
 6.25025  37.4012
 6.27325  37.4817
 6.29625  37.5792
 6.31925  37.7742
 6.34225  38.1103
 6.36525  38.1262
 6.38825  38.2602
 6.41125  38.376
 6.43425  38.6779
 6.45725  38.925
 6.48025  38.8928
 6.50325  38.9663
 6.52625  39.2577
 6.54925  39.4655
 6.57225  39.7119
 6.59525  40.0265
 6.61825  40.0678
 6.64125  40.0608
 6.66425  40.0738
 6.68725  40.057
 6.71025  40.419
 6.73325  40.7516
 6.75625  40.9173
 6.77925  41.0964
 6.80225  41.2087
 6.82525  41.3635
 6.84825  41.5536
 6.87125  41.816
 6.89425  41.8166
 6.91725  41.7511
 6.94025  41.738
 6.96325  41.8573
 6.98625  41.8919
 7.00925  41.9966
 7.03225  42.2079
 7.05525  42.5541
 7.07825  42.7656
 7.10125  42.862
 7.12425  42.8614
 7.14725  42.7164
 7.17025  42.8563
 7.19325  43.1176
 7.21625  43.2207
 7.23925  43.295
 7.26225  43.2271
 7.28525  43.3026
 7.30825  43.3658
 7.33125  43.7024
 7.35425  43.849
 7.37725  44.0092
 7.40025  44.0753
 7.42325  44.2105
 7.44625  44.1628
 7.46925  44.0958
 7.49225  44.2974
 7.51525  44.2676
 7.53825  44.2253
 7.56125  44.1566
 7.58425  44.0944
 7.60725  44.0333
 7.63025  44.1484
 7.65325  44.127
 7.67625  44.1779
 7.69925  44.1647
 7.72225  44.1584
 7.74525  44.1802
 7.76825  44.1179
 7.79125  44.2838
 7.81425  44.3464
 7.83725  44.1341
 7.86025  43.9126
 7.88325  43.6393
 7.90625  43.488
 7.92925  43.6552
 7.95225  43.5539
 7.97525  43.3507
 7.99825  43.0946
 8.02125  43.0262
 8.04425  43.0752
 8.06725  42.8999
 8.09025  42.6521
 8.11325  42.5452
 8.13625  42.3461
 8.15925  42.0744
 8.18225  41.7433
 8.20525  41.5293
 8.22825  41.4484
 8.25125  41.2783
 8.27425  41.0373
 8.29725  40.7067
 8.32025  40.4092
 8.34325  40.0008
 8.36625  39.7059
 8.38925  39.444
 8.41225  39.1209
 8.43525  38.7024
 8.45825  38.3075
 8.48125  38.0909
 8.50425  37.7955
 8.52725  37.4934
 8.55025  37.0532
 8.57325  36.861
 8.59625  36.6165
 8.61925  36.353
 8.64225  35.9932
 8.66525  35.3893
 8.68825  34.9267
 8.71125  34.6384
 8.73425  34.3585
 8.75725  34.0285
 8.78025  33.6897
 8.80325  33.3709
 8.82625  33.0731
 8.84925  32.6946
 8.87225  32.3028
 8.89525  32.021
 8.91825  31.7911
 8.94125  31.3358
 8.96425  31.0249
 8.98725  30.89
 9.01025  30.4786
 9.03325  30.1918
 9.05625  29.9716
 9.07925  29.8812
 9.10225  29.6526
 9.12525  29.2676
 9.14825  29.1017
 9.17125  28.9201
 9.19425  28.7627
 9.21725  28.5115
 9.24025  28.3448
 9.26325  28.2824
 9.28625  28.0432
 9.30925  27.8074
 9.33225  27.4646
 9.35525  27.1708
 9.37825  26.9409
 9.40125  26.8347
 9.42425  26.7592
 9.44725  26.5794
 9.47025  26.553
 9.49325  26.4952
 9.51625  26.2657
 9.53925  26.149
 9.56225  26.0921
 9.58525  25.9417
 9.60825  25.7319
 9.63125  25.5269
 9.65425  25.3744
 9.67725  25.2611
 9.70025  25.1487
 9.72325  25.0885
 9.74625  25.1147
 9.76925  25.0894
 9.79225  25.0525
 9.81525  24.9538
 9.83825  24.9114
 9.86125  24.8207
 9.88425  24.7241
 9.90725  24.615
 9.93025  24.4689
 9.95325  24.399
 9.97625  24.3724
 9.99925  24.3477
 10.0222  24.2168
 10.0453  24.2111
 10.0683  24.1026
 10.0913  24.0356
 10.1143  23.9947
 10.1373  23.8678
 10.1603  23.7799
 10.1832  23.7612
 10.2063  23.7736
 10.2293  23.7997
 10.2523  23.7876
 10.2752  23.6782
 10.2982  23.6101
 10.3213  23.5566
 10.3443  23.4692
 10.3673  23.4626
 10.3902  23.5806
 10.4133  23.5826
 10.4363  23.3577
 10.4593  23.2315
 10.4823  23.2387
 10.5053  23.2235
 10.5283  23.1962
 10.5512  23.1152
 10.5742  23.003
 10.5973  22.8843
 10.6203  22.954
 10.6433  23.014
 10.6662  23.044
 10.6893  23.0604
 10.7123  23.0306
 10.7353  23.0029
 10.7583  23.0351
 10.7813  23.0294
 10.8043  22.8463
 10.8272  22.788
 10.8503  22.8006
 10.8733  22.7944
 10.8963  22.8016
 10.9192  22.8429
 10.9422  22.8665
 10.9653  22.8185
 10.9883  22.7638
 11.0113  22.687
 11.0343  22.6441
 11.0573  22.5377
 11.0803  22.587
 11.1033  22.5762
 11.1263  22.6104
 11.1493  22.6224
 11.1723  22.6838
 11.1953  22.66
 11.2182  22.6068
 11.2413  22.4389
 11.2643  22.5286
 11.2873  22.5525
 11.3102  22.547
 11.3333  22.5836
 11.3563  22.7057
 11.3793  22.8192
 11.4023  23.0715
 11.4253  23.1719
 11.4483  23.2389
 11.4713  23.4393
 11.4942  23.8621
 11.5173  25.0282
 11.5403  29.0766
 11.5633  37.5597
 11.5862  45.8146
 11.6093  45.0333
 11.6323  35.3549
 11.6553  27.7714
 11.6783  24.5419
 11.7013  23.5763
 11.7243  23.1993
 11.7473  23.0584
 11.7703  22.9349
 11.7933  22.8225
 11.8163  22.8315
 11.8393  22.8455
 11.8622  22.8178
 11.8853  22.8647
 11.9083  23.1263
 11.9313  24.2271
 11.9543  25.8009
 11.9773  29.074
 12.0003  27.7574
 12.0233  26.0382
 12.0463  24.3522
 12.0693  24.2011
 12.0923  24.644
 12.1153  24.6715
 12.1382  24.0221
 12.1613  23.2449
 12.1843  22.8294
 12.2073  22.6613
 12.2302  22.5838
 12.2533  22.6307
 12.2763  22.6358
 12.2993  22.707
 12.3223  22.6465
 12.3453  22.6411
 12.3683  22.7225
 12.3913  22.8063
 12.4142  22.7412
 12.4373  22.6351
 12.4603  22.691
 12.4833  22.8494
 12.5062  22.7995
 12.5292  22.7503
 12.5523  22.751
 12.5753  22.8158
 12.5983  22.8047
 12.6212  22.8141
 12.6443  22.8354
 12.6673  22.7919
 12.6903  22.8108
 12.7133  22.9279
 12.7363  22.9572
 12.7593  23.0771
 12.7822  23.2325
 12.8052  23.2939
 12.8283  23.3416
 12.8513  23.3971
 12.8742  23.4091
 12.8972  23.5279
 12.9203  23.583
 12.9433  23.8024
 12.9663  23.946
 12.9893  24.0978
 13.0123  24.1631
 13.0353  24.2789
 13.0582  24.3303
 13.0813  24.4663
 13.1043  24.7407
 13.1273  25.019
 13.1502  25.168
 13.1732  25.3802
 13.1963  25.6621
 13.2193  25.8907
 13.2423  26.3044
 13.2652  26.6285
 13.2883  26.8932
 13.3113  27.1177
 13.3343  27.3623
 13.3573  27.6504
 13.3803  27.9164
 13.4033  28.2575
 13.4262  28.4018
 13.4492  28.5878
 13.4723  28.8452
 13.4953  29.1181
 13.5183  29.4319
 13.5412  29.6028
 13.5643  29.6692
 13.5873  29.734
 13.6103  29.7795
 13.6333  29.736
 13.6563  29.7555
 13.6793  29.8532
 13.7022  29.7555
 13.7253  29.7111
 13.7483  29.6633
 13.7713  29.5435
 13.7942  29.5772
 13.8172  29.5682
 13.8403  29.6539
 13.8633  29.9918
 13.8863  30.8458
 13.9093  33.4661
 13.9323  38.7757
 13.9553  43.8855
 13.9783  44.964
 14.0013  40.4567
 14.0243  33.6983
 14.0473  29.9937
 14.0703  28.6478
 14.0932  28.0952
 14.1163  27.7172
 14.1393  27.5035
 14.1623  27.2876
 14.1852  27.0634
 14.2083  27.0042
 14.2313  26.908
 14.2543  26.7359
 14.2773  26.5859
 14.3003  26.3322
 14.3233  26.292
 14.3463  26.2371
 14.3692  26.1883
 14.3923  26.0882
 14.4153  25.9503
 14.4383  25.9585
 14.4612  25.8385
 14.4843  25.729
 14.5073  25.6311
 14.5303  25.6393
 14.5533  25.6466
 14.5763  25.6403
 14.5993  25.6239
 14.6223  25.5203
 14.6453  25.4003
 14.6683  25.2913
 14.6913  25.326
 14.7143  25.3699
 14.7372  25.327
 14.7603  25.2657
 14.7833  25.1802
 14.8063  25.0751
 14.8293  25.0541
 14.8523  25.0869
 14.8753  25.0209
 14.8983  25.0837
 14.9213  25.0899
 14.9443  24.8999
 14.9673  24.7723
 14.9903  24.7954
 15.0132  24.8499
 15.0363  24.869
 15.0593  24.7924
 15.0823  24.9092
 15.1052  25.0686
 15.1283  25.2665
 15.1513  25.9547
 15.1743  26.9159
 15.1973  27.4066
 15.2203  27.0999
 15.2433  26.0186
 15.2663  25.1999
 15.2892  24.8362
 15.3123  24.7301
 15.3353  24.708
 15.3583  24.6536
 15.3812  24.5681
 15.4043  24.4526
 15.4273  24.4819
 15.4503  24.5317
 15.4733  24.5955
 15.4963  24.6461
 15.5193  24.6772
 15.5423  24.539
 15.5653  24.4688
 15.5883  24.5918
 15.6113  24.6205
 15.6343  24.5786
 15.6572  24.5678
 15.6803  24.5651
 15.7033  24.5886
 15.7263  24.6256
 15.7492  24.5172
 15.7723  24.4944
 15.7953  24.4424
 15.8183  24.5577
 15.8413  24.5384
 15.8643  24.5107
 15.8873  24.5129
 15.9103  24.6435
 15.9332  24.7412
 15.9563  24.6809
 15.9793  24.6964
 16.0023  24.7426
 16.0253  24.7655
 16.0482  24.8387
 16.0713  24.8588
 16.0943  24.8845
 16.1172  24.9642
 16.1403  24.9306
 16.1633  25.1223
 16.1863  25.4423
 16.2093  26.0662
 16.2323  26.883
 16.2553  27.4832
 16.2783  26.99
 16.3012  25.7846
 16.3243  25.0523
 16.3472  24.8089
 16.3703  24.6997
 16.3933  24.7528
 16.4163  24.7806
 16.4393  24.8419
 16.4623  24.7305
 16.4853  24.7165
 16.5083  24.784
 16.5312  24.6895
 16.5543  24.6191
 16.5773  24.6197
 16.6002  24.5972
 16.6233  24.5432
 16.6463  24.5246
 16.6693  24.5734
 16.6923  24.5152
 16.7153  24.4625
 16.7383  24.4321
 16.7613  24.5209
 16.7843  24.4479
 16.8073  24.4103
 16.8303  24.4248
 16.8533  24.4399
 16.8763  24.543
 16.8992  24.6089
 16.9223  24.5746
 16.9453  24.4531
 16.9683  24.3186
 16.9913  24.2738
 17.0143  24.3167
 17.0373  24.3229
 17.0603  24.2388
 17.0832  24.1838
 17.1063  24.1724
 17.1293  24.1919
 17.1522  24.233
 17.1753  24.2565
 17.1983  24.2695
 17.2213  24.216
 17.2443  24.1278
 17.2673  24.0378
 17.2903  24.0528
 17.3133  24.1425
 17.3362  24.1349
 17.3593  24.0535
 17.3823  23.9521
 17.4053  23.9302
 17.4283  24.0041
 17.4513  24.0357
 17.4743  24.0119
 17.4973  24.0042
 17.5203  24.0349
 17.5433  24.0224
 17.5663  23.9319
 17.5893  23.7813
 17.6123  23.9084
 17.6352  23.8821
 17.6583  23.7395
 17.6813  23.8138
 17.7042  23.8804
 17.7273  23.8482
 17.7503  23.8235
 17.7733  23.9544
 17.7963  24.0979
 17.8193  23.9867
 17.8423  23.9966
 17.8653  23.9786
 17.8882  23.9956
 17.9113  23.9939
 17.9343  23.9828
 17.9573  24.0638
 17.9803  24.3224
 18.0033  24.5439
 18.0263  24.7216
 18.0493  25.5292
 18.0723  27.307
 18.0953  28.9345
 18.1183  28.7483
 18.1413  27.2293
 18.1643  25.7608
 18.1872  24.7039
 18.2103  24.2965
 18.2333  23.9511
 18.2563  23.819
 18.2793  23.8903
 18.3023  23.8929
 18.3253  23.7663
 18.3483  23.6869
 18.3712  23.6807
 18.3943  23.7845
 18.4173  23.7967
 18.4402  23.7741
 18.4633  23.7972
 18.4863  23.7966
 18.5093  23.6883
 18.5323  23.5742
 18.5553  23.5387
 18.5783  23.5885
 18.6013  23.7271
 18.6242  23.7085
 18.6473  23.6155
 18.6703  23.5834
 18.6933  23.613
 18.7163  23.619
 18.7392  23.6022
 18.7623  23.5413
 18.7853  23.4688
 18.8083  23.4879
 18.8313  23.5102
 18.8543  23.5189
 18.8773  23.5382
 18.9003  23.5774
 18.9232  23.6032
 18.9463  23.7324
 18.9693  23.6649
 18.9922  23.6047
 19.0153  23.6311
 19.0383  23.6401
 19.0613  23.6289
 19.0843  23.6579
 19.1073  23.6001
 19.1303  23.5741
 19.1533  23.5512
 19.1762  23.5762
 19.1993  23.5731
 19.2223  23.4475
 19.2453  23.4197
 19.2683  23.5555
 19.2913  23.5818
 19.3143  23.5624
 19.3373  23.506
 19.3603  23.6116
 19.3833  23.6277
 19.4062  23.6089
 19.4293  23.6076
 19.4523  23.65
 19.4752  23.7312
 19.4983  23.7583
 19.5213  23.8088
 19.5443  23.9347
 19.5673  24.0421
 19.5903  24.2142
 19.6133  24.3092
 19.6363  24.5891
 19.6593  25.344
 19.6823  26.5667
 19.7053  27.7536
 19.7283  27.9678
 19.7513  27.2505
 19.7742  26.3479
 19.7973  26.7583
 19.8203  28.9323
 19.8433  31.6573
 19.8663  32.5646
 19.8893  30.6983
 19.9123  27.8784
 19.9353  25.6897
 19.9582  24.6338
 19.9813  24.311
 20.0043  24.1402
 20.0272  24.0919
 20.0503  24.1862
 20.0733  24.0068
 20.0963  23.8637
 20.1193  23.8598
 20.1423  23.8463
 20.1653  23.8527
 20.1883  23.7846
 20.2112  23.7928
 20.2343  23.8808
 20.2573  23.9125
 20.2803  23.8247
 20.3033  23.7994
 20.3263  23.8138
 20.3493  23.8539
 20.3723  23.7866
 20.3953  23.7568
 20.4183  23.7741
 20.4413  23.797
 20.4643  23.8141
 20.4873  23.7783
 20.5102  23.7713
 20.5333  23.7516
 20.5563  23.8676
 20.5792  23.9211
 20.6023  24.0329
 20.6253  24.1146
 20.6483  24.1624
 20.6713  24.2284
 20.6943  24.5643
 20.7173  25.3553
 20.7403  26.5748
 20.7632  28.0385
 20.7863  27.838
 20.8093  26.2607
 20.8323  24.9945
 20.8553  24.5012
 20.8783  24.2446
 20.9013  24.1034
 20.9243  24.0807
 20.9473  24.0844
 20.9703  24.0094
 20.9933  24.0034
 21.0163  23.9828
 21.0393  23.9793
 21.0622  23.9821
 21.0853  23.9675
 21.1083  23.8722
 21.1313  23.9972
 21.1543  23.9635
 21.1773  23.8963
 21.2003  23.9081
 21.2233  23.9245
 21.2462  23.9537
 21.2693  24.0298
 21.2923  23.9615
 21.3152  23.9835
 21.3383  23.9786
 21.3613  23.9706
 21.3843  23.9789
 21.4073  23.9012
 21.4303  23.9075
 21.4533  23.9923
 21.4763  23.9982
 21.4992  24.0382
 21.5223  24.1037
 21.5453  24.0666
 21.5683  24.0536
 21.5913  24.1434
 21.6142  24.1849
 21.6373  24.151
 21.6603  24.1526
 21.6833  24.1789
 21.7063  24.2172
 21.7293  24.121
 21.7523  24.0633
 21.7753  24.07
 21.7982  24.1744
 21.8213  24.2412
 21.8443  24.2186
 21.8672  24.2797
 21.8903  24.2826
 21.9133  24.2416
 21.9363  24.2503
 21.9593  24.2106
 21.9823  24.159
 22.0053  24.2723
 22.0283  24.3703
 22.0512  24.3001
 22.0743  24.3066
 22.0973  24.3003
 22.1203  24.3791
 22.1433  24.4624
 22.1663  24.4556
 22.1893  24.3958
 22.2123  24.4335
 22.2353  24.5145
 22.2583  24.6002
 22.2813  24.4808
 22.3043  24.4848
 22.3273  24.5585
 22.3502  24.6341
 22.3733  24.6735
 22.3963  24.5678
 22.4193  24.5272
 22.4423  24.6843
 22.4653  24.7725
 22.4883  24.78
 22.5113  24.8959
 22.5343  24.9588
 22.5573  24.9508
 22.5803  24.9716
 22.6033  25.0178
 22.6263  25.0847
 22.6493  25.0773
 22.6723  25.0733
 22.6953  25.2206
 22.7183  25.2242
 22.7413  25.2772
 22.7643  25.3467
 22.7873  25.3438
 22.8103  25.3531
 22.8333  25.3943
 22.8563  25.4898
 22.8793  25.668
 22.9022  25.7851
 22.9253  25.9238
 22.9483  26.0581
 22.9713  26.2094
 22.9943  26.4326