File: test-data-xrd/xrd-map-34-ID-E/Data_0002.chi
F:\20151113_APS_34IDE\\Brian\Particle1\OCV\Data_0002.tif
2-Theta Angle (Degrees)
Intensity
       2000
 0.01725  0.0000000E+00
 0.04025  0.0000000E+00
 0.06325  0.0000000E+00
 0.08625  0.0000000E+00
 0.10925  0.0000000E+00
 0.13225  0.0000000E+00
 0.15525  0.0000000E+00
 0.17825  0.0000000E+00
 0.20125  0.0000000E+00
 0.22425  0.0000000E+00
 0.24725  0.0000000E+00
 0.27025  0.0000000E+00
 0.29325  0.0000000E+00
 0.31625  0.0000000E+00
 0.33925  0.0000000E+00
 0.36225  0.0000000E+00
 0.38525  0.0000000E+00
 0.40825  0.0000000E+00
 0.43125  0.0000000E+00
 0.45425  0.0000000E+00
 0.47725  0.0000000E+00
 0.50025  0.0000000E+00
 0.52325  0.0000000E+00
 0.54625  0.0000000E+00
 0.56925  0.0000000E+00
 0.59225  0.0000000E+00
 0.61525  0.0000000E+00
 0.63825  0.0000000E+00
 0.66125  0.0000000E+00
 0.68425  0.0000000E+00
 0.70725  0.0000000E+00
 0.73025  0.0000000E+00
 0.75325  0.0000000E+00
 0.77625  0.0000000E+00
 0.79925  0.0000000E+00
 0.82225  0.0000000E+00
 0.84525  0.0000000E+00
 0.86825  0.0000000E+00
 0.89125  0.0000000E+00
 0.91425  0.0000000E+00
 0.93725  0.0000000E+00
 0.96025  0.0000000E+00
 0.98325  0.0000000E+00
 1.00625  0.0000000E+00
 1.02925  0.0000000E+00
 1.05225  0.0000000E+00
 1.07525  0.0000000E+00
 1.09825  0.0000000E+00
 1.12125  0.0000000E+00
 1.14425  0.0000000E+00
 1.16725  0.0000000E+00
 1.19025  0.0000000E+00
 1.21325  0.0000000E+00
 1.23625  0.0000000E+00
 1.25925  0.0000000E+00
 1.28225  0.0000000E+00
 1.30525  0.0000000E+00
 1.32825  0.0000000E+00
 1.35125  0.0000000E+00
 1.37425  0.0000000E+00
 1.39725  0.0000000E+00
 1.42025  0.0000000E+00
 1.44325  0.0000000E+00
 1.46625  0.0000000E+00
 1.48925  0.0000000E+00
 1.51225  0.0000000E+00
 1.53525  0.0000000E+00
 1.55825  0.0000000E+00
 1.58125  0.0000000E+00
 1.60425  0.0000000E+00
 1.62725  0.0000000E+00
 1.65025  0.0000000E+00
 1.67325  0.0000000E+00
 1.69625  0.0000000E+00
 1.71925  0.0000000E+00
 1.74225  0.0000000E+00
 1.76525  0.0000000E+00
 1.78825  0.0000000E+00
 1.81125  0.0000000E+00
 1.83425  0.0000000E+00
 1.85725  0.0000000E+00
 1.88025  0.0000000E+00
 1.90325  0.0000000E+00
 1.92625  0.0000000E+00
 1.94925  0.0000000E+00
 1.97225  0.0000000E+00
 1.99525  0.0000000E+00
 2.01825  0.0000000E+00
 2.04125  0.0000000E+00
 2.06425  0.0000000E+00
 2.08725  0.0000000E+00
 2.11025  0.0000000E+00
 2.13325  0.0000000E+00
 2.15625  0.0000000E+00
 2.17925  0.0000000E+00
 2.20225  0.0000000E+00
 2.22525  0.0000000E+00
 2.24825  0.0000000E+00
 2.27125  0.0000000E+00
 2.29425  0.0000000E+00
 2.31725  0.0000000E+00
 2.34025  0.0000000E+00
 2.36325  0.0000000E+00
 2.38625  0.0000000E+00
 2.40925  0.0000000E+00
 2.43225  0.0000000E+00
 2.45525  0.0000000E+00
 2.47825  0.0000000E+00
 2.50125  0.0000000E+00
 2.52425  0.0000000E+00
 2.54725  0.0000000E+00
 2.57025  0.0000000E+00
 2.59325  0.0000000E+00
 2.61625  0.0000000E+00
 2.63925  0.0000000E+00
 2.66225  0.0000000E+00
 2.68525  0.0000000E+00
 2.70825  0.0000000E+00
 2.73125  0.0000000E+00
 2.75425  0.0000000E+00
 2.77725  0.0000000E+00
 2.80025  0.0000000E+00
 2.82325  33.6537
 2.84625  33.8018
 2.86925  33.4344
 2.89225  34.961
 2.91525  35.7551
 2.93825  35.3743
 2.96125  34.7925
 2.98425  34.3411
 3.00725  34.7379
 3.03025  34.9847
 3.05325  34.5974
 3.07625  35.0074
 3.09925  35.4805
 3.12225  35.1619
 3.14525  35.1813
 3.16825  35.3902
 3.19125  35.0346
 3.21425  34.2336
 3.23725  33.8602
 3.26025  33.7048
 3.28325  33.8598
 3.30625  33.8884
 3.32925  33.5988
 3.35225  33.768
 3.37525  34.2641
 3.39825  34.3677
 3.42125  34.186
 3.44425  34.3139
 3.46725  34.5444
 3.49025  34.5195
 3.51325  34.0083
 3.53625  33.7381
 3.55925  33.9181
 3.58225  33.8075
 3.60525  33.7249
 3.62825  33.6861
 3.65125  33.7442
 3.67425  33.5664
 3.69725  33.4046
 3.72025  33.2223
 3.74325  33.0238
 3.76625  32.7739
 3.78925  32.6821
 3.81225  32.4926
 3.83525  32.6854
 3.85825  32.5887
 3.88125  32.5133
 3.90425  32.3043
 3.92725  32.1551
 3.95025  32.5742
 3.97325  32.7771
 3.99625  32.5297
 4.01925  32.8006
 4.04225  32.7802
 4.06525  33.0523
 4.08825  32.7135
 4.11125  32.4833
 4.13425  32.2414
 4.15725  32.304
 4.18025  32.3054
 4.20325  32.3894
 4.22625  32.5006
 4.24925  32.4406
 4.27225  32.3255
 4.29525  32.193
 4.31825  32.2655
 4.34125  32.457
 4.36425  32.5464
 4.38725  32.4504
 4.41025  32.2969
 4.43325  32.4478
 4.45625  32.6432
 4.47925  32.7161
 4.50225  32.491
 4.52525  32.4949
 4.54825  32.6488
 4.57125  32.5961
 4.59425  32.6867
 4.61725  32.6716
 4.64025  32.6745
 4.66325  32.7635
 4.68625  32.5683
 4.70925  32.8052
 4.73225  32.88
 4.75525  32.6664
 4.77825  32.2923
 4.80125  32.3466
 4.82425  32.5993
 4.84725  32.7223
 4.87025  32.7864
 4.89325  32.9566
 4.91625  33.0273
 4.93925  33.0418
 4.96225  32.9854
 4.98525  33.0844
 5.00825  33.0905
 5.03125  32.9943
 5.05425  33.1451
 5.07725  33.2831
 5.10025  33.366
 5.12325  33.5763
 5.14625  33.6061
 5.16925  33.6203
 5.19225  33.7767
 5.21525  33.9306
 5.23825  34.0184
 5.26125  34.0558
 5.28425  34.2572
 5.30725  34.2196
 5.33025  33.9529
 5.35325  33.879
 5.37625  34.2103
 5.39925  34.536
 5.42225  34.4762
 5.44525  34.3582
 5.46825  34.5802
 5.49125  34.783
 5.51425  34.9423
 5.53725  34.9585
 5.56025  34.9299
 5.58325  35.1458
 5.60625  35.1221
 5.62925  34.9834
 5.65225  35.0416
 5.67525  35.2078
 5.69825  35.341
 5.72125  35.399
 5.74425  35.2158
 5.76725  35.181
 5.79025  35.5214
 5.81325  35.6454
 5.83625  35.7246
 5.85925  35.7991
 5.88225  35.8898
 5.90525  36.0499
 5.92825  36.5456
 5.95125  37.9558
 5.97425  39.6249
 5.99725  39.6425
 6.02025  38.1717
 6.04325  37.04
 6.06625  36.9362
 6.08925  36.9509
 6.11225  36.8864
 6.13525  36.9144
 6.15825  36.8352
 6.18125  36.9605
 6.20425  37.1118
 6.22725  37.334
 6.25025  37.4099
 6.27325  37.4072
 6.29625  37.5292
 6.31925  37.833
 6.34225  38.1712
 6.36525  38.363
 6.38825  38.5816
 6.41125  38.6592
 6.43425  38.8263
 6.45725  39.0078
 6.48025  38.9896
 6.50325  39.2059
 6.52625  39.328
 6.54925  39.5452
 6.57225  39.828
 6.59525  39.9483
 6.61825  40.1477
 6.64125  40.2248
 6.66425  40.2643
 6.68725  40.2201
 6.71025  40.2999
 6.73325  40.6198
 6.75625  40.8896
 6.77925  41.1988
 6.80225  41.3941
 6.82525  41.5193
 6.84825  41.6092
 6.87125  41.9434
 6.89425  42.2169
 6.91725  42.4215
 6.94025  42.5651
 6.96325  42.5173
 6.98625  42.5198
 7.00925  42.4387
 7.03225  42.6848
 7.05525  42.8391
 7.07825  42.9805
 7.10125  43.1527
 7.12425  43.351
 7.14725  43.396
 7.17025  43.3669
 7.19325  43.4377
 7.21625  43.5143
 7.23925  43.7791
 7.26225  43.8932
 7.28525  44.0726
 7.30825  44.2917
 7.33125  44.4478
 7.35425  44.2783
 7.37725  44.22
 7.40025  44.3427
 7.42325  44.5839
 7.44625  44.7736
 7.46925  44.8177
 7.49225  44.692
 7.51525  44.6198
 7.53825  44.6674
 7.56125  44.766
 7.58425  44.7412
 7.60725  44.7053
 7.63025  44.6525
 7.65325  44.555
 7.67625  44.5355
 7.69925  44.6674
 7.72225  45.0253
 7.74525  45.146
 7.76825  45.1988
 7.79125  45.1011
 7.81425  44.869
 7.83725  44.7996
 7.86025  44.7636
 7.88325  44.7112
 7.90625  44.7109
 7.92925  44.7601
 7.95225  44.5914
 7.97525  44.3127
 7.99825  44.1963
 8.02125  43.9846
 8.04425  43.8337
 8.06725  43.6031
 8.09025  43.512
 8.11325  43.6496
 8.13625  43.4525
 8.15925  43.2294
 8.18225  42.8628
 8.20525  42.4849
 8.22825  42.2298
 8.25125  42.1947
 8.27425  42.0475
 8.29725  41.5513
 8.32025  41.1562
 8.34325  40.9181
 8.36625  40.7962
 8.38925  40.4124
 8.41225  39.9166
 8.43525  39.5029
 8.45825  39.4459
 8.48125  39.345
 8.50425  38.9505
 8.52725  38.5335
 8.55025  37.9982
 8.57325  37.4504
 8.59625  37.0158
 8.61925  36.7768
 8.64225  36.5935
 8.66525  36.3328
 8.68825  36.0908
 8.71125  35.7526
 8.73425  35.2293
 8.75725  34.8307
 8.78025  34.5462
 8.80325  34.1796
 8.82625  33.8323
 8.84925  33.4969
 8.87225  33.2414
 8.89525  32.935
 8.91825  32.579
 8.94125  32.2103
 8.96425  31.8469
 8.98725  31.652
 9.01025  31.3333
 9.03325  30.9927
 9.05625  30.6579
 9.07925  30.6661
 9.10225  30.5453
 9.12525  30.0687
 9.14825  29.7835
 9.17125  29.5831
 9.19425  29.3989
 9.21725  29.1617
 9.24025  28.8783
 9.26325  28.6067
 9.28625  28.443
 9.30925  28.3045
 9.33225  28.1503
 9.35525  27.8925
 9.37825  27.7678
 9.40125  27.7117
 9.42425  27.5621
 9.44725  27.433
 9.47025  27.3715
 9.49325  27.2845
 9.51625  27.0922
 9.53925  26.8255
 9.56225  26.5325
 9.58525  26.3668
 9.60825  26.3516
 9.63125  26.3086
 9.65425  26.124
 9.67725  25.9733
 9.70025  25.7962
 9.72325  25.8638
 9.74625  25.7609
 9.76925  25.6811
 9.79225  25.6693
 9.81525  25.6049
 9.83825  25.3485
 9.86125  25.2207
 9.88425  25.1064
 9.90725  25.026
 9.93025  24.9356
 9.95325  24.8196
 9.97625  24.7921
 9.99925  24.6551
 10.0222  24.6334
 10.0453  24.581
 10.0683  24.5074
 10.0913  24.4309
 10.1143  24.4558
 10.1373  24.4234
 10.1603  24.3778
 10.1832  24.3795
 10.2063  24.3175
 10.2293  24.3259
 10.2523  24.2308
 10.2752  24.0835
 10.2982  24.0253
 10.3213  23.9179
 10.3443  23.9207
 10.3673  23.9016
 10.3902  23.957
 10.4133  23.9366
 10.4363  23.7699
 10.4593  23.6979
 10.4823  23.7592
 10.5053  23.7678
 10.5283  23.7285
 10.5512  23.5688
 10.5742  23.3724
 10.5973  23.2817
 10.6203  23.3124
 10.6433  23.2848
 10.6662  23.2981
 10.6893  23.2134
 10.7123  23.2673
 10.7353  23.2454
 10.7583  23.215
 10.7813  23.1674
 10.8043  23.1471
 10.8272  23.1403
 10.8503  23.133
 10.8733  23.1108
 10.8963  23.0016
 10.9192  22.9078
 10.9422  22.8449
 10.9653  22.9917
 10.9883  22.9164
 11.0113  22.8439
 11.0343  22.9098
 11.0573  22.8629
 11.0803  22.7902
 11.1033  22.794
 11.1263  22.8952
 11.1493  23.0022
 11.1723  22.8905
 11.1953  22.7449
 11.2182  22.6631
 11.2413  22.6438
 11.2643  22.6175
 11.2873  22.5813
 11.3102  22.5512
 11.3333  22.5419
 11.3563  22.5628
 11.3793  22.6923
 11.4023  22.8823
 11.4253  23.0123
 11.4483  23.0733
 11.4713  23.0602
 11.4942  22.9803
 11.5173  23.0089
 11.5403  23.4835
 11.5633  24.4818
 11.5862  25.283
 11.6093  24.9677
 11.6323  23.8617
 11.6553  23.0576
 11.6783  22.7057
 11.7013  22.5815
 11.7243  22.6308
 11.7473  22.7343
 11.7703  22.678
 11.7933  22.5547
 11.8163  22.4499
 11.8393  22.472
 11.8622  22.5308
 11.8853  22.5222
 11.9083  22.521
 11.9313  22.6351
 11.9543  22.8068
 11.9773  22.912
 12.0003  22.8934
 12.0233  22.7955
 12.0463  22.7869
 12.0693  22.9397
 12.0923  23.164
 12.1153  23.0959
 12.1382  22.9184
 12.1613  22.8598
 12.1843  22.886
 12.2073  22.8323
 12.2302  22.7265
 12.2533  22.649
 12.2763  22.6757
 12.2993  22.6826
 12.3223  22.7257
 12.3453  22.7965
 12.3683  22.7445
 12.3913  22.6935
 12.4142  22.6279
 12.4373  22.6914
 12.4603  22.7882
 12.4833  22.8736
 12.5062  22.8034
 12.5292  22.7113
 12.5523  22.7455
 12.5753  22.8053
 12.5983  22.8862
 12.6212  22.9516
 12.6443  23.0138
 12.6673  23.0402
 12.6903  23.0712
 12.7133  23.102
 12.7363  23.2055
 12.7593  23.3679
 12.7822  23.4093
 12.8052  23.4619
 12.8283  23.5331
 12.8513  23.5469
 12.8742  23.5825
 12.8972  23.5538
 12.9203  23.7425
 12.9433  23.9001
 12.9663  23.9699
 12.9893  24.0017
 13.0123  24.0959
 13.0353  24.2025
 13.0582  24.4612
 13.0813  24.6591
 13.1043  24.9659
 13.1273  25.2223
 13.1502  25.3903
 13.1732  25.5968
 13.1963  25.8388
 13.2193  26.0578
 13.2423  26.4698
 13.2652  26.7315
 13.2883  27.0683
 13.3113  27.2655
 13.3343  27.5546
 13.3573  27.9772
 13.3803  28.2708
 13.4033  28.5103
 13.4262  28.7551
 13.4492  28.979
 13.4723  29.0993
 13.4953  29.4079
 13.5183  29.6465
 13.5412  29.7748
 13.5643  29.9633
 13.5873  29.9818
 13.6103  29.9508
 13.6333  29.8784
 13.6563  29.8679
 13.6793  29.8429
 13.7022  29.7221
 13.7253  29.6179
 13.7483  29.574
 13.7713  29.4854
 13.7942  29.5313
 13.8172  29.4674
 13.8403  29.242
 13.8633  29.2839
 13.8863  29.5538
 13.9093  30.3382
 13.9323  31.6093
 13.9553  32.3277
 13.9783  31.4668
 14.0013  29.673
 14.0243  28.5106
 14.0473  27.9662
 14.0703  27.7603
 14.0932  27.6188
 14.1163  27.4602
 14.1393  27.2203
 14.1623  27.064
 14.1852  26.9388
 14.2083  26.8537
 14.2313  26.7786
 14.2543  26.6457
 14.2773  26.4871
 14.3003  26.4311
 14.3233  26.2979
 14.3463  26.3133
 14.3692  26.2568
 14.3923  26.1117
 14.4153  26.0327
 14.4383  25.9516
 14.4612  25.8378
 14.4843  25.7815
 14.5073  25.7489
 14.5303  25.7192
 14.5533  25.7643
 14.5763  25.6336
 14.5993  25.432
 14.6223  25.3771
 14.6453  25.4655
 14.6683  25.4942
 14.6913  25.4236
 14.7143  25.3495
 14.7372  25.2759
 14.7603  25.1919
 14.7833  25.2398
 14.8063  25.2479
 14.8293  25.1869
 14.8523  25.1332
 14.8753  24.9948
 14.8983  25.0123
 14.9213  25.0924
 14.9443  25.0937
 14.9673  24.9942
 14.9903  24.977
 15.0132  24.9524
 15.0363  24.9385
 15.0593  24.9449
 15.0823  24.9608
 15.1052  24.9755
 15.1283  24.9172
 15.1513  24.9891
 15.1743  25.185
 15.1973  25.3017
 15.2203  25.242
 15.2433  24.9642
 15.2663  24.7541
 15.2892  24.7063
 15.3123  24.7295
 15.3353  24.6938
 15.3583  24.7688
 15.3812  24.7728
 15.4043  24.6958
 15.4273  24.7369
 15.4503  24.7225
 15.4733  24.6371
 15.4963  24.6227
 15.5193  24.7092
 15.5423  24.7336
 15.5653  24.6795
 15.5883  24.6531
 15.6113  24.6308
 15.6343  24.6236
 15.6572  24.7298
 15.6803  24.8386
 15.7033  24.9093
 15.7263  24.8781
 15.7492  24.8418
 15.7723  24.9392
 15.7953  24.8661
 15.8183  24.7662
 15.8413  24.7292
 15.8643  24.78
 15.8873  24.7577
 15.9103  24.7381
 15.9332  24.7954
 15.9563  24.7907
 15.9793  24.7478
 16.0023  24.8421
 16.0253  24.9153
 16.0482  24.8682
 16.0713  24.9896
 16.0943  25.0412
 16.1172  25.1059
 16.1403  25.1779
 16.1633  25.3762
 16.1863  26.1209
 16.2093  27.6709
 16.2323  29.0337
 16.2553  29.0298
 16.2783  27.6778
 16.3012  26.0806
 16.3243  25.3393
 16.3472  25.0215
 16.3703  24.8969
 16.3933  25.0067
 16.4163  25.0806
 16.4393  25.018
 16.4623  24.9016
 16.4853  24.8381
 16.5083  24.8279
 16.5312  24.8537
 16.5543  24.8655
 16.5773  24.8229
 16.6002  24.8091
 16.6233  24.8329
 16.6463  24.8242
 16.6693  24.7635
 16.6923  24.8118
 16.7153  24.7708
 16.7383  24.7407
 16.7613  24.7176
 16.7843  24.6269
 16.8073  24.574
 16.8303  24.5371
 16.8533  24.5232
 16.8763  24.5472
 16.8992  24.5151
 16.9223  24.5685
 16.9453  24.5702
 16.9683  24.459
 16.9913  24.4516
 17.0143  24.4884
 17.0373  24.4783
 17.0603  24.3304
 17.0832  24.3624
 17.1063  24.456
 17.1293  24.5058
 17.1522  24.4728
 17.1753  24.3
 17.1983  24.2756
 17.2213  24.3161
 17.2443  24.3494
 17.2673  24.2844
 17.2903  24.2518
 17.3133  24.2374
 17.3362  24.2286
 17.3593  24.1957
 17.3823  24.19
 17.4053  24.1694
 17.4283  24.1258
 17.4513  24.0605
 17.4743  24.0472
 17.4973  24.0609
 17.5203  24.0607
 17.5433  24.0692
 17.5663  24.027
 17.5893  24.0443
 17.6123  24.0528
 17.6352  24.0114
 17.6583  23.9107
 17.6813  23.9748
 17.7042  23.9847
 17.7273  23.879
 17.7503  24.192
 17.7733  24.8196
 17.7963  24.8102
 17.8193  24.0014
 17.8423  23.8844
 17.8653  23.9134
 17.8882  23.9484
 17.9113  23.9659
 17.9343  23.8624
 17.9573  23.8546
 17.9803  23.9986
 18.0033  24.0083
 18.0263  23.917
 18.0493  23.9414
 18.0723  24.1063
 18.0953  24.2334
 18.1183  24.2157
 18.1413  24.0681
 18.1643  23.9061
 18.1872  23.7928
 18.2103  23.8206
 18.2333  23.7824
 18.2563  23.7535
 18.2793  23.7442
 18.3023  23.7791
 18.3253  23.6724
 18.3483  23.648
 18.3712  23.7387
 18.3943  23.7953
 18.4173  23.7928
 18.4402  23.8188
 18.4633  23.7821
 18.4863  23.7194
 18.5093  23.651
 18.5323  23.6635
 18.5553  23.6874
 18.5783  23.7261
 18.6013  23.7114
 18.6242  23.7657
 18.6473  23.7619
 18.6703  23.6611
 18.6933  23.6737
 18.7163  23.6562
 18.7392  23.6319
 18.7623  23.6464
 18.7853  23.5756
 18.8083  23.5661
 18.8313  23.4963
 18.8543  23.4894
 18.8773  23.5313
 18.9003  23.6249
 18.9232  23.6909
 18.9463  23.7521
 18.9693  23.7057
 18.9922  23.6801
 19.0153  23.6906
 19.0383  23.7359
 19.0613  23.7076
 19.0843  23.6459
 19.1073  23.5886
 19.1303  23.6041
 19.1533  23.702
 19.1762  23.7069
 19.1993  23.6549
 19.2223  23.6403
 19.2453  23.572
 19.2683  23.7678
 19.2913  24.1244
 19.3143  25.0647
 19.3373  23.8509
 19.3603  23.7173
 19.3833  23.7444
 19.4062  23.7709
 19.4293  23.785
 19.4523  23.7421
 19.4752  23.7229
 19.4983  23.6247
 19.5213  23.6701
 19.5443  23.7396
 19.5673  23.7652
 19.5903  23.7425
 19.6133  23.701
 19.6363  23.7552
 19.6593  23.942
 19.6823  24.1329
 19.7053  24.3308
 19.7283  24.3822
 19.7513  24.2282
 19.7742  24.0475
 19.7973  24.0215
 19.8203  24.1878
 19.8433  24.5831
 19.8663  24.637
 19.8893  24.4928
 19.9123  24.2376
 19.9353  23.9339
 19.9582  23.7919
 19.9813  23.82
 20.0043  23.822
 20.0272  23.7887
 20.0503  23.7712
 20.0733  23.7596
 20.0963  23.7583
 20.1193  23.8267
 20.1423  23.8952
 20.1653  23.9569
 20.1883  23.9406
 20.2112  23.7839
 20.2343  23.7526
 20.2573  23.8103
 20.2803  23.8167
 20.3033  23.7644
 20.3263  23.7286
 20.3493  23.7516
 20.3723  23.7866
 20.3953  23.7176
 20.4183  23.8193
 20.4413  23.9481
 20.4643  23.8954
 20.4873  23.7952
 20.5102  23.8651
 20.5333  23.835
 20.5563  23.86
 20.5792  23.8762
 20.6023  23.8836
 20.6253  23.9755
 20.6483  24.0333
 20.6713  24.0092
 20.6943  24.0629
 20.7173  24.2231
 20.7403  24.3572
 20.7632  24.4264
 20.7863  24.3628
 20.8093  24.2172
 20.8323  24.045
 20.8553  24.0835
 20.8783  24.056
 20.9013  24.0412
 20.9243  24.0984
 20.9473  24.063
 20.9703  23.9856
 20.9933  23.9963
 21.0163  23.9783
 21.0393  23.9301
 21.0622  23.8966
 21.0853  24.0104
 21.1083  23.9633
 21.1313  23.968
 21.1543  23.9588
 21.1773  23.9581
 21.2003  23.9091
 21.2233  23.9345
 21.2462  23.9888
 21.2693  24.0646
 21.2923  24.0532
 21.3152  23.9727
 21.3383  23.9698
 21.3613  24.1059
 21.3843  24.1794
 21.4073  24.1769
 21.4303  24.1625
 21.4533  24.04
 21.4763  24.0277
 21.4992  24.1289
 21.5223  24.186
 21.5453  24.1856
 21.5683  24.1693
 21.5913  24.299
 21.6142  24.326
 21.6373  24.2651
 21.6603  24.1822
 21.6833  24.0918
 21.7063  24.1544
 21.7293  24.2371
 21.7523  24.2225
 21.7753  24.2169
 21.7982  24.2547
 21.8213  24.2831
 21.8443  24.2735
 21.8672  24.3253
 21.8903  24.3189
 21.9133  24.2754
 21.9363  24.2875
 21.9593  24.325
 21.9823  24.3517
 22.0053  24.4317
 22.0283  24.5058
 22.0512  24.4835
 22.0743  24.473
 22.0973  24.3894
 22.1203  24.4481
 22.1433  24.4043
 22.1663  24.3333
 22.1893  24.3207
 22.2123  24.4252
 22.2353  24.4955
 22.2583  24.5428
 22.2813  24.5096
 22.3043  24.6474
 22.3273  24.6783
 22.3502  24.6923
 22.3733  24.6791
 22.3963  24.6007
 22.4193  24.525
 22.4423  24.6747
 22.4653  24.7892
 22.4883  24.7953
 22.5113  24.867
 22.5343  24.8658
 22.5573  24.885
 22.5803  24.8211
 22.6033  24.8602
 22.6263  24.958
 22.6493  24.981
 22.6723  25.0426
 22.6953  25.1924
 22.7183  25.2184
 22.7413  25.2445
 22.7643  25.3115
 22.7873  25.3494
 22.8103  25.5198
 22.8333  25.5964
 22.8563  25.6043
 22.8793  25.6787
 22.9022  25.8676
 22.9253  26.0771
 22.9483  26.0739
 22.9713  26.0826
 22.9943  26.2395