File: test-data-xrd/xrd-map-34-ID-E/Data_0139.chi
F:\20151113_APS_34IDE\\Brian\Particle1\OCV\Data_0139.tif
2-Theta Angle (Degrees)
Intensity
       2000
 0.01725  0.0000000E+00
 0.04025  0.0000000E+00
 0.06325  0.0000000E+00
 0.08625  0.0000000E+00
 0.10925  0.0000000E+00
 0.13225  0.0000000E+00
 0.15525  0.0000000E+00
 0.17825  0.0000000E+00
 0.20125  0.0000000E+00
 0.22425  0.0000000E+00
 0.24725  0.0000000E+00
 0.27025  0.0000000E+00
 0.29325  0.0000000E+00
 0.31625  0.0000000E+00
 0.33925  0.0000000E+00
 0.36225  0.0000000E+00
 0.38525  0.0000000E+00
 0.40825  0.0000000E+00
 0.43125  0.0000000E+00
 0.45425  0.0000000E+00
 0.47725  0.0000000E+00
 0.50025  0.0000000E+00
 0.52325  0.0000000E+00
 0.54625  0.0000000E+00
 0.56925  0.0000000E+00
 0.59225  0.0000000E+00
 0.61525  0.0000000E+00
 0.63825  0.0000000E+00
 0.66125  0.0000000E+00
 0.68425  0.0000000E+00
 0.70725  0.0000000E+00
 0.73025  0.0000000E+00
 0.75325  0.0000000E+00
 0.77625  0.0000000E+00
 0.79925  0.0000000E+00
 0.82225  0.0000000E+00
 0.84525  0.0000000E+00
 0.86825  0.0000000E+00
 0.89125  0.0000000E+00
 0.91425  0.0000000E+00
 0.93725  0.0000000E+00
 0.96025  0.0000000E+00
 0.98325  0.0000000E+00
 1.00625  0.0000000E+00
 1.02925  0.0000000E+00
 1.05225  0.0000000E+00
 1.07525  0.0000000E+00
 1.09825  0.0000000E+00
 1.12125  0.0000000E+00
 1.14425  0.0000000E+00
 1.16725  0.0000000E+00
 1.19025  0.0000000E+00
 1.21325  0.0000000E+00
 1.23625  0.0000000E+00
 1.25925  0.0000000E+00
 1.28225  0.0000000E+00
 1.30525  0.0000000E+00
 1.32825  0.0000000E+00
 1.35125  0.0000000E+00
 1.37425  0.0000000E+00
 1.39725  0.0000000E+00
 1.42025  0.0000000E+00
 1.44325  0.0000000E+00
 1.46625  0.0000000E+00
 1.48925  0.0000000E+00
 1.51225  0.0000000E+00
 1.53525  0.0000000E+00
 1.55825  0.0000000E+00
 1.58125  0.0000000E+00
 1.60425  0.0000000E+00
 1.62725  0.0000000E+00
 1.65025  0.0000000E+00
 1.67325  0.0000000E+00
 1.69625  0.0000000E+00
 1.71925  0.0000000E+00
 1.74225  0.0000000E+00
 1.76525  0.0000000E+00
 1.78825  0.0000000E+00
 1.81125  0.0000000E+00
 1.83425  0.0000000E+00
 1.85725  0.0000000E+00
 1.88025  0.0000000E+00
 1.90325  0.0000000E+00
 1.92625  0.0000000E+00
 1.94925  0.0000000E+00
 1.97225  0.0000000E+00
 1.99525  0.0000000E+00
 2.01825  0.0000000E+00
 2.04125  0.0000000E+00
 2.06425  0.0000000E+00
 2.08725  0.0000000E+00
 2.11025  0.0000000E+00
 2.13325  0.0000000E+00
 2.15625  0.0000000E+00
 2.17925  0.0000000E+00
 2.20225  0.0000000E+00
 2.22525  0.0000000E+00
 2.24825  0.0000000E+00
 2.27125  0.0000000E+00
 2.29425  0.0000000E+00
 2.31725  0.0000000E+00
 2.34025  0.0000000E+00
 2.36325  0.0000000E+00
 2.38625  0.0000000E+00
 2.40925  0.0000000E+00
 2.43225  0.0000000E+00
 2.45525  0.0000000E+00
 2.47825  0.0000000E+00
 2.50125  0.0000000E+00
 2.52425  0.0000000E+00
 2.54725  0.0000000E+00
 2.57025  0.0000000E+00
 2.59325  0.0000000E+00
 2.61625  0.0000000E+00
 2.63925  0.0000000E+00
 2.66225  0.0000000E+00
 2.68525  0.0000000E+00
 2.70825  0.0000000E+00
 2.73125  0.0000000E+00
 2.75425  0.0000000E+00
 2.77725  0.0000000E+00
 2.80025  0.0000000E+00
 2.82325  31.3372
 2.84625  34.018
 2.86925  35.707
 2.89225  35.9884
 2.91525  35.4701
 2.93825  34.1703
 2.96125  33.7658
 2.98425  33.9841
 3.00725  34.9034
 3.03025  35.0709
 3.05325  35.4168
 3.07625  35.4671
 3.09925  35.85
 3.12225  35.4712
 3.14525  35.2866
 3.16825  35.3412
 3.19125  35.3209
 3.21425  35.5847
 3.23725  34.8332
 3.26025  34.4199
 3.28325  34.3851
 3.30625  34.5147
 3.32925  35.118
 3.35225  34.8941
 3.37525  34.3923
 3.39825  34.035
 3.42125  34.065
 3.44425  33.9649
 3.46725  34.6825
 3.49025  34.9065
 3.51325  34.5073
 3.53625  34.2004
 3.55925  33.7909
 3.58225  33.2487
 3.60525  32.959
 3.62825  32.9429
 3.65125  33.2453
 3.67425  33.0637
 3.69725  33.1093
 3.72025  33.1755
 3.74325  33.3296
 3.76625  33.4479
 3.78925  33.3166
 3.81225  32.9652
 3.83525  32.8458
 3.85825  32.8719
 3.88125  32.8805
 3.90425  32.5342
 3.92725  32.2848
 3.95025  32.3352
 3.97325  32.5184
 3.99625  32.8299
 4.01925  32.9261
 4.04225  32.9927
 4.06525  32.7989
 4.08825  32.6641
 4.11125  32.7179
 4.13425  32.7341
 4.15725  32.7369
 4.18025  32.3674
 4.20325  32.0954
 4.22625  32.1386
 4.24925  32.1476
 4.27225  32.1249
 4.29525  32.1632
 4.31825  32.1046
 4.34125  32.1353
 4.36425  32.2667
 4.38725  32.1106
 4.41025  32.1594
 4.43325  32.3618
 4.45625  32.5481
 4.47925  32.6451
 4.50225  32.4712
 4.52525  32.4579
 4.54825  32.3923
 4.57125  32.198
 4.59425  32.3243
 4.61725  32.594
 4.64025  32.7883
 4.66325  32.9502
 4.68625  32.7542
 4.70925  32.6811
 4.73225  32.6306
 4.75525  32.5711
 4.77825  32.5937
 4.80125  32.3786
 4.82425  32.4816
 4.84725  32.8143
 4.87025  33.1989
 4.89325  33.1658
 4.91625  33.0772
 4.93925  32.9273
 4.96225  32.9204
 4.98525  32.9162
 5.00825  32.9785
 5.03125  33.1133
 5.05425  32.9834
 5.07725  32.8876
 5.10025  33.0527
 5.12325  33.1146
 5.14625  33.2073
 5.16925  33.5166
 5.19225  33.917
 5.21525  34.0023
 5.23825  34.0686
 5.26125  34.1446
 5.28425  34.0881
 5.30725  34.0985
 5.33025  34.1797
 5.35325  34.2759
 5.37625  34.3004
 5.39925  34.4525
 5.42225  34.3966
 5.44525  34.4786
 5.46825  34.6839
 5.49125  34.7958
 5.51425  34.9078
 5.53725  34.7601
 5.56025  34.7749
 5.58325  35.0084
 5.60625  35.2711
 5.62925  35.3448
 5.65225  35.409
 5.67525  35.7321
 5.69825  35.6586
 5.72125  35.309
 5.74425  35.2399
 5.76725  35.3306
 5.79025  35.5836
 5.81325  35.8087
 5.83625  35.9278
 5.85925  35.8776
 5.88225  35.8928
 5.90525  36.1628
 5.92825  36.5204
 5.95125  37.2667
 5.97425  38.397
 5.99725  38.897
 6.02025  38.2614
 6.04325  37.1939
 6.06625  36.8772
 6.08925  36.8511
 6.11225  36.7601
 6.13525  36.6808
 6.15825  36.7676
 6.18125  36.8851
 6.20425  36.9479
 6.22725  36.9025
 6.25025  36.928
 6.27325  37.1782
 6.29625  37.4456
 6.31925  37.5799
 6.34225  37.799
 6.36525  37.7604
 6.38825  37.9068
 6.41125  38.185
 6.43425  38.3974
 6.45725  38.5285
 6.48025  38.6401
 6.50325  39.0312
 6.52625  39.4028
 6.54925  39.5236
 6.57225  39.6671
 6.59525  39.5714
 6.61825  39.6415
 6.64125  39.8657
 6.66425  40.196
 6.68725  40.2912
 6.71025  40.3818
 6.73325  40.5001
 6.75625  40.7287
 6.77925  40.9538
 6.80225  41.2932
 6.82525  41.5945
 6.84825  41.6162
 6.87125  41.8317
 6.89425  41.982
 6.91725  42.0692
 6.94025  42.0817
 6.96325  42.0217
 6.98625  42.0827
 7.00925  42.101
 7.03225  42.2639
 7.05525  42.4406
 7.07825  42.6624
 7.10125  43.0041
 7.12425  43.2244
 7.14725  43.174
 7.17025  43.3014
 7.19325  43.4388
 7.21625  43.5738
 7.23925  43.6814
 7.26225  43.7825
 7.28525  43.7367
 7.30825  43.7385
 7.33125  43.7267
 7.35425  43.9075
 7.37725  43.98
 7.40025  44.1256
 7.42325  44.4015
 7.44625  44.4182
 7.46925  44.4038
 7.49225  44.3193
 7.51525  44.3586
 7.53825  44.3782
 7.56125  44.7245
 7.58425  44.8634
 7.60725  44.7395
 7.63025  44.7141
 7.65325  44.7365
 7.67625  44.5847
 7.69925  44.3347
 7.72225  44.3186
 7.74525  44.2871
 7.76825  44.2433
 7.79125  44.2529
 7.81425  44.3134
 7.83725  44.1127
 7.86025  43.941
 7.88325  43.8379
 7.90625  43.9457
 7.92925  44.0942
 7.95225  43.9597
 7.97525  43.6843
 7.99825  43.5877
 8.02125  43.4775
 8.04425  43.3377
 8.06725  43.102
 8.09025  42.8285
 8.11325  42.6929
 8.13625  42.4221
 8.15925  42.4869
 8.18225  42.3133
 8.20525  42.1807
 8.22825  41.8901
 8.25125  41.6861
 8.27425  41.5305
 8.29725  41.0603
 8.32025  40.538
 8.34325  40.3075
 8.36625  40.0741
 8.38925  39.8308
 8.41225  39.4378
 8.43525  39.0453
 8.45825  38.7085
 8.48125  38.5267
 8.50425  38.3604
 8.52725  38.0536
 8.55025  37.648
 8.57325  37.075
 8.59625  36.6112
 8.61925  36.3185
 8.64225  36.0379
 8.66525  35.6607
 8.68825  35.3524
 8.71125  35.0306
 8.73425  34.6982
 8.75725  34.1973
 8.78025  33.8252
 8.80325  33.4648
 8.82625  33.1355
 8.84925  32.7401
 8.87225  32.4032
 8.89525  32.151
 8.91825  31.9456
 8.94125  31.6572
 8.96425  31.4178
 8.98725  31.2311
 9.01025  30.8721
 9.03325  30.484
 9.05625  30.3072
 9.07925  30.1308
 9.10225  29.8309
 9.12525  29.5599
 9.14825  29.4482
 9.17125  29.2286
 9.19425  28.9756
 9.21725  28.6388
 9.24025  28.4051
 9.26325  28.2407
 9.28625  27.9498
 9.30925  27.6257
 9.33225  27.3424
 9.35525  27.2034
 9.37825  27.1308
 9.40125  27.0951
 9.42425  27.0067
 9.44725  26.8265
 9.47025  26.6002
 9.49325  26.4529
 9.51625  26.3029
 9.53925  26.1485
 9.56225  25.9395
 9.58525  25.736
 9.60825  25.7011
 9.63125  25.7026
 9.65425  25.6354
 9.67725  25.4136
 9.70025  25.3271
 9.72325  25.2805
 9.74625  25.2785
 9.76925  25.2214
 9.79225  25.1748
 9.81525  25.1676
 9.83825  24.9459
 9.86125  24.767
 9.88425  24.5098
 9.90725  24.4906
 9.93025  24.4517
 9.95325  24.3327
 9.97625  24.354
 9.99925  24.3955
 10.0222  24.3136
 10.0453  24.2441
 10.0683  24.191
 10.0913  24.0449
 10.1143  24.0101
 10.1373  23.9752
 10.1603  23.9154
 10.1832  23.8658
 10.2063  23.7551
 10.2293  23.7331
 10.2523  23.7332
 10.2752  23.713
 10.2982  23.6899
 10.3213  23.5444
 10.3443  23.4408
 10.3673  23.3678
 10.3902  23.3693
 10.4133  23.3441
 10.4363  23.2469
 10.4593  23.1744
 10.4823  23.1023
 10.5053  23.0806
 10.5283  23.0153
 10.5512  22.9352
 10.5742  23.0081
 10.5973  22.8669
 10.6203  22.9852
 10.6433  23.0376
 10.6662  22.9939
 10.6893  22.7719
 10.7123  22.6583
 10.7353  22.7376
 10.7583  22.8195
 10.7813  22.8545
 10.8043  22.7269
 10.8272  22.7266
 10.8503  22.6966
 10.8733  22.5912
 10.8963  22.5511
 10.9192  22.5153
 10.9422  22.5025
 10.9653  22.5182
 10.9883  22.555
 11.0113  22.6078
 11.0343  22.518
 11.0573  22.5002
 11.0803  22.4842
 11.1033  22.4712
 11.1263  22.4241
 11.1493  22.4292
 11.1723  22.4857
 11.1953  22.4864
 11.2182  22.4221
 11.2413  22.3591
 11.2643  22.3832
 11.2873  22.3442
 11.3102  22.3078
 11.3333  22.4252
 11.3563  22.4756
 11.3793  22.4758
 11.4023  22.5227
 11.4253  22.5036
 11.4483  22.4462
 11.4713  22.4533
 11.4942  22.4394
 11.5173  22.4281
 11.5403  22.6272
 11.5633  22.8496
 11.5862  23.0859
 11.6093  23.0536
 11.6323  22.6816
 11.6553  22.4638
 11.6783  22.3955
 11.7013  22.3639
 11.7243  22.2932
 11.7473  22.2678
 11.7703  22.3007
 11.7933  22.3561
 11.8163  22.3283
 11.8393  22.3355
 11.8622  22.3362
 11.8853  22.3172
 11.9083  22.4781
 11.9313  22.7501
 11.9543  23.0798
 11.9773  23.4671
 12.0003  23.6019
 12.0233  23.3896
 12.0463  23.0137
 12.0693  22.8219
 12.0923  22.8499
 12.1153  22.7553
 12.1382  22.6415
 12.1613  22.5808
 12.1843  22.4906
 12.2073  22.5014
 12.2302  22.453
 12.2533  22.4406
 12.2763  22.4061
 12.2993  22.3564
 12.3223  22.3541
 12.3453  22.4137
 12.3683  22.5167
 12.3913  22.5271
 12.4142  22.4845
 12.4373  22.4713
 12.4603  22.4888
 12.4833  22.5649
 12.5062  22.4851
 12.5292  22.4245
 12.5523  22.4621
 12.5753  22.5289
 12.5983  22.6231
 12.6212  22.6998
 12.6443  22.6586
 12.6673  22.6071
 12.6903  22.7138
 12.7133  22.8512
 12.7363  22.8437
 12.7593  22.9833
 12.7822  23.0763
 12.8052  23.1236
 12.8283  23.106
 12.8513  23.1897
 12.8742  23.2589
 12.8972  23.3079
 12.9203  23.4593
 12.9433  23.6129
 12.9663  23.7693
 12.9893  23.8325
 13.0123  23.8903
 13.0353  24.0153
 13.0582  24.0961
 13.0813  24.3053
 13.1043  24.6657
 13.1273  24.8846
 13.1502  25.0002
 13.1732  25.1606
 13.1963  25.4897
 13.2193  25.7598
 13.2423  26.0611
 13.2652  26.2354
 13.2883  26.5228
 13.3113  26.8564
 13.3343  27.2786
 13.3573  27.6595
 13.3803  27.8035
 13.4033  28.1113
 13.4262  28.3155
 13.4492  28.546
 13.4723  28.8094
 13.4953  29.0931
 13.5183  29.2451
 13.5412  29.3135
 13.5643  29.401
 13.5873  29.5938
 13.6103  29.6911
 13.6333  29.6752
 13.6563  29.6622
 13.6793  29.7901
 13.7022  29.6039
 13.7253  29.4006
 13.7483  29.3168
 13.7713  29.2806
 13.7942  29.2579
 13.8172  29.1315
 13.8403  28.962
 13.8633  28.9168
 13.8863  28.875
 13.9093  29.1417
 13.9323  29.8067
 13.9553  30.4246
 13.9783  30.238
 14.0013  29.3182
 14.0243  28.2964
 14.0473  27.7117
 14.0703  27.4508
 14.0932  27.2363
 14.1163  27.1759
 14.1393  27.0527
 14.1623  26.8901
 14.1852  26.7242
 14.2083  26.5026
 14.2313  26.3946
 14.2543  26.2426
 14.2773  26.1304
 14.3003  26.1235
 14.3233  26.1429
 14.3463  26.0873
 14.3692  26.0828
 14.3923  25.9284
 14.4153  25.88
 14.4383  25.8193
 14.4612  25.6918
 14.4843  25.6589
 14.5073  25.6861
 14.5303  25.6179
 14.5533  25.4411
 14.5763  25.4252
 14.5993  25.4232
 14.6223  25.3093
 14.6453  25.1622
 14.6683  25.0788
 14.6913  25.0957
 14.7143  25.1539
 14.7372  25.0106
 14.7603  24.9125
 14.7833  24.8771
 14.8063  24.8451
 14.8293  24.7623
 14.8523  24.7534
 14.8753  24.6518
 14.8983  24.7053
 14.9213  24.7436
 14.9443  24.7532
 14.9673  24.7395
 14.9903  24.7325
 15.0132  24.74
 15.0363  24.751
 15.0593  24.7134
 15.0823  24.698
 15.1052  24.5934
 15.1283  24.4951
 15.1513  24.6774
 15.1743  24.8133
 15.1973  24.8138
 15.2203  24.8359
 15.2433  24.5663
 15.2663  24.4421
 15.2892  24.4735
 15.3123  24.5458
 15.3353  24.3916
 15.3583  24.3245
 15.3812  24.2841
 15.4043  24.3345
 15.4273  24.3719
 15.4503  24.3726
 15.4733  24.3822
 15.4963  24.4504
 15.5193  24.4929
 15.5423  24.4476
 15.5653  24.386
 15.5883  24.2864
 15.6113  24.2492
 15.6343  24.3427
 15.6572  24.4451
 15.6803  24.4824
 15.7033  24.4354
 15.7263  24.2984
 15.7492  24.2494
 15.7723  24.3673
 15.7953  24.4742
 15.8183  24.5855
 15.8413  24.5624
 15.8643  24.5438
 15.8873  24.5666
 15.9103  24.5658
 15.9332  24.5119
 15.9563  24.5021
 15.9793  24.5014
 16.0023  24.4842
 16.0253  24.452
 16.0482  24.4525
 16.0713  24.4301
 16.0943  24.5031
 16.1172  24.5406
 16.1403  24.608
 16.1633  24.7803
 16.1863  24.912
 16.2093  25.301
 16.2323  25.9821
 16.2553  26.3404
 16.2783  25.932
 16.3012  25.1817
 16.3243  24.7155
 16.3472  24.5362
 16.3703  24.4933
 16.3933  24.5252
 16.4163  24.5571
 16.4393  24.5897
 16.4623  24.5053
 16.4853  24.4994
 16.5083  24.426
 16.5312  24.3603
 16.5543  24.4552
 16.5773  24.4413
 16.6002  24.4917
 16.6233  24.4667
 16.6463  24.4199
 16.6693  24.5122
 16.6923  24.5789
 16.7153  24.432
 16.7383  24.3433
 16.7613  24.3379
 16.7843  24.226
 16.8073  24.1516
 16.8303  24.1496
 16.8533  24.2003
 16.8763  24.2197
 16.8992  24.1884
 16.9223  24.1697
 16.9453  24.1657
 16.9683  24.1836
 16.9913  24.1814
 17.0143  24.152
 17.0373  24.2086
 17.0603  24.2172
 17.0832  24.1888
 17.1063  24.0866
 17.1293  24.071
 17.1522  24.0846
 17.1753  24.1725
 17.1983  24.2086
 17.2213  24.1451
 17.2443  23.9741
 17.2673  23.8997
 17.2903  23.8646
 17.3133  23.9152
 17.3362  24.022
 17.3593  23.8745
 17.3823  23.7887
 17.4053  23.7888
 17.4283  23.7746
 17.4513  23.7971
 17.4743  23.9033
 17.4973  23.851
 17.5203  23.8006
 17.5433  23.8235
 17.5663  23.774
 17.5893  23.7047
 17.6123  23.7021
 17.6352  23.6474
 17.6583  23.6153
 17.6813  23.7385
 17.7042  23.7352
 17.7273  23.6781
 17.7503  23.6227
 17.7733  23.6144
 17.7963  23.6746
 17.8193  23.5594
 17.8423  23.4799
 17.8653  23.5612
 17.8882  23.5451
 17.9113  23.4649
 17.9343  23.4738
 17.9573  23.4301
 17.9803  23.4814
 18.0033  23.5963
 18.0263  23.664
 18.0493  23.7316
 18.0723  23.6708
 18.0953  23.645
 18.1183  23.6577
 18.1413  23.6317
 18.1643  23.6139
 18.1872  23.4835
 18.2103  23.384
 18.2333  23.3738
 18.2563  23.3303
 18.2793  23.3267
 18.3023  23.3768
 18.3253  23.3759
 18.3483  23.4498
 18.3712  23.4368
 18.3943  23.4597
 18.4173  23.4838
 18.4402  23.4373
 18.4633  23.3782
 18.4863  23.3256
 18.5093  23.3114
 18.5323  23.3
 18.5553  23.3586
 18.5783  23.3912
 18.6013  23.3865
 18.6242  23.359
 18.6473  23.276
 18.6703  23.3411
 18.6933  23.4232
 18.7163  23.4277
 18.7392  23.3939
 18.7623  23.3152
 18.7853  23.2943
 18.8083  23.2454
 18.8313  23.3039
 18.8543  23.3365
 18.8773  23.31
 18.9003  23.3481
 18.9232  23.3622
 18.9463  23.3613
 18.9693  23.341
 18.9922  23.3302
 19.0153  23.2937
 19.0383  23.334
 19.0613  23.3539
 19.0843  23.45
 19.1073  23.4232
 19.1303  23.3611
 19.1533  23.3488
 19.1762  23.268
 19.1993  23.2171
 19.2223  23.2367
 19.2453  23.2681
 19.2683  23.3301
 19.2913  23.3144
 19.3143  23.3877
 19.3373  23.3959
 19.3603  23.4281
 19.3833  23.5084
 19.4062  23.553
 19.4293  23.4509
 19.4523  23.2637
 19.4752  23.3305
 19.4983  23.4348
 19.5213  23.424
 19.5443  23.4308
 19.5673  23.3768
 19.5903  23.4102
 19.6133  23.4118
 19.6363  23.472
 19.6593  23.5943
 19.6823  23.8445
 19.7053  24.0555
 19.7283  24.0092
 19.7513  23.8479
 19.7742  23.7065
 19.7973  23.7777
 19.8203  23.9214
 19.8433  23.9281
 19.8663  23.8453
 19.8893  23.7188
 19.9123  23.6777
 19.9353  23.467
 19.9582  23.3283
 19.9813  23.3258
 20.0043  23.3647
 20.0272  23.466
 20.0503  23.5028
 20.0733  23.4133
 20.0963  23.4311
 20.1193  23.5059
 20.1423  23.4617
 20.1653  23.3726
 20.1883  23.4117
 20.2112  23.4938
 20.2343  23.5338
 20.2573  23.4864
 20.2803  23.5248
 20.3033  23.5148
 20.3263  23.4863
 20.3493  23.5594
 20.3723  23.485
 20.3953  23.3951
 20.4183  23.5186
 20.4413  23.5983
 20.4643  23.5019
 20.4873  23.4551
 20.5102  23.495
 20.5333  23.4072
 20.5563  23.4961
 20.5792  23.5094
 20.6023  23.6251
 20.6253  23.584
 20.6483  23.6265
 20.6713  23.6978
 20.6943  23.8524
 20.7173  24.0123
 20.7403  24.1139
 20.7632  24.2309
 20.7863  24.1893
 20.8093  23.9544
 20.8323  23.6338
 20.8553  23.6012
 20.8783  23.6813
 20.9013  23.7067
 20.9243  23.7336
 20.9473  23.7642
 20.9703  23.7278
 20.9933  23.7142
 21.0163  23.7695
 21.0393  23.7314
 21.0622  23.6966
 21.0853  23.6996
 21.1083  23.6862
 21.1313  23.7509
 21.1543  23.66
 21.1773  23.6652
 21.2003  23.7054
 21.2233  23.7033
 21.2462  23.6659
 21.2693  23.7004
 21.2923  23.7409
 21.3152  23.7241
 21.3383  23.7168
 21.3613  23.76
 21.3843  23.8014
 21.4073  23.7123
 21.4303  23.7621
 21.4533  23.6986
 21.4763  23.7513
 21.4992  23.8093
 21.5223  23.7999
 21.5453  23.7721
 21.5683  23.8414
 21.5913  23.9238
 21.6142  23.8619
 21.6373  23.856
 21.6603  23.8777
 21.6833  23.8061
 21.7063  23.8345
 21.7293  23.8397
 21.7523  23.8414
 21.7753  23.9114
 21.7982  23.9812
 21.8213  24.0055
 21.8443  24.0119
 21.8672  24.0324
 21.8903  24.0835
 21.9133  24.1458
 21.9363  24.0417
 21.9593  24.0332
 21.9823  24.1308
 22.0053  24.1333
 22.0283  24.1305
 22.0512  24.0164
 22.0743  23.9988
 22.0973  24.0867
 22.1203  24.2394
 22.1433  24.3829
 22.1663  24.4835
 22.1893  24.4032
 22.2123  24.3751
 22.2353  24.2762
 22.2583  24.2349
 22.2813  24.2525
 22.3043  24.2751
 22.3273  24.2504
 22.3502  24.2759
 22.3733  24.3462
 22.3963  24.3346
 22.4193  24.3265
 22.4423  24.3756
 22.4653  24.3967
 22.4883  24.3173
 22.5113  24.402
 22.5343  24.5109
 22.5573  24.5404
 22.5803  24.549
 22.6033  24.6631
 22.6263  24.8227
 22.6493  24.7508
 22.6723  24.8478
 22.6953  25.0154
 22.7183  25.1022
 22.7413  25.0778
 22.7643  24.9992
 22.7873  24.9616
 22.8103  25.0526
 22.8333  25.1678
 22.8563  25.2741
 22.8793  25.3598
 22.9022  25.4521
 22.9253  25.5771
 22.9483  25.6997
 22.9713  25.8168
 22.9943  25.9719