File: test-data-xrd/xrd-map-34-ID-E/Data_0067.chi
F:\20151113_APS_34IDE\\Brian\Particle1\OCV\Data_0067.tif
2-Theta Angle (Degrees)
Intensity
       2000
 0.01725  0.0000000E+00
 0.04025  0.0000000E+00
 0.06325  0.0000000E+00
 0.08625  0.0000000E+00
 0.10925  0.0000000E+00
 0.13225  0.0000000E+00
 0.15525  0.0000000E+00
 0.17825  0.0000000E+00
 0.20125  0.0000000E+00
 0.22425  0.0000000E+00
 0.24725  0.0000000E+00
 0.27025  0.0000000E+00
 0.29325  0.0000000E+00
 0.31625  0.0000000E+00
 0.33925  0.0000000E+00
 0.36225  0.0000000E+00
 0.38525  0.0000000E+00
 0.40825  0.0000000E+00
 0.43125  0.0000000E+00
 0.45425  0.0000000E+00
 0.47725  0.0000000E+00
 0.50025  0.0000000E+00
 0.52325  0.0000000E+00
 0.54625  0.0000000E+00
 0.56925  0.0000000E+00
 0.59225  0.0000000E+00
 0.61525  0.0000000E+00
 0.63825  0.0000000E+00
 0.66125  0.0000000E+00
 0.68425  0.0000000E+00
 0.70725  0.0000000E+00
 0.73025  0.0000000E+00
 0.75325  0.0000000E+00
 0.77625  0.0000000E+00
 0.79925  0.0000000E+00
 0.82225  0.0000000E+00
 0.84525  0.0000000E+00
 0.86825  0.0000000E+00
 0.89125  0.0000000E+00
 0.91425  0.0000000E+00
 0.93725  0.0000000E+00
 0.96025  0.0000000E+00
 0.98325  0.0000000E+00
 1.00625  0.0000000E+00
 1.02925  0.0000000E+00
 1.05225  0.0000000E+00
 1.07525  0.0000000E+00
 1.09825  0.0000000E+00
 1.12125  0.0000000E+00
 1.14425  0.0000000E+00
 1.16725  0.0000000E+00
 1.19025  0.0000000E+00
 1.21325  0.0000000E+00
 1.23625  0.0000000E+00
 1.25925  0.0000000E+00
 1.28225  0.0000000E+00
 1.30525  0.0000000E+00
 1.32825  0.0000000E+00
 1.35125  0.0000000E+00
 1.37425  0.0000000E+00
 1.39725  0.0000000E+00
 1.42025  0.0000000E+00
 1.44325  0.0000000E+00
 1.46625  0.0000000E+00
 1.48925  0.0000000E+00
 1.51225  0.0000000E+00
 1.53525  0.0000000E+00
 1.55825  0.0000000E+00
 1.58125  0.0000000E+00
 1.60425  0.0000000E+00
 1.62725  0.0000000E+00
 1.65025  0.0000000E+00
 1.67325  0.0000000E+00
 1.69625  0.0000000E+00
 1.71925  0.0000000E+00
 1.74225  0.0000000E+00
 1.76525  0.0000000E+00
 1.78825  0.0000000E+00
 1.81125  0.0000000E+00
 1.83425  0.0000000E+00
 1.85725  0.0000000E+00
 1.88025  0.0000000E+00
 1.90325  0.0000000E+00
 1.92625  0.0000000E+00
 1.94925  0.0000000E+00
 1.97225  0.0000000E+00
 1.99525  0.0000000E+00
 2.01825  0.0000000E+00
 2.04125  0.0000000E+00
 2.06425  0.0000000E+00
 2.08725  0.0000000E+00
 2.11025  0.0000000E+00
 2.13325  0.0000000E+00
 2.15625  0.0000000E+00
 2.17925  0.0000000E+00
 2.20225  0.0000000E+00
 2.22525  0.0000000E+00
 2.24825  0.0000000E+00
 2.27125  0.0000000E+00
 2.29425  0.0000000E+00
 2.31725  0.0000000E+00
 2.34025  0.0000000E+00
 2.36325  0.0000000E+00
 2.38625  0.0000000E+00
 2.40925  0.0000000E+00
 2.43225  0.0000000E+00
 2.45525  0.0000000E+00
 2.47825  0.0000000E+00
 2.50125  0.0000000E+00
 2.52425  0.0000000E+00
 2.54725  0.0000000E+00
 2.57025  0.0000000E+00
 2.59325  0.0000000E+00
 2.61625  0.0000000E+00
 2.63925  0.0000000E+00
 2.66225  0.0000000E+00
 2.68525  0.0000000E+00
 2.70825  0.0000000E+00
 2.73125  0.0000000E+00
 2.75425  0.0000000E+00
 2.77725  0.0000000E+00
 2.80025  0.0000000E+00
 2.82325  34.5498
 2.84625  33.2692
 2.86925  34.1138
 2.89225  34.2749
 2.91525  34.5307
 2.93825  34.4707
 2.96125  34.5886
 2.98425  34.3495
 3.00725  35.3261
 3.03025  35.6965
 3.05325  35.4418
 3.07625  35.1658
 3.09925  34.7728
 3.12225  34.0728
 3.14525  34.6521
 3.16825  35.2839
 3.19125  35.0343
 3.21425  35.1759
 3.23725  34.9662
 3.26025  34.7446
 3.28325  35.1944
 3.30625  35.2498
 3.32925  34.7611
 3.35225  34.3878
 3.37525  34.0322
 3.39825  33.742
 3.42125  33.9176
 3.44425  34.1798
 3.46725  33.9779
 3.49025  33.8398
 3.51325  33.5629
 3.53625  33.4039
 3.55925  33.1274
 3.58225  33.0721
 3.60525  33.0232
 3.62825  32.9384
 3.65125  33.0453
 3.67425  32.8192
 3.69725  32.6962
 3.72025  32.5293
 3.74325  32.6076
 3.76625  32.8774
 3.78925  33.0128
 3.81225  32.7891
 3.83525  32.7424
 3.85825  32.4204
 3.88125  32.1332
 3.90425  31.8625
 3.92725  31.8796
 3.95025  32.0124
 3.97325  32.4525
 3.99625  32.8321
 4.01925  32.888
 4.04225  32.754
 4.06525  32.331
 4.08825  32.1918
 4.11125  32.5121
 4.13425  32.5426
 4.15725  32.5181
 4.18025  32.0011
 4.20325  31.5961
 4.22625  31.3456
 4.24925  31.6099
 4.27225  31.8335
 4.29525  32.0529
 4.31825  32.0096
 4.34125  31.9229
 4.36425  31.8101
 4.38725  32.1321
 4.41025  32.2446
 4.43325  32.1738
 4.45625  32.0867
 4.47925  32.2377
 4.50225  32.2305
 4.52525  32.0149
 4.54825  32.1577
 4.57125  32.4188
 4.59425  32.6529
 4.61725  32.6844
 4.64025  32.6615
 4.66325  32.7573
 4.68625  32.8442
 4.70925  32.8878
 4.73225  32.4975
 4.75525  32.2315
 4.77825  32.2518
 4.80125  32.4572
 4.82425  32.5474
 4.84725  32.5473
 4.87025  32.7121
 4.89325  32.8499
 4.91625  33.0954
 4.93925  33.2489
 4.96225  32.9539
 4.98525  32.8879
 5.00825  32.9342
 5.03125  32.8779
 5.05425  32.9911
 5.07725  32.9735
 5.10025  32.979
 5.12325  33.2359
 5.14625  33.5519
 5.16925  33.7085
 5.19225  33.9607
 5.21525  34.0464
 5.23825  34.0348
 5.26125  33.7746
 5.28425  33.5903
 5.30725  33.8082
 5.33025  34.0332
 5.35325  34.1788
 5.37625  34.1572
 5.39925  34.2878
 5.42225  34.3907
 5.44525  34.4163
 5.46825  34.7219
 5.49125  34.9345
 5.51425  35.0038
 5.53725  34.8971
 5.56025  34.8689
 5.58325  34.9243
 5.60625  34.9831
 5.62925  34.9105
 5.65225  34.7617
 5.67525  35.028
 5.69825  35.1827
 5.72125  35.3665
 5.74425  35.5872
 5.76725  35.6517
 5.79025  35.6752
 5.81325  35.6192
 5.83625  35.9019
 5.85925  36.0805
 5.88225  36.4711
 5.90525  37.4851
 5.92825  39.6208
 5.95125  46.9824
 5.97425  56.4936
 5.99725  59.5982
 6.02025  51.1939
 6.04325  42.4924
 6.06625  38.8965
 6.08925  37.2752
 6.11225  36.9923
 6.13525  36.8846
 6.15825  36.8011
 6.18125  36.9415
 6.20425  36.9455
 6.22725  36.8669
 6.25025  36.9126
 6.27325  37.0349
 6.29625  37.2365
 6.31925  37.2816
 6.34225  37.6028
 6.36525  37.775
 6.38825  37.8221
 6.41125  37.8418
 6.43425  37.8171
 6.45725  38.0055
 6.48025  38.1182
 6.50325  38.3735
 6.52625  38.6745
 6.54925  38.9415
 6.57225  39.0045
 6.59525  38.932
 6.61825  39.1646
 6.64125  39.5437
 6.66425  39.901
 6.68725  40.1752
 6.71025  40.2493
 6.73325  40.1233
 6.75625  40.2094
 6.77925  40.4704
 6.80225  40.4457
 6.82525  40.6526
 6.84825  40.9109
 6.87125  40.9808
 6.89425  41.1349
 6.91725  41.3182
 6.94025  41.3518
 6.96325  41.5308
 6.98625  41.6611
 7.00925  41.7877
 7.03225  42.035
 7.05525  42.0977
 7.07825  42.1597
 7.10125  42.319
 7.12425  42.5459
 7.14725  42.883
 7.17025  42.8506
 7.19325  42.8437
 7.21625  42.8792
 7.23925  43.1924
 7.26225  43.3537
 7.28525  43.2067
 7.30825  43.0326
 7.33125  43.1858
 7.35425  43.3217
 7.37725  43.5224
 7.40025  43.4617
 7.42325  43.6365
 7.44625  43.6977
 7.46925  43.7545
 7.49225  43.7094
 7.51525  43.8622
 7.53825  43.8435
 7.56125  43.8588
 7.58425  43.8702
 7.60725  43.8905
 7.63025  43.973
 7.65325  43.8089
 7.67625  43.7681
 7.69925  43.6846
 7.72225  43.5858
 7.74525  43.5732
 7.76825  43.7176
 7.79125  43.7
 7.81425  43.6196
 7.83725  43.7096
 7.86025  43.8053
 7.88325  43.6328
 7.90625  43.4308
 7.92925  43.3458
 7.95225  43.2915
 7.97525  43.1299
 7.99825  43.1462
 8.02125  43.024
 8.04425  42.9577
 8.06725  42.7316
 8.09025  42.4695
 8.11325  42.4129
 8.13625  42.0517
 8.15925  41.7986
 8.18225  41.761
 8.20525  41.6511
 8.22825  41.2441
 8.25125  41.0133
 8.27425  40.8274
 8.29725  40.5874
 8.32025  40.2973
 8.34325  39.8683
 8.36625  39.5011
 8.38925  39.2701
 8.41225  39.0964
 8.43525  38.624
 8.45825  38.1053
 8.48125  37.7433
 8.50425  37.5745
 8.52725  37.259
 8.55025  36.852
 8.57325  36.4277
 8.59625  36.1334
 8.61925  35.9022
 8.64225  35.5905
 8.66525  35.1667
 8.68825  34.9883
 8.71125  34.8611
 8.73425  34.3529
 8.75725  33.8527
 8.78025  33.5124
 8.80325  33.2002
 8.82625  32.8387
 8.84925  32.4451
 8.87225  32.0664
 8.89525  31.7332
 8.91825  31.5165
 8.94125  31.2555
 8.96425  30.9546
 8.98725  30.6203
 9.01025  30.427
 9.03325  30.2816
 9.05625  30.1661
 9.07925  29.9667
 9.10225  29.7073
 9.12525  29.6523
 9.14825  29.6004
 9.17125  28.869
 9.19425  28.5876
 9.21725  28.3307
 9.24025  28.1837
 9.26325  28.0034
 9.28625  27.7722
 9.30925  27.4688
 9.33225  27.1625
 9.35525  26.9241
 9.37825  26.8522
 9.40125  26.7892
 9.42425  26.6763
 9.44725  26.5806
 9.47025  26.4831
 9.49325  26.4063
 9.51625  26.2176
 9.53925  26.1466
 9.56225  25.9768
 9.58525  25.7384
 9.60825  25.7423
 9.63125  25.7453
 9.65425  25.5596
 9.67725  25.2864
 9.70025  25.2016
 9.72325  25.3091
 9.74625  25.2837
 9.76925  25.1163
 9.79225  24.9832
 9.81525  24.931
 9.83825  24.844
 9.86125  24.6695
 9.88425  24.5432
 9.90725  24.5265
 9.93025  24.5463
 9.95325  24.4779
 9.97625  24.4123
 9.99925  24.1815
 10.0222  24.0358
 10.0453  23.9956
 10.0683  24.0622
 10.0913  23.9529
 10.1143  23.8687
 10.1373  23.8348
 10.1603  23.827
 10.1832  23.7945
 10.2063  23.7539
 10.2293  23.6411
 10.2523  23.5466
 10.2752  23.4951
 10.2982  23.4853
 10.3213  23.4592
 10.3443  23.2725
 10.3673  23.1255
 10.3902  23.1799
 10.4133  23.251
 10.4363  23.1922
 10.4593  23.155
 10.4823  23.1782
 10.5053  23.1551
 10.5283  23.2025
 10.5512  23.1824
 10.5742  23.1371
 10.5973  22.9885
 10.6203  22.9634
 10.6433  22.9052
 10.6662  22.8472
 10.6893  22.766
 10.7123  22.842
 10.7353  22.8405
 10.7583  22.7894
 10.7813  22.7928
 10.8043  22.8985
 10.8272  22.8332
 10.8503  22.7559
 10.8733  22.7289
 10.8963  22.5516
 10.9192  22.5384
 10.9422  22.5876
 10.9653  22.5721
 10.9883  22.5829
 11.0113  22.5494
 11.0343  22.5675
 11.0573  22.4733
 11.0803  22.4996
 11.1033  22.4911
 11.1263  22.5329
 11.1493  22.6231
 11.1723  22.6884
 11.1953  22.7562
 11.2182  22.7295
 11.2413  22.5182
 11.2643  22.392
 11.2873  22.3644
 11.3102  22.4103
 11.3333  22.5016
 11.3563  22.5033
 11.3793  22.5494
 11.4023  22.5695
 11.4253  22.4982
 11.4483  22.5738
 11.4713  22.7326
 11.4942  22.836
 11.5173  23.2301
 11.5403  24.3715
 11.5633  27.6433
 11.5862  30.8848
 11.6093  30.8095
 11.6323  27.4574
 11.6553  24.274
 11.6783  23.1574
 11.7013  22.7956
 11.7243  22.5798
 11.7473  22.5077
 11.7703  22.429
 11.7933  22.4079
 11.8163  22.4781
 11.8393  22.4636
 11.8622  22.3997
 11.8853  22.4146
 11.9083  22.5319
 11.9313  22.8774
 11.9543  23.6404
 11.9773  24.1876
 12.0003  24.2772
 12.0233  23.6775
 12.0463  23.5185
 12.0693  23.8075
 12.0923  24.6558
 12.1153  24.967
 12.1382  24.5424
 12.1613  23.5325
 12.1843  22.8575
 12.2073  22.6794
 12.2302  22.5603
 12.2533  22.4924
 12.2763  22.439
 12.2993  22.4549
 12.3223  22.4267
 12.3453  22.3644
 12.3683  22.4105
 12.3913  22.4455
 12.4142  22.4567
 12.4373  22.4274
 12.4603  22.3919
 12.4833  22.4825
 12.5062  22.5194
 12.5292  22.6632
 12.5523  22.6749
 12.5753  22.6525
 12.5983  22.6797
 12.6212  22.7872
 12.6443  22.7369
 12.6673  22.6637
 12.6903  22.7204
 12.7133  22.8531
 12.7363  22.9093
 12.7593  22.9821
 12.7822  23.1005
 12.8052  23.1611
 12.8283  23.2403
 12.8513  23.4688
 12.8742  23.5164
 12.8972  23.5249
 12.9203  23.5901
 12.9433  23.6033
 12.9663  23.7739
 12.9893  23.9091
 13.0123  23.9625
 13.0353  24.1059
 13.0582  24.2228
 13.0813  24.4036
 13.1043  24.6437
 13.1273  24.8063
 13.1502  25.1169
 13.1732  25.3501
 13.1963  25.6383
 13.2193  25.8376
 13.2423  26.079
 13.2652  26.2705
 13.2883  26.4814
 13.3113  26.6787
 13.3343  27.1293
 13.3573  27.6633
 13.3803  27.9585
 13.4033  28.1152
 13.4262  28.3057
 13.4492  28.4819
 13.4723  28.7281
 13.4953  28.8693
 13.5183  29.1223
 13.5412  29.4546
 13.5643  29.6226
 13.5873  29.7047
 13.6103  29.6517
 13.6333  29.6305
 13.6563  29.6769
 13.6793  29.6558
 13.7022  29.6926
 13.7253  29.5787
 13.7483  29.4473
 13.7713  29.4191
 13.7942  29.3256
 13.8172  29.186
 13.8403  29.1891
 13.8633  29.538
 13.8863  30.6246
 13.9093  32.8852
 13.9323  36.2701
 13.9553  38.6085
 13.9783  37.0456
 14.0013  32.9513
 14.0243  29.8601
 14.0473  28.3585
 14.0703  27.8585
 14.0932  27.5699
 14.1163  27.3734
 14.1393  27.1885
 14.1623  27.0215
 14.1852  26.7632
 14.2083  26.6772
 14.2313  26.5589
 14.2543  26.3769
 14.2773  26.2432
 14.3003  26.122
 14.3233  26.0972
 14.3463  26.0078
 14.3692  25.9501
 14.3923  26.0134
 14.4153  25.894
 14.4383  25.8254
 14.4612  25.8204
 14.4843  25.775
 14.5073  25.6653
 14.5303  25.4569
 14.5533  25.4354
 14.5763  25.404
 14.5993  25.3554
 14.6223  25.2736
 14.6453  25.1734
 14.6683  25.1029
 14.6913  25.1248
 14.7143  25.1477
 14.7372  25.0181
 14.7603  24.9644
 14.7833  24.9803
 14.8063  24.9468
 14.8293  24.8597
 14.8523  24.8689
 14.8753  24.7762
 14.8983  24.9103
 14.9213  24.9694
 14.9443  24.7832
 14.9673  24.6661
 14.9903  24.7776
 15.0132  24.7901
 15.0363  24.7524
 15.0593  24.7551
 15.0823  24.7847
 15.1052  24.8662
 15.1283  25.2277
 15.1513  26.0109
 15.1743  26.9788
 15.1973  27.1284
 15.2203  26.5066
 15.2433  25.626
 15.2663  25.0022
 15.2892  24.6956
 15.3123  24.6571
 15.3353  24.6705
 15.3583  24.6423
 15.3812  24.5725
 15.4043  24.5242
 15.4273  24.536
 15.4503  24.5077
 15.4733  24.4442
 15.4963  24.5251
 15.5193  24.5602
 15.5423  24.5123
 15.5653  24.4919
 15.5883  24.5532
 15.6113  24.5074
 15.6343  24.5032
 15.6572  24.5919
 15.6803  24.5771
 15.7033  24.5701
 15.7263  24.5761
 15.7492  24.4844
 15.7723  24.5836
 15.7953  24.4833
 15.8183  24.3875
 15.8413  24.3254
 15.8643  24.4752
 15.8873  24.4549
 15.9103  24.469
 15.9332  24.5279
 15.9563  24.4319
 15.9793  24.4574
 16.0023  24.4948
 16.0253  24.5658
 16.0482  24.6496
 16.0713  24.7159
 16.0943  24.7415
 16.1172  24.8304
 16.1403  24.8616
 16.1633  25.0948
 16.1863  25.8284
 16.2093  27.2704
 16.2323  29.0911
 16.2553  29.565
 16.2783  28.0362
 16.3012  26.0353
 16.3243  25.0757
 16.3472  24.6848
 16.3703  24.5825
 16.3933  24.6707
 16.4163  24.6915
 16.4393  24.7117
 16.4623  24.7283
 16.4853  24.7201
 16.5083  24.701
 16.5312  24.6717
 16.5543  24.6386
 16.5773  24.5459
 16.6002  24.4587
 16.6233  24.4938
 16.6463  24.5491
 16.6693  24.4903
 16.6923  24.4006
 16.7153  24.428
 16.7383  24.4904
 16.7613  24.4781
 16.7843  24.45
 16.8073  24.3731
 16.8303  24.2858
 16.8533  24.3602
 16.8763  24.4347
 16.8992  24.3719
 16.9223  24.3039
 16.9453  24.3175
 16.9683  24.3071
 16.9913  24.2772
 17.0143  24.231
 17.0373  24.2328
 17.0603  24.1436
 17.0832  24.0999
 17.1063  24.0908
 17.1293  24.203
 17.1522  24.1962
 17.1753  24.2053
 17.1983  24.1514
 17.2213  24.1296
 17.2443  24.0256
 17.2673  24.013
 17.2903  24.0562
 17.3133  23.9842
 17.3362  24.0055
 17.3593  24.002
 17.3823  23.9508
 17.4053  23.9689
 17.4283  23.9497
 17.4513  23.9509
 17.4743  23.9079
 17.4973  23.7396
 17.5203  23.7227
 17.5433  23.8432
 17.5663  23.7973
 17.5893  23.7425
 17.6123  23.8615
 17.6352  23.9032
 17.6583  23.7716
 17.6813  23.7361
 17.7042  23.7051
 17.7273  23.6625
 17.7503  23.6805
 17.7733  23.7677
 17.7963  23.8087
 17.8193  23.6504
 17.8423  23.7483
 17.8653  23.8255
 17.8882  23.8735
 17.9113  23.8411
 17.9343  23.7822
 17.9573  23.7523
 17.9803  23.8969
 18.0033  24.1464
 18.0263  24.3797
 18.0493  24.9312
 18.0723  25.856
 18.0953  26.7282
 18.1183  26.6769
 18.1413  25.8169
 18.1643  24.9379
 18.1872  24.2299
 18.2103  23.9004
 18.2333  23.7606
 18.2563  23.6841
 18.2793  23.6537
 18.3023  23.489
 18.3253  23.4107
 18.3483  23.4843
 18.3712  23.4984
 18.3943  23.4837
 18.4173  23.634
 18.4402  23.5966
 18.4633  23.4936
 18.4863  23.4856
 18.5093  23.493
 18.5323  23.4073
 18.5553  23.3631
 18.5783  23.3806
 18.6013  23.4559
 18.6242  23.5296
 18.6473  23.5693
 18.6703  23.5654
 18.6933  23.5833
 18.7163  23.5123
 18.7392  23.4558
 18.7623  23.4224
 18.7853  23.399
 18.8083  23.3407
 18.8313  23.4153
 18.8543  23.4446
 18.8773  23.4392
 18.9003  23.515
 18.9232  23.5904
 18.9463  23.6064
 18.9693  23.5434
 18.9922  23.4035
 19.0153  23.5451
 19.0383  23.5628
 19.0613  23.5533
 19.0843  23.5593
 19.1073  23.4448
 19.1303  23.4334
 19.1533  23.5727
 19.1762  23.5473
 19.1993  23.5001
 19.2223  23.482
 19.2453  23.4897
 19.2683  23.5151
 19.2913  23.5161
 19.3143  23.4657
 19.3373  23.5521
 19.3603  23.4956
 19.3833  23.4602
 19.4062  23.4707
 19.4293  23.4584
 19.4523  23.4617
 19.4752  23.5591
 19.4983  23.5922
 19.5213  23.6297
 19.5443  23.7899
 19.5673  23.8441
 19.5903  23.8817
 19.6133  23.9986
 19.6363  24.5556
 19.6593  25.4384
 19.6823  26.3465
 19.7053  26.8794
 19.7283  26.7187
 19.7513  26.2529
 19.7742  25.9469
 19.7973  26.3072
 19.8203  26.9196
 19.8433  27.8539
 19.8663  27.7141
 19.8893  26.7984
 19.9123  25.6688
 19.9353  24.6982
 19.9582  24.1393
 19.9813  23.9433
 20.0043  23.9372
 20.0272  23.9699
 20.0503  23.9176
 20.0733  23.8557
 20.0963  23.8324
 20.1193  23.7686
 20.1423  23.6881
 20.1653  23.6495
 20.1883  23.6962
 20.2112  23.6946
 20.2343  23.7293
 20.2573  23.6258
 20.2803  23.6602
 20.3033  23.687
 20.3263  23.6854
 20.3493  23.7298
 20.3723  23.7757
 20.3953  23.8033
 20.4183  23.833
 20.4413  23.8349
 20.4643  23.8135
 20.4873  23.7345
 20.5102  23.7455
 20.5333  23.7219
 20.5563  23.8598
 20.5792  24.0052
 20.6023  24.0778
 20.6253  24.0148
 20.6483  24.0443
 20.6713  24.4108
 20.6943  25.156
 20.7173  26.4323
 20.7403  28.3876
 20.7632  30.0501
 20.7863  29.3731
 20.8093  26.8913
 20.8323  25.0177
 20.8553  24.4318
 20.8783  24.2733
 20.9013  24.0615
 20.9243  24.0498
 20.9473  24.0223
 20.9703  23.8045
 20.9933  23.6892
 21.0163  23.7739
 21.0393  23.8774
 21.0622  23.9228
 21.0853  23.9447
 21.1083  23.8193
 21.1313  23.8019
 21.1543  23.879
 21.1773  23.9523
 21.2003  23.9257
 21.2233  23.8137
 21.2462  23.8531
 21.2693  23.8488
 21.2923  23.8776
 21.3152  23.8684
 21.3383  23.8119
 21.3613  23.8794
 21.3843  23.916
 21.4073  23.9276
 21.4303  23.9917
 21.4533  23.976
 21.4763  23.9545
 21.4992  24.0165
 21.5223  24.0531
 21.5453  24.0637
 21.5683  23.9757
 21.5913  23.9921
 21.6142  23.9505
 21.6373  23.9414
 21.6603  23.9645
 21.6833  24.0468
 21.7063  24.0693
 21.7293  24.0646
 21.7523  24.1318
 21.7753  24.1947
 21.7982  24.3657
 21.8213  24.5009
 21.8443  24.2541
 21.8672  24.3313
 21.8903  24.3658
 21.9133  24.2468
 21.9363  24.2375
 21.9593  24.2309
 21.9823  24.2724
 22.0053  24.2909
 22.0283  24.3191
 22.0512  24.1892
 22.0743  24.2356
 22.0973  24.3322
 22.1203  25.2601
 22.1433  25.2547
 22.1663  24.8333
 22.1893  24.4957
 22.2123  24.4195
 22.2353  24.4618
 22.2583  24.5951
 22.2813  24.5651
 22.3043  24.5604
 22.3273  24.5778
 22.3502  24.5952
 22.3733  24.5345
 22.3963  24.5356
 22.4193  24.5597
 22.4423  24.6555
 22.4653  24.6197
 22.4883  24.4992
 22.5113  24.6247
 22.5343  24.6475
 22.5573  24.6404
 22.5803  24.7246
 22.6033  24.7554
 22.6263  24.8772
 22.6493  25.011
 22.6723  25.0763
 22.6953  25.2033
 22.7183  25.2305
 22.7413  25.248
 22.7643  25.2935
 22.7873  25.3008
 22.8103  25.3529
 22.8333  25.4071
 22.8563  25.4037
 22.8793  25.4863
 22.9022  25.6087
 22.9253  25.9301
 22.9483  25.9595
 22.9713  26.0378
 22.9943  26.2843