File: test-data-xrd/xrd-map-34-ID-E/Data_0121.chi
F:\20151113_APS_34IDE\\Brian\Particle1\OCV\Data_0121.tif
2-Theta Angle (Degrees)
Intensity
       2000
 0.01725  0.0000000E+00
 0.04025  0.0000000E+00
 0.06325  0.0000000E+00
 0.08625  0.0000000E+00
 0.10925  0.0000000E+00
 0.13225  0.0000000E+00
 0.15525  0.0000000E+00
 0.17825  0.0000000E+00
 0.20125  0.0000000E+00
 0.22425  0.0000000E+00
 0.24725  0.0000000E+00
 0.27025  0.0000000E+00
 0.29325  0.0000000E+00
 0.31625  0.0000000E+00
 0.33925  0.0000000E+00
 0.36225  0.0000000E+00
 0.38525  0.0000000E+00
 0.40825  0.0000000E+00
 0.43125  0.0000000E+00
 0.45425  0.0000000E+00
 0.47725  0.0000000E+00
 0.50025  0.0000000E+00
 0.52325  0.0000000E+00
 0.54625  0.0000000E+00
 0.56925  0.0000000E+00
 0.59225  0.0000000E+00
 0.61525  0.0000000E+00
 0.63825  0.0000000E+00
 0.66125  0.0000000E+00
 0.68425  0.0000000E+00
 0.70725  0.0000000E+00
 0.73025  0.0000000E+00
 0.75325  0.0000000E+00
 0.77625  0.0000000E+00
 0.79925  0.0000000E+00
 0.82225  0.0000000E+00
 0.84525  0.0000000E+00
 0.86825  0.0000000E+00
 0.89125  0.0000000E+00
 0.91425  0.0000000E+00
 0.93725  0.0000000E+00
 0.96025  0.0000000E+00
 0.98325  0.0000000E+00
 1.00625  0.0000000E+00
 1.02925  0.0000000E+00
 1.05225  0.0000000E+00
 1.07525  0.0000000E+00
 1.09825  0.0000000E+00
 1.12125  0.0000000E+00
 1.14425  0.0000000E+00
 1.16725  0.0000000E+00
 1.19025  0.0000000E+00
 1.21325  0.0000000E+00
 1.23625  0.0000000E+00
 1.25925  0.0000000E+00
 1.28225  0.0000000E+00
 1.30525  0.0000000E+00
 1.32825  0.0000000E+00
 1.35125  0.0000000E+00
 1.37425  0.0000000E+00
 1.39725  0.0000000E+00
 1.42025  0.0000000E+00
 1.44325  0.0000000E+00
 1.46625  0.0000000E+00
 1.48925  0.0000000E+00
 1.51225  0.0000000E+00
 1.53525  0.0000000E+00
 1.55825  0.0000000E+00
 1.58125  0.0000000E+00
 1.60425  0.0000000E+00
 1.62725  0.0000000E+00
 1.65025  0.0000000E+00
 1.67325  0.0000000E+00
 1.69625  0.0000000E+00
 1.71925  0.0000000E+00
 1.74225  0.0000000E+00
 1.76525  0.0000000E+00
 1.78825  0.0000000E+00
 1.81125  0.0000000E+00
 1.83425  0.0000000E+00
 1.85725  0.0000000E+00
 1.88025  0.0000000E+00
 1.90325  0.0000000E+00
 1.92625  0.0000000E+00
 1.94925  0.0000000E+00
 1.97225  0.0000000E+00
 1.99525  0.0000000E+00
 2.01825  0.0000000E+00
 2.04125  0.0000000E+00
 2.06425  0.0000000E+00
 2.08725  0.0000000E+00
 2.11025  0.0000000E+00
 2.13325  0.0000000E+00
 2.15625  0.0000000E+00
 2.17925  0.0000000E+00
 2.20225  0.0000000E+00
 2.22525  0.0000000E+00
 2.24825  0.0000000E+00
 2.27125  0.0000000E+00
 2.29425  0.0000000E+00
 2.31725  0.0000000E+00
 2.34025  0.0000000E+00
 2.36325  0.0000000E+00
 2.38625  0.0000000E+00
 2.40925  0.0000000E+00
 2.43225  0.0000000E+00
 2.45525  0.0000000E+00
 2.47825  0.0000000E+00
 2.50125  0.0000000E+00
 2.52425  0.0000000E+00
 2.54725  0.0000000E+00
 2.57025  0.0000000E+00
 2.59325  0.0000000E+00
 2.61625  0.0000000E+00
 2.63925  0.0000000E+00
 2.66225  0.0000000E+00
 2.68525  0.0000000E+00
 2.70825  0.0000000E+00
 2.73125  0.0000000E+00
 2.75425  0.0000000E+00
 2.77725  0.0000000E+00
 2.80025  0.0000000E+00
 2.82325  32.7486
 2.84625  32.5725
 2.86925  33.4569
 2.89225  34.5653
 2.91525  34.7014
 2.93825  34.8234
 2.96125  35.3451
 2.98425  35.4828
 3.00725  35.1548
 3.03025  34.9312
 3.05325  34.375
 3.07625  34.568
 3.09925  35.4208
 3.12225  35.4388
 3.14525  35.2498
 3.16825  35.1727
 3.19125  34.6781
 3.21425  34.2119
 3.23725  34.0874
 3.26025  34.0402
 3.28325  33.6751
 3.30625  33.5577
 3.32925  33.5821
 3.35225  33.9348
 3.37525  34.4318
 3.39825  34.204
 3.42125  34.1213
 3.44425  34.4137
 3.46725  34.686
 3.49025  34.652
 3.51325  34.2547
 3.53625  34.0126
 3.55925  33.8059
 3.58225  33.3455
 3.60525  33.109
 3.62825  33.125
 3.65125  33.0362
 3.67425  33.1441
 3.69725  33.0451
 3.72025  33.0762
 3.74325  32.9847
 3.76625  32.8484
 3.78925  32.583
 3.81225  32.5933
 3.83525  32.4586
 3.85825  32.404
 3.88125  32.4499
 3.90425  32.3992
 3.92725  32.3627
 3.95025  32.019
 3.97325  31.9518
 3.99625  32.2692
 4.01925  32.403
 4.04225  32.3718
 4.06525  32.4739
 4.08825  32.4607
 4.11125  32.4096
 4.13425  32.2941
 4.15725  32.1157
 4.18025  31.984
 4.20325  32.1853
 4.22625  32.036
 4.24925  31.7725
 4.27225  31.6452
 4.29525  31.6567
 4.31825  31.8629
 4.34125  31.9361
 4.36425  31.5294
 4.38725  31.4449
 4.41025  31.6199
 4.43325  32.0042
 4.45625  32.0155
 4.47925  32.2042
 4.50225  32.1054
 4.52525  32.1233
 4.54825  31.995
 4.57125  32.2203
 4.59425  32.4452
 4.61725  32.4231
 4.64025  32.3105
 4.66325  32.4217
 4.68625  32.4104
 4.70925  32.4199
 4.73225  32.4341
 4.75525  32.2641
 4.77825  32.111
 4.80125  32.0694
 4.82425  32.166
 4.84725  32.3826
 4.87025  32.3716
 4.89325  32.312
 4.91625  32.8947
 4.93925  33.213
 4.96225  32.9681
 4.98525  32.8358
 5.00825  32.8365
 5.03125  33.0003
 5.05425  32.895
 5.07725  32.8523
 5.10025  33.0796
 5.12325  33.2599
 5.14625  33.5112
 5.16925  33.2637
 5.19225  33.271
 5.21525  33.3815
 5.23825  33.7064
 5.26125  33.8434
 5.28425  33.8424
 5.30725  33.9123
 5.33025  33.8734
 5.35325  33.8015
 5.37625  33.7978
 5.39925  34.1165
 5.42225  34.2602
 5.44525  34.364
 5.46825  34.5268
 5.49125  34.5994
 5.51425  34.6017
 5.53725  34.7181
 5.56025  34.6189
 5.58325  34.5294
 5.60625  34.6549
 5.62925  34.7141
 5.65225  34.818
 5.67525  35.0723
 5.69825  35.2458
 5.72125  35.2217
 5.74425  35.2021
 5.76725  35.1476
 5.79025  35.1411
 5.81325  35.2904
 5.83625  35.4703
 5.85925  35.4279
 5.88225  35.5152
 5.90525  35.6479
 5.92825  36.0424
 5.95125  36.9381
 5.97425  37.674
 5.99725  37.6408
 6.02025  36.8202
 6.04325  36.2026
 6.06625  36.1242
 6.08925  36.1887
 6.11225  36.1634
 6.13525  36.064
 6.15825  36.1687
 6.18125  36.5547
 6.20425  36.698
 6.22725  36.8545
 6.25025  36.9049
 6.27325  36.9612
 6.29625  37.3681
 6.31925  37.7692
 6.34225  37.957
 6.36525  37.9192
 6.38825  37.9086
 6.41125  37.9736
 6.43425  37.8954
 6.45725  37.9066
 6.48025  38.0772
 6.50325  38.4444
 6.52625  38.8795
 6.54925  39.0624
 6.57225  39.2248
 6.59525  39.3354
 6.61825  39.6705
 6.64125  39.8517
 6.66425  39.9596
 6.68725  39.9574
 6.71025  39.8858
 6.73325  40.2025
 6.75625  40.4187
 6.77925  40.5336
 6.80225  40.6471
 6.82525  41.0109
 6.84825  41.2525
 6.87125  41.4021
 6.89425  41.4634
 6.91725  41.6914
 6.94025  41.7498
 6.96325  41.7927
 6.98625  41.9483
 7.00925  41.9748
 7.03225  42.0895
 7.05525  42.3181
 7.07825  42.3827
 7.10125  42.3209
 7.12425  42.5859
 7.14725  42.8099
 7.17025  42.9548
 7.19325  43.0576
 7.21625  43.2146
 7.23925  43.3523
 7.26225  43.3626
 7.28525  43.3174
 7.30825  43.3363
 7.33125  43.4849
 7.35425  43.7466
 7.37725  43.8744
 7.40025  43.8218
 7.42325  43.8412
 7.44625  43.9189
 7.46925  43.969
 7.49225  44.2492
 7.51525  44.372
 7.53825  44.1576
 7.56125  44.1228
 7.58425  44.159
 7.60725  44.2797
 7.63025  44.3032
 7.65325  44.2336
 7.67625  44.1918
 7.69925  44.1136
 7.72225  43.9851
 7.74525  43.8413
 7.76825  43.7244
 7.79125  44.0237
 7.81425  44.0668
 7.83725  44.0308
 7.86025  43.8143
 7.88325  43.6003
 7.90625  43.4624
 7.92925  43.3984
 7.95225  43.2658
 7.97525  43.2576
 7.99825  43.3136
 8.02125  43.159
 8.04425  43.1277
 8.06725  42.9349
 8.09025  42.746
 8.11325  42.5748
 8.13625  42.119
 8.15925  41.8671
 8.18225  41.77
 8.20525  41.4132
 8.22825  41.1002
 8.25125  40.8566
 8.27425  40.7189
 8.29725  40.4768
 8.32025  40.1635
 8.34325  39.8063
 8.36625  39.5069
 8.38925  39.3139
 8.41225  38.9679
 8.43525  38.5298
 8.45825  38.2914
 8.48125  37.9507
 8.50425  37.5976
 8.52725  37.4192
 8.55025  37.0974
 8.57325  36.6758
 8.59625  36.2864
 8.61925  35.9206
 8.64225  35.5588
 8.66525  35.1636
 8.68825  34.8894
 8.71125  34.673
 8.73425  34.3047
 8.75725  33.9155
 8.78025  33.4782
 8.80325  33.1402
 8.82625  32.8976
 8.84925  32.5416
 8.87225  32.2202
 8.89525  31.8916
 8.91825  31.4765
 8.94125  31.0174
 8.96425  30.7232
 8.98725  30.7005
 9.01025  30.4996
 9.03325  30.2103
 9.05625  29.925
 9.07925  29.639
 9.10225  29.4362
 9.12525  29.2508
 9.14825  29.0699
 9.17125  28.8065
 9.19425  28.6169
 9.21725  28.3016
 9.24025  27.9537
 9.26325  27.7712
 9.28625  27.5799
 9.30925  27.562
 9.33225  27.3997
 9.35525  27.207
 9.37825  27.096
 9.40125  26.9428
 9.42425  26.7616
 9.44725  26.5543
 9.47025  26.3864
 9.49325  26.2307
 9.51625  26.0891
 9.53925  25.8475
 9.56225  25.6201
 9.58525  25.5294
 9.60825  25.4681
 9.63125  25.4825
 9.65425  25.4233
 9.67725  25.2992
 9.70025  25.2206
 9.72325  25.2076
 9.74625  25.0083
 9.76925  24.7464
 9.79225  24.6773
 9.81525  24.6826
 9.83825  24.522
 9.86125  24.3768
 9.88425  24.4091
 9.90725  24.4241
 9.93025  24.4
 9.95325  24.2064
 9.97625  24.1324
 9.99925  24.0961
 10.0222  24.0437
 10.0453  24.0745
 10.0683  23.9909
 10.0913  23.7697
 10.1143  23.6804
 10.1373  23.5995
 10.1603  23.6479
 10.1832  23.6567
 10.2063  23.5918
 10.2293  23.4745
 10.2523  23.4083
 10.2752  23.4213
 10.2982  23.344
 10.3213  23.2649
 10.3443  23.2385
 10.3673  23.1588
 10.3902  23.2476
 10.4133  23.3576
 10.4363  23.1391
 10.4593  23.0706
 10.4823  23.1317
 10.5053  23.0855
 10.5283  22.8906
 10.5512  22.7189
 10.5742  22.7065
 10.5973  22.6574
 10.6203  22.7411
 10.6433  22.7897
 10.6662  22.829
 10.6893  22.766
 10.7123  22.7667
 10.7353  22.7294
 10.7583  22.5647
 10.7813  22.5944
 10.8043  22.6426
 10.8272  22.5941
 10.8503  22.4264
 10.8733  22.4468
 10.8963  22.3197
 10.9192  22.2943
 10.9422  22.3631
 10.9653  22.2804
 10.9883  22.3448
 11.0113  22.2918
 11.0343  22.2799
 11.0573  22.2548
 11.0803  22.3449
 11.1033  22.3971
 11.1263  22.364
 11.1493  22.2417
 11.1723  22.2091
 11.1953  22.1375
 11.2182  22.0001
 11.2413  21.961
 11.2643  22.0371
 11.2873  21.9633
 11.3102  21.9182
 11.3333  21.9953
 11.3563  22.0337
 11.3793  22.068
 11.4023  22.1712
 11.4253  22.2098
 11.4483  22.1069
 11.4713  22.157
 11.4942  22.2618
 11.5173  22.3042
 11.5403  22.4799
 11.5633  22.793
 11.5862  23.0648
 11.6093  22.943
 11.6323  22.6251
 11.6553  22.3094
 11.6783  22.0902
 11.7013  21.9859
 11.7243  22.0306
 11.7473  22.0562
 11.7703  21.9567
 11.7933  21.9809
 11.8163  22.0471
 11.8393  22.0183
 11.8622  22.0362
 11.8853  21.9647
 11.9083  21.9406
 11.9313  21.9954
 11.9543  22.1062
 11.9773  22.1338
 12.0003  22.1557
 12.0233  22.1293
 12.0463  22.1874
 12.0693  22.3163
 12.0923  22.4786
 12.1153  22.446
 12.1382  22.3162
 12.1613  22.1871
 12.1843  22.1904
 12.2073  22.1572
 12.2302  22.1341
 12.2533  22.1081
 12.2763  22.0579
 12.2993  22.1886
 12.3223  22.1925
 12.3453  22.2165
 12.3683  22.3108
 12.3913  22.385
 12.4142  22.3441
 12.4373  22.2463
 12.4603  22.3043
 12.4833  22.3743
 12.5062  22.3574
 12.5292  22.3692
 12.5523  22.406
 12.5753  22.4014
 12.5983  22.5113
 12.6212  22.5354
 12.6443  22.5077
 12.6673  22.4185
 12.6903  22.4339
 12.7133  22.5036
 12.7363  22.5301
 12.7593  22.6011
 12.7822  22.7333
 12.8052  22.7663
 12.8283  22.7666
 12.8513  22.9473
 12.8742  23.1406
 12.8972  23.2364
 12.9203  23.2326
 12.9433  23.2678
 12.9663  23.3781
 12.9893  23.4734
 13.0123  23.6443
 13.0353  23.8962
 13.0582  24.0558
 13.0813  24.0503
 13.1043  24.2685
 13.1273  24.5324
 13.1502  24.7246
 13.1732  24.9634
 13.1963  25.2094
 13.2193  25.517
 13.2423  25.9392
 13.2652  26.1589
 13.2883  26.2839
 13.3113  26.5393
 13.3343  26.986
 13.3573  27.4092
 13.3803  27.6418
 13.4033  27.8522
 13.4262  28.0747
 13.4492  28.3516
 13.4723  28.5768
 13.4953  28.7895
 13.5183  28.9946
 13.5412  29.1341
 13.5643  29.264
 13.5873  29.3323
 13.6103  29.3154
 13.6333  29.4283
 13.6563  29.5019
 13.6793  29.4403
 13.7022  29.1916
 13.7253  29.1069
 13.7483  29.0426
 13.7713  29.046
 13.7942  29.0376
 13.8172  29.0642
 13.8403  28.6902
 13.8633  28.5059
 13.8863  28.4657
 13.9093  28.5501
 13.9323  28.6639
 13.9553  28.5935
 13.9783  28.3671
 14.0013  27.9834
 14.0243  27.5936
 14.0473  27.2798
 14.0703  27.1581
 14.0932  27.0918
 14.1163  26.9688
 14.1393  26.8605
 14.1623  26.6791
 14.1852  26.5193
 14.2083  26.4743
 14.2313  26.2942
 14.2543  26.0712
 14.2773  25.9429
 14.3003  25.9142
 14.3233  25.7698
 14.3463  25.6577
 14.3692  25.6487
 14.3923  25.7948
 14.4153  25.6524
 14.4383  25.485
 14.4612  25.3292
 14.4843  25.354
 14.5073  25.5282
 14.5303  25.4623
 14.5533  25.3119
 14.5763  25.254
 14.5993  25.0612
 14.6223  25.0021
 14.6453  24.9998
 14.6683  24.9879
 14.6913  24.8789
 14.7143  24.7404
 14.7372  24.7402
 14.7603  24.7544
 14.7833  24.8187
 14.8063  24.6959
 14.8293  24.5771
 14.8523  24.5602
 14.8753  24.523
 14.8983  24.5758
 14.9213  24.6166
 14.9443  24.5261
 14.9673  24.411
 14.9903  24.3823
 15.0132  24.4775
 15.0363  24.4882
 15.0593  24.3685
 15.0823  24.3978
 15.1052  24.4
 15.1283  24.3605
 15.1513  24.4482
 15.1743  24.7247
 15.1973  24.8504
 15.2203  24.717
 15.2433  24.4396
 15.2663  24.1868
 15.2892  24.0748
 15.3123  24.1018
 15.3353  24.1323
 15.3583  24.1771
 15.3812  24.1413
 15.4043  24.2534
 15.4273  24.2647
 15.4503  24.2037
 15.4733  24.1639
 15.4963  24.1733
 15.5193  24.2004
 15.5423  24.0489
 15.5653  23.9443
 15.5883  23.9555
 15.6113  24.0231
 15.6343  24.074
 15.6572  24.1829
 15.6803  24.2524
 15.7033  24.2332
 15.7263  24.2612
 15.7492  24.215
 15.7723  24.1811
 15.7953  24.1586
 15.8183  24.2263
 15.8413  24.2004
 15.8643  24.1834
 15.8873  24.2486
 15.9103  24.2826
 15.9332  24.2134
 15.9563  24.1189
 15.9793  24.1712
 16.0023  24.2078
 16.0253  24.2115
 16.0482  24.3139
 16.0713  24.3517
 16.0943  24.3472
 16.1172  24.3368
 16.1403  24.4362
 16.1633  24.5206
 16.1863  24.5365
 16.2093  24.6397
 16.2323  24.729
 16.2553  24.8092
 16.2783  24.7464
 16.3012  24.6325
 16.3243  24.4972
 16.3472  24.3488
 16.3703  24.2165
 16.3933  24.2498
 16.4163  24.4347
 16.4393  24.3756
 16.4623  24.268
 16.4853  24.2187
 16.5083  24.1868
 16.5312  24.0453
 16.5543  24.0876
 16.5773  24.1565
 16.6002  24.2603
 16.6233  24.2659
 16.6463  24.1686
 16.6693  24.1546
 16.6923  24.1829
 16.7153  24.1425
 16.7383  24.1295
 16.7613  24.1431
 16.7843  24.0945
 16.8073  24.0245
 16.8303  23.9976
 16.8533  24.0697
 16.8763  24.072
 16.8992  24.0525
 16.9223  24.1034
 16.9453  24.0405
 16.9683  24.0041
 16.9913  24.0009
 17.0143  23.89
 17.0373  23.7934
 17.0603  23.7446
 17.0832  23.8277
 17.1063  23.8555
 17.1293  23.7759
 17.1522  23.7712
 17.1753  23.8524
 17.1983  23.9146
 17.2213  23.9138
 17.2443  23.8987
 17.2673  23.7983
 17.2903  23.769
 17.3133  23.7128
 17.3362  23.6488
 17.3593  23.5955
 17.3823  23.5806
 17.4053  23.6213
 17.4283  23.6246
 17.4513  23.7424
 17.4743  24.0328
 17.4973  24.0144
 17.5203  23.578
 17.5433  23.5715
 17.5663  23.6059
 17.5893  23.5531
 17.6123  23.5641
 17.6352  23.549
 17.6583  23.3877
 17.6813  23.3208
 17.7042  23.4208
 17.7273  23.3926
 17.7503  23.2489
 17.7733  23.2761
 17.7963  23.3619
 17.8193  23.3545
 17.8423  23.3611
 17.8653  23.3434
 17.8882  23.2684
 17.9113  23.3533
 17.9343  23.4135
 17.9573  23.3933
 17.9803  23.3221
 18.0033  23.376
 18.0263  23.4017
 18.0493  23.4256
 18.0723  23.4107
 18.0953  23.4853
 18.1183  23.4643
 18.1413  23.3465
 18.1643  23.2818
 18.1872  23.231
 18.2103  23.2915
 18.2333  23.2279
 18.2563  23.1999
 18.2793  23.202
 18.3023  23.2344
 18.3253  23.2866
 18.3483  23.2303
 18.3712  23.1409
 18.3943  23.0863
 18.4173  23.1814
 18.4402  23.1626
 18.4633  23.1868
 18.4863  23.178
 18.5093  23.1768
 18.5323  23.117
 18.5553  23.168
 18.5783  23.2007
 18.6013  23.3011
 18.6242  23.2232
 18.6473  23.1345
 18.6703  23.1391
 18.6933  23.2243
 18.7163  23.1905
 18.7392  23.0892
 18.7623  23.0618
 18.7853  23.1247
 18.8083  23.0997
 18.8313  23.0662
 18.8543  23.0912
 18.8773  23.0525
 18.9003  22.9897
 18.9232  23.1174
 18.9463  23.2551
 18.9693  23.1172
 18.9922  22.9738
 19.0153  23.0431
 19.0383  23.0352
 19.0613  23.0532
 19.0843  23.1295
 19.1073  23.0582
 19.1303  23.074
 19.1533  23.2006
 19.1762  23.2305
 19.1993  23.2078
 19.2223  23.1312
 19.2453  23.0947
 19.2683  23.1798
 19.2913  23.1532
 19.3143  23.1757
 19.3373  23.1226
 19.3603  23.1516
 19.3833  23.1993
 19.4062  23.1523
 19.4293  23.1446
 19.4523  23.109
 19.4752  23.1379
 19.4983  23.1339
 19.5213  23.1924
 19.5443  23.2629
 19.5673  23.1902
 19.5903  23.1734
 19.6133  23.2414
 19.6363  23.2784
 19.6593  23.328
 19.6823  23.4099
 19.7053  23.577
 19.7283  23.6209
 19.7513  23.5853
 19.7742  23.4968
 19.7973  23.4203
 19.8203  23.3211
 19.8433  23.3537
 19.8663  23.458
 19.8893  23.4427
 19.9123  23.4815
 19.9353  23.3614
 19.9582  23.2856
 19.9813  23.2661
 20.0043  23.2503
 20.0272  23.1433
 20.0503  23.2143
 20.0733  23.2624
 20.0963  23.2776
 20.1193  23.2624
 20.1423  23.2305
 20.1653  23.272
 20.1883  23.2843
 20.2112  23.2715
 20.2343  23.3602
 20.2573  23.4164
 20.2803  23.356
 20.3033  23.3305
 20.3263  23.3313
 20.3493  23.2873
 20.3723  23.2649
 20.3953  23.2587
 20.4183  23.2888
 20.4413  23.3544
 20.4643  23.3604
 20.4873  23.2774
 20.5102  23.2558
 20.5333  23.2529
 20.5563  23.3463
 20.5792  23.3741
 20.6023  23.4517
 20.6253  23.4075
 20.6483  23.6881
 20.6713  23.9408
 20.6943  23.9044
 20.7173  23.777
 20.7403  23.6397
 20.7632  23.6741
 20.7863  23.612
 20.8093  23.5647
 20.8323  23.4741
 20.8553  23.513
 20.8783  23.4997
 20.9013  23.526
 20.9243  23.5433
 20.9473  23.4882
 20.9703  23.4141
 20.9933  23.4192
 21.0163  23.4731
 21.0393  23.4473
 21.0622  23.3739
 21.0853  23.4914
 21.1083  23.5338
 21.1313  23.5632
 21.1543  23.4505
 21.1773  23.4514
 21.2003  23.5077
 21.2233  23.5338
 21.2462  23.5849
 21.2693  23.5607
 21.2923  23.5334
 21.3152  23.5195
 21.3383  23.564
 21.3613  23.5315
 21.3843  23.5847
 21.4073  23.5851
 21.4303  23.606
 21.4533  23.5859
 21.4763  23.5104
 21.4992  23.5452
 21.5223  23.6348
 21.5453  23.6766
 21.5683  23.682
 21.5913  23.7358
 21.6142  23.8188
 21.6373  23.813
 21.6603  23.7609
 21.6833  23.6653
 21.7063  23.6773
 21.7293  23.7499
 21.7523  23.8512
 21.7753  23.8016
 21.7982  23.719
 21.8213  23.8021
 21.8443  23.7952
 21.8672  23.7621
 21.8903  23.7876
 21.9133  23.9525
 21.9363  23.9912
 21.9593  23.9076
 21.9823  23.9841
 22.0053  24.1053
 22.0283  24.1271
 22.0512  24.0633
 22.0743  24.1073
 22.0973  23.9898
 22.1203  23.9225
 22.1433  23.9912
 22.1663  24.0456
 22.1893  24.0057
 22.2123  23.9501
 22.2353  24.0074
 22.2583  24.1131
 22.2813  24.1889
 22.3043  24.2438
 22.3273  24.1639
 22.3502  24.1641
 22.3733  24.1323
 22.3963  24.1154
 22.4193  24.0889
 22.4423  24.2099
 22.4653  24.311
 22.4883  24.2639
 22.5113  24.3781
 22.5343  24.4338
 22.5573  24.4145
 22.5803  24.4626
 22.6033  24.5178
 22.6263  24.6351
 22.6493  24.6985
 22.6723  24.7036
 22.6953  24.7764
 22.7183  24.869
 22.7413  25.0122
 22.7643  25.022
 22.7873  24.9562
 22.8103  24.9987
 22.8333  25.1369
 22.8563  25.1928
 22.8793  25.2125
 22.9022  25.3147
 22.9253  25.4323
 22.9483  25.5193
 22.9713  25.6388
 22.9943  25.8021