File: test-data-xrd/xrd-map-34-ID-E/Data_0075.chi
F:\20151113_APS_34IDE\\Brian\Particle1\OCV\Data_0075.tif
2-Theta Angle (Degrees)
Intensity
       2000
 0.01725  0.0000000E+00
 0.04025  0.0000000E+00
 0.06325  0.0000000E+00
 0.08625  0.0000000E+00
 0.10925  0.0000000E+00
 0.13225  0.0000000E+00
 0.15525  0.0000000E+00
 0.17825  0.0000000E+00
 0.20125  0.0000000E+00
 0.22425  0.0000000E+00
 0.24725  0.0000000E+00
 0.27025  0.0000000E+00
 0.29325  0.0000000E+00
 0.31625  0.0000000E+00
 0.33925  0.0000000E+00
 0.36225  0.0000000E+00
 0.38525  0.0000000E+00
 0.40825  0.0000000E+00
 0.43125  0.0000000E+00
 0.45425  0.0000000E+00
 0.47725  0.0000000E+00
 0.50025  0.0000000E+00
 0.52325  0.0000000E+00
 0.54625  0.0000000E+00
 0.56925  0.0000000E+00
 0.59225  0.0000000E+00
 0.61525  0.0000000E+00
 0.63825  0.0000000E+00
 0.66125  0.0000000E+00
 0.68425  0.0000000E+00
 0.70725  0.0000000E+00
 0.73025  0.0000000E+00
 0.75325  0.0000000E+00
 0.77625  0.0000000E+00
 0.79925  0.0000000E+00
 0.82225  0.0000000E+00
 0.84525  0.0000000E+00
 0.86825  0.0000000E+00
 0.89125  0.0000000E+00
 0.91425  0.0000000E+00
 0.93725  0.0000000E+00
 0.96025  0.0000000E+00
 0.98325  0.0000000E+00
 1.00625  0.0000000E+00
 1.02925  0.0000000E+00
 1.05225  0.0000000E+00
 1.07525  0.0000000E+00
 1.09825  0.0000000E+00
 1.12125  0.0000000E+00
 1.14425  0.0000000E+00
 1.16725  0.0000000E+00
 1.19025  0.0000000E+00
 1.21325  0.0000000E+00
 1.23625  0.0000000E+00
 1.25925  0.0000000E+00
 1.28225  0.0000000E+00
 1.30525  0.0000000E+00
 1.32825  0.0000000E+00
 1.35125  0.0000000E+00
 1.37425  0.0000000E+00
 1.39725  0.0000000E+00
 1.42025  0.0000000E+00
 1.44325  0.0000000E+00
 1.46625  0.0000000E+00
 1.48925  0.0000000E+00
 1.51225  0.0000000E+00
 1.53525  0.0000000E+00
 1.55825  0.0000000E+00
 1.58125  0.0000000E+00
 1.60425  0.0000000E+00
 1.62725  0.0000000E+00
 1.65025  0.0000000E+00
 1.67325  0.0000000E+00
 1.69625  0.0000000E+00
 1.71925  0.0000000E+00
 1.74225  0.0000000E+00
 1.76525  0.0000000E+00
 1.78825  0.0000000E+00
 1.81125  0.0000000E+00
 1.83425  0.0000000E+00
 1.85725  0.0000000E+00
 1.88025  0.0000000E+00
 1.90325  0.0000000E+00
 1.92625  0.0000000E+00
 1.94925  0.0000000E+00
 1.97225  0.0000000E+00
 1.99525  0.0000000E+00
 2.01825  0.0000000E+00
 2.04125  0.0000000E+00
 2.06425  0.0000000E+00
 2.08725  0.0000000E+00
 2.11025  0.0000000E+00
 2.13325  0.0000000E+00
 2.15625  0.0000000E+00
 2.17925  0.0000000E+00
 2.20225  0.0000000E+00
 2.22525  0.0000000E+00
 2.24825  0.0000000E+00
 2.27125  0.0000000E+00
 2.29425  0.0000000E+00
 2.31725  0.0000000E+00
 2.34025  0.0000000E+00
 2.36325  0.0000000E+00
 2.38625  0.0000000E+00
 2.40925  0.0000000E+00
 2.43225  0.0000000E+00
 2.45525  0.0000000E+00
 2.47825  0.0000000E+00
 2.50125  0.0000000E+00
 2.52425  0.0000000E+00
 2.54725  0.0000000E+00
 2.57025  0.0000000E+00
 2.59325  0.0000000E+00
 2.61625  0.0000000E+00
 2.63925  0.0000000E+00
 2.66225  0.0000000E+00
 2.68525  0.0000000E+00
 2.70825  0.0000000E+00
 2.73125  0.0000000E+00
 2.75425  0.0000000E+00
 2.77725  0.0000000E+00
 2.80025  0.0000000E+00
 2.82325  35.9255
 2.84625  34.7286
 2.86925  34.9119
 2.89225  36.3151
 2.91525  36.565
 2.93825  35.8479
 2.96125  35.9782
 2.98425  36.5873
 3.00725  37.16
 3.03025  37.423
 3.05325  36.9496
 3.07625  36.6185
 3.09925  36.9068
 3.12225  35.8901
 3.14525  35.2451
 3.16825  35.0423
 3.19125  35.3254
 3.21425  35.5956
 3.23725  35.4634
 3.26025  34.9132
 3.28325  34.4624
 3.30625  34.7189
 3.32925  34.7504
 3.35225  34.6523
 3.37525  34.721
 3.39825  34.7556
 3.42125  34.6254
 3.44425  35.1271
 3.46725  35.2464
 3.49025  35.2631
 3.51325  34.6405
 3.53625  34.4718
 3.55925  34.4683
 3.58225  34.5363
 3.60525  34.1378
 3.62825  33.8447
 3.65125  33.689
 3.67425  33.4986
 3.69725  33.1809
 3.72025  33.026
 3.74325  33.2003
 3.76625  33.3214
 3.78925  33.0611
 3.81225  33.363
 3.83525  35.3325
 3.85825  35.0332
 3.88125  33.1003
 3.90425  32.5234
 3.92725  32.3782
 3.95025  32.5621
 3.97325  32.8441
 3.99625  33.1014
 4.01925  33.1138
 4.04225  32.8141
 4.06525  32.5846
 4.08825  32.3763
 4.11125  32.6033
 4.13425  32.6385
 4.15725  32.6324
 4.18025  32.7536
 4.20325  32.8525
 4.22625  32.818
 4.24925  32.666
 4.27225  32.4473
 4.29525  32.3813
 4.31825  32.4135
 4.34125  32.4335
 4.36425  32.3304
 4.38725  32.0968
 4.41025  32.1231
 4.43325  32.44
 4.45625  32.3633
 4.47925  32.4659
 4.50225  32.9607
 4.52525  33.2877
 4.54825  32.9602
 4.57125  32.652
 4.59425  32.6497
 4.61725  32.9139
 4.64025  33.1994
 4.66325  33.2697
 4.68625  32.9409
 4.70925  32.7989
 4.73225  32.8627
 4.75525  32.8367
 4.77825  32.9717
 4.80125  33.0625
 4.82425  32.6214
 4.84725  32.7449
 4.87025  32.683
 4.89325  32.604
 4.91625  32.736
 4.93925  32.9243
 4.96225  32.9676
 4.98525  32.9295
 5.00825  33.0265
 5.03125  33.1434
 5.05425  33.3106
 5.07725  33.3942
 5.10025  33.5032
 5.12325  33.5707
 5.14625  33.4211
 5.16925  33.454
 5.19225  33.5357
 5.21525  33.7696
 5.23825  34.004
 5.26125  33.9485
 5.28425  34.1083
 5.30725  34.2709
 5.33025  34.4681
 5.35325  34.5413
 5.37625  34.6463
 5.39925  34.6982
 5.42225  34.5549
 5.44525  34.4425
 5.46825  34.4569
 5.49125  34.6213
 5.51425  35.1231
 5.53725  35.122
 5.56025  34.7765
 5.58325  34.7423
 5.60625  34.9563
 5.62925  34.9829
 5.65225  34.9571
 5.67525  35.1447
 5.69825  35.3359
 5.72125  35.3731
 5.74425  35.6205
 5.76725  35.8362
 5.79025  36.0975
 5.81325  36.1594
 5.83625  36.4229
 5.85925  36.7815
 5.88225  37.3073
 5.90525  38.1556
 5.92825  40.1895
 5.95125  47.5884
 5.97425  56.663
 5.99725  57.2482
 6.02025  49.2812
 6.04325  42.1406
 6.06625  38.1755
 6.08925  37.4759
 6.11225  37.1588
 6.13525  36.9278
 6.15825  36.8384
 6.18125  37.143
 6.20425  37.3758
 6.22725  37.3828
 6.25025  37.3248
 6.27325  37.5247
 6.29625  37.6728
 6.31925  37.8407
 6.34225  38.0059
 6.36525  38.217
 6.38825  38.4507
 6.41125  38.4943
 6.43425  38.3348
 6.45725  38.4726
 6.48025  38.8201
 6.50325  39.0675
 6.52625  39.2943
 6.54925  39.2869
 6.57225  39.4521
 6.59525  39.7132
 6.61825  39.8393
 6.64125  39.9543
 6.66425  40.2368
 6.68725  40.4051
 6.71025  40.4912
 6.73325  40.7762
 6.75625  40.8664
 6.77925  40.9784
 6.80225  41.2177
 6.82525  41.3844
 6.84825  41.4461
 6.87125  41.4168
 6.89425  41.5687
 6.91725  41.8819
 6.94025  42.0006
 6.96325  42.163
 6.98625  42.3255
 7.00925  42.2472
 7.03225  42.2239
 7.05525  42.3018
 7.07825  42.4298
 7.10125  42.672
 7.12425  43.063
 7.14725  43.1901
 7.17025  43.3368
 7.19325  43.3424
 7.21625  43.3917
 7.23925  43.7385
 7.26225  44.0014
 7.28525  43.9388
 7.30825  43.7433
 7.33125  43.7823
 7.35425  43.8917
 7.37725  43.9205
 7.40025  43.8835
 7.42325  43.8657
 7.44625  44.0977
 7.46925  44.2733
 7.49225  44.2871
 7.51525  44.3038
 7.53825  44.2351
 7.56125  44.3593
 7.58425  44.3636
 7.60725  44.4178
 7.63025  44.3478
 7.65325  44.375
 7.67625  44.3825
 7.69925  44.5205
 7.72225  44.6416
 7.74525  44.4274
 7.76825  44.2088
 7.79125  44.1341
 7.81425  44.1583
 7.83725  44.172
 7.86025  44.0715
 7.88325  43.9974
 7.90625  43.8732
 7.92925  43.7078
 7.95225  43.5927
 7.97525  43.4906
 7.99825  43.5388
 8.02125  43.3622
 8.04425  43.289
 8.06725  43.2171
 8.09025  43.0979
 8.11325  42.8038
 8.13625  42.5713
 8.15925  42.4577
 8.18225  42.261
 8.20525  42.0797
 8.22825  41.7017
 8.25125  41.4564
 8.27425  41.1892
 8.29725  41.072
 8.32025  40.8282
 8.34325  40.4548
 8.36625  40.0781
 8.38925  39.6704
 8.41225  39.2833
 8.43525  39.0353
 8.45825  38.7388
 8.48125  38.4682
 8.50425  37.856
 8.52725  37.6235
 8.55025  37.3027
 8.57325  36.8501
 8.59625  36.4332
 8.61925  36.2025
 8.64225  35.955
 8.66525  35.53
 8.68825  35.429
 8.71125  36.0374
 8.73425  36.4574
 8.75725  35.4094
 8.78025  34.1753
 8.80325  33.4624
 8.82625  33.0621
 8.84925  32.707
 8.87225  32.7668
 8.89525  32.6692
 8.91825  32.2555
 8.94125  31.6204
 8.96425  31.3066
 8.98725  30.9755
 9.01025  30.5813
 9.03325  30.2717
 9.05625  30.0057
 9.07925  29.7566
 9.10225  29.4521
 9.12525  29.3566
 9.14825  29.3583
 9.17125  29.093
 9.19425  28.7195
 9.21725  28.4342
 9.24025  28.0654
 9.26325  27.8942
 9.28625  27.754
 9.30925  27.5415
 9.33225  27.2617
 9.35525  27.018
 9.37825  26.919
 9.40125  26.8638
 9.42425  26.8217
 9.44725  26.6872
 9.47025  26.5375
 9.49325  26.4531
 9.51625  26.287
 9.53925  26.1136
 9.56225  25.9901
 9.58525  25.8157
 9.60825  25.7092
 9.63125  25.6881
 9.65425  25.5192
 9.67725  25.2958
 9.70025  25.2348
 9.72325  25.2385
 9.74625  25.139
 9.76925  24.9966
 9.79225  24.9542
 9.81525  24.7894
 9.83825  24.5728
 9.86125  24.5765
 9.88425  24.6824
 9.90725  24.6501
 9.93025  24.5121
 9.95325  24.4257
 9.97625  24.4608
 9.99925  24.363
 10.0222  24.2416
 10.0453  24.1833
 10.0683  23.9979
 10.0913  23.8319
 10.1143  23.6864
 10.1373  23.7452
 10.1603  23.856
 10.1832  23.793
 10.2063  23.6845
 10.2293  23.7143
 10.2523  23.6217
 10.2752  23.422
 10.2982  23.4209
 10.3213  23.4019
 10.3443  23.3812
 10.3673  23.198
 10.3902  23.2329
 10.4133  23.3939
 10.4363  23.3746
 10.4593  23.451
 10.4823  23.3966
 10.5053  23.2022
 10.5283  23.0698
 10.5512  23.0196
 10.5742  22.977
 10.5973  22.8956
 10.6203  22.904
 10.6433  22.9905
 10.6662  23.0421
 10.6893  22.9584
 10.7123  22.9227
 10.7353  22.8512
 10.7583  22.8568
 10.7813  22.8885
 10.8043  22.7795
 10.8272  22.6487
 10.8503  22.6668
 10.8733  22.729
 10.8963  22.7078
 10.9192  22.7586
 10.9422  22.71
 10.9653  22.5712
 10.9883  22.5437
 11.0113  22.559
 11.0343  22.5977
 11.0573  22.5736
 11.0803  22.531
 11.1033  22.4826
 11.1263  22.4886
 11.1493  22.5594
 11.1723  22.6044
 11.1953  22.3539
 11.2182  22.3317
 11.2413  22.3609
 11.2643  22.4733
 11.2873  22.4608
 11.3102  22.4994
 11.3333  22.4649
 11.3563  22.5252
 11.3793  22.6117
 11.4023  22.7659
 11.4253  22.8128
 11.4483  22.8624
 11.4713  22.8888
 11.4942  23.0516
 11.5173  23.3445
 11.5403  24.4744
 11.5633  27.2479
 11.5862  30.0111
 11.6093  30.2285
 11.6323  27.7364
 11.6553  24.7539
 11.6783  23.6222
 11.7013  23.0064
 11.7243  22.7
 11.7473  22.6615
 11.7703  22.6268
 11.7933  22.5659
 11.8163  22.5746
 11.8393  22.4471
 11.8622  22.3826
 11.8853  22.3576
 11.9083  22.4928
 11.9313  22.6865
 11.9543  23.009
 11.9773  23.3884
 12.0003  23.4917
 12.0233  23.2562
 12.0463  23.2798
 12.0693  23.4946
 12.0923  23.9703
 12.1153  24.1679
 12.1382  23.7885
 12.1613  23.2221
 12.1843  22.9041
 12.2073  22.712
 12.2302  22.6007
 12.2533  22.5454
 12.2763  22.5257
 12.2993  22.5616
 12.3223  22.5727
 12.3453  22.4948
 12.3683  22.5267
 12.3913  22.6023
 12.4142  22.6559
 12.4373  22.6773
 12.4603  22.6717
 12.4833  22.7533
 12.5062  22.6833
 12.5292  22.6492
 12.5523  22.609
 12.5753  22.6474
 12.5983  22.6689
 12.6212  22.7477
 12.6443  22.737
 12.6673  22.6817
 12.6903  22.799
 12.7133  22.8184
 12.7363  22.8089
 12.7593  22.9113
 12.7822  22.9721
 12.8052  22.9971
 12.8283  23.0231
 12.8513  23.0785
 12.8742  23.1955
 12.8972  23.3945
 12.9203  23.6006
 12.9433  23.7697
 12.9663  23.8293
 12.9893  23.9522
 13.0123  24.1002
 13.0353  24.2734
 13.0582  24.381
 13.0813  24.3401
 13.1043  24.4799
 13.1273  24.7561
 13.1502  25.0831
 13.1732  25.3659
 13.1963  25.5351
 13.2193  25.8474
 13.2423  26.197
 13.2652  26.5177
 13.2883  26.8412
 13.3113  27.0572
 13.3343  27.3638
 13.3573  27.6642
 13.3803  27.8906
 13.4033  28.2232
 13.4262  28.4672
 13.4492  28.6709
 13.4723  28.9315
 13.4953  29.2717
 13.5183  29.5324
 13.5412  29.7447
 13.5643  29.8385
 13.5873  29.8306
 13.6103  29.8664
 13.6333  29.8457
 13.6563  29.6527
 13.6793  29.6497
 13.7022  29.5971
 13.7253  29.4415
 13.7483  29.346
 13.7713  29.1656
 13.7942  29.0571
 13.8172  29.0733
 13.8403  29.1649
 13.8633  29.365
 13.8863  29.7695
 13.9093  30.8466
 13.9323  32.3094
 13.9553  33.1408
 13.9783  32.5099
 14.0013  30.6414
 14.0243  28.9073
 14.0473  27.9845
 14.0703  27.6905
 14.0932  27.5263
 14.1163  27.3619
 14.1393  27.2791
 14.1623  27.1835
 14.1852  26.9101
 14.2083  26.7879
 14.2313  26.6539
 14.2543  26.485
 14.2773  26.3559
 14.3003  26.2481
 14.3233  26.0304
 14.3463  26.0028
 14.3692  25.9552
 14.3923  25.882
 14.4153  25.7662
 14.4383  25.685
 14.4612  25.6145
 14.4843  25.6169
 14.5073  25.6645
 14.5303  25.5196
 14.5533  25.6688
 14.5763  25.5886
 14.5993  25.3855
 14.6223  25.4029
 14.6453  25.4598
 14.6683  25.4069
 14.6913  25.32
 14.7143  25.2272
 14.7372  25.1135
 14.7603  25.0449
 14.7833  24.9828
 14.8063  24.9482
 14.8293  24.8929
 14.8523  24.8791
 14.8753  24.862
 14.8983  24.9339
 14.9213  24.9979
 14.9443  24.8713
 14.9673  24.7184
 14.9903  24.7291
 15.0132  24.7706
 15.0363  24.8411
 15.0593  24.8597
 15.0823  24.8567
 15.1052  24.8627
 15.1283  25.0376
 15.1513  25.766
 15.1743  27.2774
 15.1973  28.0958
 15.2203  27.6154
 15.2433  26.2284
 15.2663  25.1766
 15.2892  24.8287
 15.3123  24.7409
 15.3353  24.6293
 15.3583  24.5689
 15.3812  24.554
 15.4043  24.4926
 15.4273  24.5073
 15.4503  24.6396
 15.4733  24.5815
 15.4963  24.5044
 15.5193  24.3945
 15.5423  24.3874
 15.5653  24.4093
 15.5883  24.3748
 15.6113  24.3863
 15.6343  24.3879
 15.6572  24.4395
 15.6803  24.4643
 15.7033  24.5027
 15.7263  24.5362
 15.7492  24.4951
 15.7723  24.5615
 15.7953  24.6336
 15.8183  24.7176
 15.8413  24.6137
 15.8643  24.5594
 15.8873  24.5337
 15.9103  24.5499
 15.9332  24.5146
 15.9563  24.4488
 15.9793  24.4281
 16.0023  24.5789
 16.0253  24.6776
 16.0482  24.6792
 16.0713  24.6567
 16.0943  24.6264
 16.1172  24.6796
 16.1403  24.7017
 16.1633  24.7536
 16.1863  24.8933
 16.2093  25.0839
 16.2323  25.1586
 16.2553  25.2451
 16.2783  25.2613
 16.3012  25.0683
 16.3243  24.9454
 16.3472  24.7791
 16.3703  24.6745
 16.3933  24.523
 16.4163  24.5952
 16.4393  24.6311
 16.4623  24.6466
 16.4853  24.5551
 16.5083  24.6125
 16.5312  24.6355
 16.5543  24.6359
 16.5773  24.4962
 16.6002  24.616
 16.6233  24.643
 16.6463  24.5827
 16.6693  24.6083
 16.6923  24.5539
 16.7153  24.4953
 16.7383  24.5067
 16.7613  24.5014
 16.7843  24.4343
 16.8073  24.3436
 16.8303  24.3257
 16.8533  24.3302
 16.8763  24.412
 16.8992  24.4051
 16.9223  24.4665
 16.9453  24.3955
 16.9683  24.2942
 16.9913  24.3092
 17.0143  24.3118
 17.0373  24.3233
 17.0603  24.1797
 17.0832  24.0972
 17.1063  24.0944
 17.1293  24.1646
 17.1522  24.1906
 17.1753  24.0978
 17.1983  24.108
 17.2213  24.0841
 17.2443  24.1336
 17.2673  24.1955
 17.2903  24.1771
 17.3133  24.1097
 17.3362  24.0085
 17.3593  23.9696
 17.3823  23.9814
 17.4053  23.9772
 17.4283  24.0121
 17.4513  24.0675
 17.4743  23.9896
 17.4973  23.9044
 17.5203  23.804
 17.5433  23.808
 17.5663  23.8103
 17.5893  23.8185
 17.6123  23.8365
 17.6352  23.8582
 17.6583  23.7163
 17.6813  23.7213
 17.7042  23.7951
 17.7273  23.7937
 17.7503  23.757
 17.7733  23.7352
 17.7963  23.737
 17.8193  23.7677
 17.8423  23.7612
 17.8653  23.7603
 17.8882  23.7757
 17.9113  23.8005
 17.9343  23.8649
 17.9573  23.8785
 17.9803  24.0297
 18.0033  24.2361
 18.0263  24.5252
 18.0493  24.9351
 18.0723  25.3084
 18.0953  25.5593
 18.1183  25.5873
 18.1413  25.3195
 18.1643  24.8503
 18.1872  24.3738
 18.2103  23.9785
 18.2333  23.8429
 18.2563  23.7573
 18.2793  23.5947
 18.3023  23.5389
 18.3253  23.5223
 18.3483  23.634
 18.3712  23.6727
 18.3943  23.6258
 18.4173  23.6638
 18.4402  23.6202
 18.4633  23.5891
 18.4863  23.4627
 18.5093  23.4474
 18.5323  23.5465
 18.5553  23.5562
 18.5783  23.5585
 18.6013  23.5813
 18.6242  23.4771
 18.6473  23.4807
 18.6703  23.4042
 18.6933  23.4604
 18.7163  23.3645
 18.7392  23.3076
 18.7623  23.3039
 18.7853  23.3317
 18.8083  23.4544
 18.8313  23.5184
 18.8543  23.438
 18.8773  23.3694
 18.9003  23.4329
 18.9232  23.5029
 18.9463  23.5069
 18.9693  23.5516
 18.9922  23.5134
 19.0153  23.5329
 19.0383  23.5661
 19.0613  23.5362
 19.0843  23.4866
 19.1073  23.4532
 19.1303  23.4463
 19.1533  23.3996
 19.1762  23.4083
 19.1993  23.4459
 19.2223  23.5007
 19.2453  23.4471
 19.2683  23.4974
 19.2913  23.4473
 19.3143  23.4672
 19.3373  23.4456
 19.3603  23.4112
 19.3833  23.4068
 19.4062  23.4519
 19.4293  23.5104
 19.4523  23.5023
 19.4752  23.5987
 19.4983  23.6677
 19.5213  23.73
 19.5443  23.7113
 19.5673  23.7289
 19.5903  23.79
 19.6133  23.8548
 19.6363  24.1834
 19.6593  24.7753
 19.6823  25.6544
 19.7053  26.2669
 19.7283  26.7137
 19.7513  26.8062
 19.7742  26.1822
 19.7973  25.7764
 19.8203  26.5628
 19.8433  28.1159
 19.8663  28.322
 19.8893  27.0669
 19.9123  25.5725
 19.9353  24.5282
 19.9582  24.1222
 19.9813  23.9512
 20.0043  23.8789
 20.0272  23.8192
 20.0503  23.8271
 20.0733  23.7986
 20.0963  23.8286
 20.1193  23.7622
 20.1423  23.663
 20.1653  23.6592
 20.1883  23.6663
 20.2112  23.6966
 20.2343  23.787
 20.2573  23.7409
 20.2803  23.7698
 20.3033  23.6929
 20.3263  23.6833
 20.3493  23.6553
 20.3723  23.5882
 20.3953  23.5403
 20.4183  23.586
 20.4413  23.7003
 20.4643  23.668
 20.4873  23.6666
 20.5102  23.679
 20.5333  23.643
 20.5563  23.8039
 20.5792  23.8033
 20.6023  23.8562
 20.6253  24.0289
 20.6483  24.0516
 20.6713  24.2112
 20.6943  24.6327
 20.7173  25.4214
 20.7403  26.3657
 20.7632  27.2276
 20.7863  27.2276
 20.8093  26.1887
 20.8323  24.8771
 20.8553  24.2549
 20.8783  24.0579
 20.9013  23.9445
 20.9243  23.9414
 20.9473  24.0021
 20.9703  24.0048
 20.9933  23.9842
 21.0163  23.8955
 21.0393  23.9373
 21.0622  23.9247
 21.0853  23.9466
 21.1083  23.8373
 21.1313  23.8511
 21.1543  23.8005
 21.1773  23.9228
 21.2003  23.9139
 21.2233  23.7909
 21.2462  23.8322
 21.2693  23.9181
 21.2923  23.9496
 21.3152  23.923
 21.3383  23.8722
 21.3613  23.914
 21.3843  23.9163
 21.4073  23.885
 21.4303  23.8878
 21.4533  23.917
 21.4763  23.8726
 21.4992  23.9675
 21.5223  23.9817
 21.5453  23.9907
 21.5683  24.0159
 21.5913  24.0004
 21.6142  24.0457
 21.6373  24.0984
 21.6603  24.1433
 21.6833  24.126
 21.7063  23.9979
 21.7293  23.9828
 21.7523  23.9313
 21.7753  23.9312
 21.7982  23.9905
 21.8213  24.0368
 21.8443  24.0416
 21.8672  24.0644
 21.8903  24.1576
 21.9133  24.1998
 21.9363  24.1782
 21.9593  24.1384
 21.9823  24.1809
 22.0053  24.2085
 22.0283  24.291
 22.0512  24.2385
 22.0743  24.2229
 22.0973  24.2214
 22.1203  24.3228
 22.1433  24.3615
 22.1663  24.3377
 22.1893  24.2218
 22.2123  24.1758
 22.2353  24.2039
 22.2583  24.2982
 22.2813  24.3823
 22.3043  24.4568
 22.3273  24.4007
 22.3502  24.4755
 22.3733  24.5404
 22.3963  24.5201
 22.4193  24.5162
 22.4423  24.6016
 22.4653  24.6839
 22.4883  24.5911
 22.5113  24.5921
 22.5343  24.718
 22.5573  24.7708
 22.5803  24.7702
 22.6033  24.7577
 22.6263  24.8748
 22.6493  24.8614
 22.6723  24.8887
 22.6953  25.0071
 22.7183  25.0825
 22.7413  25.1625
 22.7643  25.1904
 22.7873  25.1622
 22.8103  25.3229
 22.8333  25.459
 22.8563  25.5575
 22.8793  25.5974
 22.9022  25.6748
 22.9253  25.8657
 22.9483  25.9087
 22.9713  26.0902
 22.9943  26.3637