File: test-data-xrd/xrd-map-34-ID-E/Data_0071.chi
F:\20151113_APS_34IDE\\Brian\Particle1\OCV\Data_0071.tif
2-Theta Angle (Degrees)
Intensity
       2000
 0.01725  0.0000000E+00
 0.04025  0.0000000E+00
 0.06325  0.0000000E+00
 0.08625  0.0000000E+00
 0.10925  0.0000000E+00
 0.13225  0.0000000E+00
 0.15525  0.0000000E+00
 0.17825  0.0000000E+00
 0.20125  0.0000000E+00
 0.22425  0.0000000E+00
 0.24725  0.0000000E+00
 0.27025  0.0000000E+00
 0.29325  0.0000000E+00
 0.31625  0.0000000E+00
 0.33925  0.0000000E+00
 0.36225  0.0000000E+00
 0.38525  0.0000000E+00
 0.40825  0.0000000E+00
 0.43125  0.0000000E+00
 0.45425  0.0000000E+00
 0.47725  0.0000000E+00
 0.50025  0.0000000E+00
 0.52325  0.0000000E+00
 0.54625  0.0000000E+00
 0.56925  0.0000000E+00
 0.59225  0.0000000E+00
 0.61525  0.0000000E+00
 0.63825  0.0000000E+00
 0.66125  0.0000000E+00
 0.68425  0.0000000E+00
 0.70725  0.0000000E+00
 0.73025  0.0000000E+00
 0.75325  0.0000000E+00
 0.77625  0.0000000E+00
 0.79925  0.0000000E+00
 0.82225  0.0000000E+00
 0.84525  0.0000000E+00
 0.86825  0.0000000E+00
 0.89125  0.0000000E+00
 0.91425  0.0000000E+00
 0.93725  0.0000000E+00
 0.96025  0.0000000E+00
 0.98325  0.0000000E+00
 1.00625  0.0000000E+00
 1.02925  0.0000000E+00
 1.05225  0.0000000E+00
 1.07525  0.0000000E+00
 1.09825  0.0000000E+00
 1.12125  0.0000000E+00
 1.14425  0.0000000E+00
 1.16725  0.0000000E+00
 1.19025  0.0000000E+00
 1.21325  0.0000000E+00
 1.23625  0.0000000E+00
 1.25925  0.0000000E+00
 1.28225  0.0000000E+00
 1.30525  0.0000000E+00
 1.32825  0.0000000E+00
 1.35125  0.0000000E+00
 1.37425  0.0000000E+00
 1.39725  0.0000000E+00
 1.42025  0.0000000E+00
 1.44325  0.0000000E+00
 1.46625  0.0000000E+00
 1.48925  0.0000000E+00
 1.51225  0.0000000E+00
 1.53525  0.0000000E+00
 1.55825  0.0000000E+00
 1.58125  0.0000000E+00
 1.60425  0.0000000E+00
 1.62725  0.0000000E+00
 1.65025  0.0000000E+00
 1.67325  0.0000000E+00
 1.69625  0.0000000E+00
 1.71925  0.0000000E+00
 1.74225  0.0000000E+00
 1.76525  0.0000000E+00
 1.78825  0.0000000E+00
 1.81125  0.0000000E+00
 1.83425  0.0000000E+00
 1.85725  0.0000000E+00
 1.88025  0.0000000E+00
 1.90325  0.0000000E+00
 1.92625  0.0000000E+00
 1.94925  0.0000000E+00
 1.97225  0.0000000E+00
 1.99525  0.0000000E+00
 2.01825  0.0000000E+00
 2.04125  0.0000000E+00
 2.06425  0.0000000E+00
 2.08725  0.0000000E+00
 2.11025  0.0000000E+00
 2.13325  0.0000000E+00
 2.15625  0.0000000E+00
 2.17925  0.0000000E+00
 2.20225  0.0000000E+00
 2.22525  0.0000000E+00
 2.24825  0.0000000E+00
 2.27125  0.0000000E+00
 2.29425  0.0000000E+00
 2.31725  0.0000000E+00
 2.34025  0.0000000E+00
 2.36325  0.0000000E+00
 2.38625  0.0000000E+00
 2.40925  0.0000000E+00
 2.43225  0.0000000E+00
 2.45525  0.0000000E+00
 2.47825  0.0000000E+00
 2.50125  0.0000000E+00
 2.52425  0.0000000E+00
 2.54725  0.0000000E+00
 2.57025  0.0000000E+00
 2.59325  0.0000000E+00
 2.61625  0.0000000E+00
 2.63925  0.0000000E+00
 2.66225  0.0000000E+00
 2.68525  0.0000000E+00
 2.70825  0.0000000E+00
 2.73125  0.0000000E+00
 2.75425  0.0000000E+00
 2.77725  0.0000000E+00
 2.80025  0.0000000E+00
 2.82325  31.127
 2.84625  34.2845
 2.86925  36.2092
 2.89225  35.9731
 2.91525  36.3662
 2.93825  36.5495
 2.96125  36.1204
 2.98425  35.5508
 3.00725  35.3185
 3.03025  35.1613
 3.05325  35.4793
 3.07625  35.9401
 3.09925  35.4422
 3.12225  34.55
 3.14525  34.8275
 3.16825  35.0819
 3.19125  35.2015
 3.21425  35.1243
 3.23725  34.6048
 3.26025  34.248
 3.28325  33.7737
 3.30625  33.3383
 3.32925  33.5967
 3.35225  35.0363
 3.37525  35.3328
 3.39825  35.2249
 3.42125  34.6661
 3.44425  34.2438
 3.46725  33.799
 3.49025  33.2105
 3.51325  32.7501
 3.53625  32.9799
 3.55925  33.3614
 3.58225  33.1631
 3.60525  33.2024
 3.62825  33.0104
 3.65125  32.8812
 3.67425  32.6602
 3.69725  32.6115
 3.72025  32.6468
 3.74325  32.5615
 3.76625  32.6893
 3.78925  32.7757
 3.81225  32.5546
 3.83525  32.6668
 3.85825  32.608
 3.88125  32.7435
 3.90425  33.0409
 3.92725  33.0286
 3.95025  32.6293
 3.97325  32.2618
 3.99625  32.5049
 4.01925  32.7236
 4.04225  32.6933
 4.06525  32.5109
 4.08825  32.4315
 4.11125  32.6184
 4.13425  32.5296
 4.15725  32.4018
 4.18025  32.094
 4.20325  31.9551
 4.22625  31.8549
 4.24925  31.9299
 4.27225  32.1954
 4.29525  32.1628
 4.31825  32.0814
 4.34125  32.1652
 4.36425  32.098
 4.38725  32.2219
 4.41025  32.5798
 4.43325  32.7368
 4.45625  32.6995
 4.47925  32.4612
 4.50225  32.3485
 4.52525  32.5852
 4.54825  32.7316
 4.57125  32.6703
 4.59425  32.5797
 4.61725  32.5588
 4.64025  32.8217
 4.66325  32.9896
 4.68625  32.8607
 4.70925  32.6188
 4.73225  32.6337
 4.75525  32.5737
 4.77825  32.3173
 4.80125  32.0931
 4.82425  32.0603
 4.84725  32.3664
 4.87025  32.5896
 4.89325  32.5129
 4.91625  32.51
 4.93925  32.6617
 4.96225  32.7041
 4.98525  32.7956
 5.00825  32.8142
 5.03125  32.9049
 5.05425  32.9619
 5.07725  33.0503
 5.10025  33.379
 5.12325  33.4787
 5.14625  33.7886
 5.16925  34.0887
 5.19225  33.9283
 5.21525  33.7615
 5.23825  33.7258
 5.26125  33.6533
 5.28425  33.7074
 5.30725  33.7108
 5.33025  34.1997
 5.35325  34.4054
 5.37625  34.6675
 5.39925  34.7586
 5.42225  34.5543
 5.44525  34.4651
 5.46825  34.4619
 5.49125  34.4979
 5.51425  34.7331
 5.53725  34.804
 5.56025  34.8013
 5.58325  34.7959
 5.60625  34.9439
 5.62925  34.7682
 5.65225  35.0049
 5.67525  35.4187
 5.69825  35.5067
 5.72125  35.6219
 5.74425  35.8306
 5.76725  36.0601
 5.79025  36.2157
 5.81325  36.2858
 5.83625  36.5293
 5.85925  37.1524
 5.88225  37.9359
 5.90525  39.8634
 5.92825  45.4939
 5.95125  58.0149
 5.97425  74.2986
 5.99725  75.1434
 6.02025  61.6392
 6.04325  47.4958
 6.06625  40.8232
 6.08925  38.6609
 6.11225  37.9508
 6.13525  37.5325
 6.15825  37.4093
 6.18125  37.3835
 6.20425  37.5214
 6.22725  37.5607
 6.25025  37.5796
 6.27325  37.6437
 6.29625  37.7702
 6.31925  37.7461
 6.34225  37.7204
 6.36525  38.1047
 6.38825  38.3778
 6.41125  38.4877
 6.43425  38.4717
 6.45725  38.4047
 6.48025  38.4885
 6.50325  38.8576
 6.52625  39.2523
 6.54925  39.161
 6.57225  39.0642
 6.59525  39.1879
 6.61825  39.3278
 6.64125  39.5502
 6.66425  39.8613
 6.68725  39.9577
 6.71025  39.9968
 6.73325  40.3954
 6.75625  40.9012
 6.77925  41.2187
 6.80225  41.2071
 6.82525  41.2704
 6.84825  41.4675
 6.87125  41.6229
 6.89425  41.6935
 6.91725  41.7555
 6.94025  41.7308
 6.96325  41.8347
 6.98625  42.0124
 7.00925  42.1568
 7.03225  42.2243
 7.05525  42.4251
 7.07825  42.5853
 7.10125  42.6563
 7.12425  42.9547
 7.14725  43.1447
 7.17025  43.2657
 7.19325  43.271
 7.21625  43.3777
 7.23925  43.2972
 7.26225  43.231
 7.28525  43.2704
 7.30825  43.2766
 7.33125  43.3854
 7.35425  43.5225
 7.37725  43.554
 7.40025  43.6638
 7.42325  43.7051
 7.44625  43.6399
 7.46925  43.795
 7.49225  44.0323
 7.51525  44.1898
 7.53825  44.2873
 7.56125  44.3339
 7.58425  44.4459
 7.60725  44.5071
 7.63025  44.5286
 7.65325  44.4543
 7.67625  44.1391
 7.69925  43.9374
 7.72225  43.797
 7.74525  43.9583
 7.76825  44.0032
 7.79125  43.834
 7.81425  43.701
 7.83725  43.6864
 7.86025  43.6808
 7.88325  43.5146
 7.90625  43.3767
 7.92925  43.2719
 7.95225  43.2001
 7.97525  43.2108
 7.99825  43.1965
 8.02125  42.9862
 8.04425  42.8402
 8.06725  42.6659
 8.09025  42.4438
 8.11325  42.505
 8.13625  42.4453
 8.15925  42.1404
 8.18225  41.7996
 8.20525  41.5481
 8.22825  41.1631
 8.25125  40.8876
 8.27425  40.6921
 8.29725  40.4839
 8.32025  40.3371
 8.34325  40.1185
 8.36625  39.9508
 8.38925  39.6968
 8.41225  39.3041
 8.43525  38.8229
 8.45825  38.3894
 8.48125  38.1399
 8.50425  37.9551
 8.52725  37.6023
 8.55025  37.1295
 8.57325  36.7093
 8.59625  36.239
 8.61925  35.9598
 8.64225  35.7368
 8.66525  35.3063
 8.68825  35.0374
 8.71125  34.7161
 8.73425  34.3811
 8.75725  33.8465
 8.78025  33.5027
 8.80325  33.2839
 8.82625  33.066
 8.84925  32.7424
 8.87225  32.4
 8.89525  31.9826
 8.91825  31.5508
 8.94125  31.241
 8.96425  31.0641
 8.98725  30.8451
 9.01025  30.6111
 9.03325  30.3733
 9.05625  30.1103
 9.07925  29.9442
 9.10225  29.6935
 9.12525  29.4274
 9.14825  29.1699
 9.17125  28.8946
 9.19425  28.6282
 9.21725  28.3148
 9.24025  28.1225
 9.26325  28.0719
 9.28625  27.8675
 9.30925  27.6025
 9.33225  27.3566
 9.35525  27.1422
 9.37825  27.0874
 9.40125  27.0169
 9.42425  26.8278
 9.44725  26.6408
 9.47025  26.6006
 9.49325  26.4872
 9.51625  26.3785
 9.53925  26.2428
 9.56225  26.0622
 9.58525  25.8966
 9.60825  25.8414
 9.63125  25.7538
 9.65425  25.6141
 9.67725  25.4686
 9.70025  25.29
 9.72325  25.2547
 9.74625  25.1912
 9.76925  25.032
 9.79225  24.9983
 9.81525  24.9322
 9.83825  24.8213
 9.86125  24.7646
 9.88425  24.7354
 9.90725  24.6235
 9.93025  24.4896
 9.95325  24.3127
 9.97625  24.3367
 9.99925  24.3719
 10.0222  24.2462
 10.0453  24.2544
 10.0683  24.232
 10.0913  24.1101
 10.1143  24.0127
 10.1373  24.0607
 10.1603  24.0354
 10.1832  23.8711
 10.2063  23.699
 10.2293  23.7242
 10.2523  23.6253
 10.2752  23.6268
 10.2982  23.7646
 10.3213  23.7342
 10.3443  23.6913
 10.3673  23.5217
 10.3902  23.498
 10.4133  23.5222
 10.4363  23.4127
 10.4593  23.2806
 10.4823  23.335
 10.5053  23.3311
 10.5283  23.2052
 10.5512  23.1477
 10.5742  23.1956
 10.5973  23.0563
 10.6203  22.9101
 10.6433  22.9617
 10.6662  23.103
 10.6893  23.1008
 10.7123  23.0485
 10.7353  22.9817
 10.7583  22.9352
 10.7813  22.9256
 10.8043  22.884
 10.8272  22.8223
 10.8503  22.8159
 10.8733  22.7828
 10.8963  22.7048
 10.9192  22.6907
 10.9422  22.6812
 10.9653  22.6538
 10.9883  22.7102
 11.0113  22.6777
 11.0343  22.6608
 11.0573  22.63
 11.0803  22.6522
 11.1033  22.5857
 11.1263  22.5599
 11.1493  22.5985
 11.1723  22.5454
 11.1953  22.5047
 11.2182  22.4626
 11.2413  22.5258
 11.2643  22.5063
 11.2873  22.4819
 11.3102  22.5366
 11.3333  22.5594
 11.3563  22.5653
 11.3793  22.6298
 11.4023  22.8282
 11.4253  22.901
 11.4483  22.9238
 11.4713  23.0184
 11.4942  23.0976
 11.5173  23.3873
 11.5403  24.5655
 11.5633  27.0333
 11.5862  29.7857
 11.6093  30.2858
 11.6323  28.5168
 11.6553  25.5336
 11.6783  23.7382
 11.7013  22.983
 11.7243  22.7059
 11.7473  22.6527
 11.7703  22.6704
 11.7933  22.6384
 11.8163  22.6444
 11.8393  22.7102
 11.8622  22.7475
 11.8853  22.8302
 11.9083  23.0439
 11.9313  23.5261
 11.9543  24.8397
 11.9773  26.9077
 12.0003  27.6728
 12.0233  26.2964
 12.0463  25.1089
 12.0693  25.2989
 12.0923  26.8822
 12.1153  28.3616
 12.1382  28.1931
 12.1613  26.0347
 12.1843  24.074
 12.2073  23.1887
 12.2302  22.844
 12.2533  22.7842
 12.2763  22.6335
 12.2993  22.6065
 12.3223  22.6691
 12.3453  22.6962
 12.3683  22.6557
 12.3913  22.6564
 12.4142  22.7002
 12.4373  22.7425
 12.4603  22.7899
 12.4833  22.8208
 12.5062  22.6843
 12.5292  22.6684
 12.5523  22.8057
 12.5753  22.9304
 12.5983  22.9708
 12.6212  22.9242
 12.6443  22.8457
 12.6673  22.8343
 12.6903  22.9561
 12.7133  23.0709
 12.7363  23.1329
 12.7593  23.1671
 12.7822  23.1618
 12.8052  23.2322
 12.8283  23.3422
 12.8513  23.4354
 12.8742  23.4523
 12.8972  23.442
 12.9203  23.5643
 12.9433  23.7122
 12.9663  23.8184
 12.9893  23.9431
 13.0123  24.0196
 13.0353  24.2146
 13.0582  24.3464
 13.0813  24.5144
 13.1043  24.8677
 13.1273  25.0875
 13.1502  25.1732
 13.1732  25.3517
 13.1963  25.5772
 13.2193  25.8009
 13.2423  26.1646
 13.2652  26.5327
 13.2883  26.8503
 13.3113  27.1101
 13.3343  27.4022
 13.3573  27.7695
 13.3803  27.9731
 13.4033  28.2614
 13.4262  28.3966
 13.4492  28.6426
 13.4723  28.9046
 13.4953  29.1973
 13.5183  29.5329
 13.5412  29.7423
 13.5643  29.7757
 13.5873  29.762
 13.6103  29.7351
 13.6333  29.8112
 13.6563  29.9748
 13.6793  30.0657
 13.7022  30.2216
 13.7253  30.3912
 13.7483  30.2789
 13.7713  29.7633
 13.7942  29.6259
 13.8172  29.6275
 13.8403  29.8557
 13.8633  30.6447
 13.8863  32.9906
 13.9093  39.0573
 13.9323  48.7003
 13.9553  54.8561
 13.9783  49.0361
 14.0013  38.1933
 14.0243  32.1478
 14.0473  29.6789
 14.0703  28.8334
 14.0932  28.4741
 14.1163  28.1267
 14.1393  27.7437
 14.1623  27.396
 14.1852  27.1872
 14.2083  26.9084
 14.2313  26.7217
 14.2543  26.6464
 14.2773  26.4931
 14.3003  26.4281
 14.3233  26.3319
 14.3463  26.1923
 14.3692  26.0931
 14.3923  26.0451
 14.4153  26.0374
 14.4383  26.0267
 14.4612  25.9416
 14.4843  25.8469
 14.5073  25.795
 14.5303  25.7767
 14.5533  25.702
 14.5763  25.6418
 14.5993  25.5986
 14.6223  25.4841
 14.6453  25.4094
 14.6683  25.2881
 14.6913  25.3142
 14.7143  25.3907
 14.7372  25.2679
 14.7603  25.1167
 14.7833  25.1016
 14.8063  25.0277
 14.8293  24.8955
 14.8523  24.9942
 14.8753  25.0043
 14.8983  25.0643
 14.9213  25.0809
 14.9443  25.0163
 14.9673  24.9784
 14.9903  24.8778
 15.0132  24.8848
 15.0363  24.9848
 15.0593  25.0453
 15.0823  25.0709
 15.1052  25.2759
 15.1283  25.7091
 15.1513  26.7341
 15.1743  28.5508
 15.1973  29.6923
 15.2203  29.4861
 15.2433  27.6721
 15.2663  25.9163
 15.2892  25.2286
 15.3123  24.9489
 15.3353  24.7858
 15.3583  24.6119
 15.3812  24.6173
 15.4043  24.7527
 15.4273  24.6777
 15.4503  24.6368
 15.4733  24.7056
 15.4963  24.7745
 15.5193  24.8257
 15.5423  24.799
 15.5653  24.7384
 15.5883  24.7615
 15.6113  24.7498
 15.6343  24.7738
 15.6572  24.7123
 15.6803  24.7719
 15.7033  24.7612
 15.7263  24.806
 15.7492  24.8122
 15.7723  24.8383
 15.7953  24.815
 15.8183  24.8104
 15.8413  24.7202
 15.8643  24.675
 15.8873  24.7749
 15.9103  24.7819
 15.9332  24.8715
 15.9563  24.8425
 15.9793  24.7369
 16.0023  24.7525
 16.0253  24.8063
 16.0482  24.8886
 16.0713  24.8346
 16.0943  24.8029
 16.1172  24.8263
 16.1403  24.9252
 16.1633  25.0334
 16.1863  25.1316
 16.2093  25.5909
 16.2323  26.0169
 16.2553  26.2549
 16.2783  26.1315
 16.3012  25.5175
 16.3243  25.0193
 16.3472  24.7265
 16.3703  24.6467
 16.3933  24.7293
 16.4163  24.8027
 16.4393  24.819
 16.4623  24.8603
 16.4853  24.8653
 16.5083  24.835
 16.5312  24.6977
 16.5543  24.627
 16.5773  24.6446
 16.6002  24.7123
 16.6233  24.6261
 16.6463  24.5528
 16.6693  24.6958
 16.6923  24.6567
 16.7153  24.5592
 16.7383  24.5569
 16.7613  24.635
 16.7843  24.6061
 16.8073  24.6266
 16.8303  24.5368
 16.8533  24.4385
 16.8763  24.5023
 16.8992  24.4193
 16.9223  24.373
 16.9453  24.3957
 16.9683  24.469
 16.9913  24.4657
 17.0143  24.3848
 17.0373  24.3533
 17.0603  24.2922
 17.0832  24.3259
 17.1063  24.392
 17.1293  24.3734
 17.1522  24.3372
 17.1753  24.2319
 17.1983  24.2386
 17.2213  24.3222
 17.2443  24.2302
 17.2673  24.0371
 17.2903  24.0837
 17.3133  24.0643
 17.3362  24.0973
 17.3593  24.0294
 17.3823  24.0632
 17.4053  24.0771
 17.4283  24.1012
 17.4513  24.2502
 17.4743  24.0445
 17.4973  23.9755
 17.5203  23.9776
 17.5433  24.066
 17.5663  24.0519
 17.5893  24.0203
 17.6123  23.9725
 17.6352  23.8542
 17.6583  23.7925
 17.6813  23.8732
 17.7042  23.9781
 17.7273  23.931
 17.7503  23.8271
 17.7733  23.9436
 17.7963  24.0162
 17.8193  23.971
 17.8423  23.916
 17.8653  23.889
 17.8882  23.9158
 17.9113  23.8696
 17.9343  23.9461
 17.9573  24.1659
 17.9803  24.7042
 18.0033  25.2964
 18.0263  25.6301
 18.0493  25.826
 18.0723  26.3355
 18.0953  27.3921
 18.1183  27.8267
 18.1413  27.2575
 18.1643  25.7993
 18.1872  24.6866
 18.2103  24.1795
 18.2333  23.9779
 18.2563  23.793
 18.2793  23.7202
 18.3023  23.801
 18.3253  23.812
 18.3483  23.8254
 18.3712  23.8666
 18.3943  23.8757
 18.4173  23.9782
 18.4402  23.8501
 18.4633  23.7956
 18.4863  23.8902
 18.5093  23.8084
 18.5323  23.6739
 18.5553  23.6809
 18.5783  23.6869
 18.6013  23.7
 18.6242  23.6006
 18.6473  23.5843
 18.6703  23.5349
 18.6933  23.6066
 18.7163  23.6282
 18.7392  23.5958
 18.7623  23.5983
 18.7853  23.6937
 18.8083  23.7366
 18.8313  23.6234
 18.8543  23.6211
 18.8773  23.6388
 18.9003  23.6224
 18.9232  23.6004
 18.9463  23.7286
 18.9693  23.647
 18.9922  23.5998
 19.0153  23.6638
 19.0383  23.6941
 19.0613  23.6665
 19.0843  23.6362
 19.1073  23.6377
 19.1303  23.6748
 19.1533  23.7354
 19.1762  23.7182
 19.1993  23.7524
 19.2223  23.744
 19.2453  23.7378
 19.2683  23.7335
 19.2913  23.7685
 19.3143  23.7532
 19.3373  23.7633
 19.3603  23.7536
 19.3833  23.6975
 19.4062  23.6427
 19.4293  23.6968
 19.4523  23.76
 19.4752  23.828
 19.4983  23.854
 19.5213  23.9189
 19.5443  24.1156
 19.5673  24.2144
 19.5903  24.221
 19.6133  24.3318
 19.6363  24.8677
 19.6593  26.1785
 19.6823  28.4188
 19.7053  30.6283
 19.7283  30.2091
 19.7513  27.9487
 19.7742  26.3549
 19.7973  25.9756
 19.8203  26.6921
 19.8433  28.1574
 19.8663  28.8523
 19.8893  27.3484
 19.9123  25.9936
 19.9353  24.8896
 19.9582  24.3965
 19.9813  24.2561
 20.0043  24.1674
 20.0272  24.0494
 20.0503  24.0141
 20.0733  23.8889
 20.0963  23.9296
 20.1193  24.0029
 20.1423  23.9412
 20.1653  23.9099
 20.1883  23.9176
 20.2112  23.9474
 20.2343  23.9509
 20.2573  23.8156
 20.2803  23.8085
 20.3033  23.8294
 20.3263  23.8161
 20.3493  23.8127
 20.3723  23.7811
 20.3953  23.7302
 20.4183  23.7769
 20.4413  23.8105
 20.4643  23.8344
 20.4873  23.9065
 20.5102  23.907
 20.5333  23.8934
 20.5563  23.9991
 20.5792  24.0475
 20.6023  24.0325
 20.6253  24.017
 20.6483  24.0845
 20.6713  24.2908
 20.6943  24.56
 20.7173  25.1127
 20.7403  26.1624
 20.7632  27.0412
 20.7863  26.4949
 20.8093  25.4297
 20.8323  24.6829
 20.8553  24.3496
 20.8783  24.1829
 20.9013  24.147
 20.9243  24.111
 20.9473  24.152
 20.9703  24.0779
 20.9933  24.0258
 21.0163  24.0109
 21.0393  24.0331
 21.0622  24.0959
 21.0853  24.1345
 21.1083  24.0706
 21.1313  24.0748
 21.1543  23.9712
 21.1773  23.9222
 21.2003  23.9571
 21.2233  23.9684
 21.2462  24.0752
 21.2693  24.0621
 21.2923  24.0657
 21.3152  24.0124
 21.3383  24.0392
 21.3613  24.0474
 21.3843  23.9219
 21.4073  24.0192
 21.4303  24.0505
 21.4533  24.0629
 21.4763  24.0854
 21.4992  24.0988
 21.5223  24.1054
 21.5453  24.107
 21.5683  24.0804
 21.5913  24.1788
 21.6142  24.2299
 21.6373  24.2289
 21.6603  24.2072
 21.6833  24.201
 21.7063  24.1534
 21.7293  24.137
 21.7523  24.2
 21.7753  24.2054
 21.7982  24.2205
 21.8213  24.2072
 21.8443  24.1995
 21.8672  24.2956
 21.8903  24.324
 21.9133  24.2613
 21.9363  24.2513
 21.9593  24.2993
 21.9823  24.2823
 22.0053  24.2689
 22.0283  24.4401
 22.0512  24.3983
 22.0743  24.3421
 22.0973  24.3925
 22.1203  24.4804
 22.1433  24.4993
 22.1663  24.5426
 22.1893  24.5419
 22.2123  24.614
 22.2353  24.6556
 22.2583  24.644
 22.2813  24.6841
 22.3043  24.8207
 22.3273  24.8146
 22.3502  24.7904
 22.3733  24.7332
 22.3963  24.6222
 22.4193  24.6027
 22.4423  24.7468
 22.4653  24.7429
 22.4883  24.7816
 22.5113  24.8845
 22.5343  24.979
 22.5573  25.0007
 22.5803  25.0058
 22.6033  24.9831
 22.6263  25.0785
 22.6493  25.1461
 22.6723  25.2005
 22.6953  25.275
 22.7183  25.2748
 22.7413  25.3455
 22.7643  25.4909
 22.7873  25.7271
 22.8103  26.201
 22.8333  25.9581
 22.8563  25.7448
 22.8793  25.8309
 22.9022  25.917
 22.9253  26.1886
 22.9483  26.2659
 22.9713  26.3404
 22.9943  26.5027