File: test-data-xrd/xrd-map-34-ID-E/Data_0043.chi
F:\20151113_APS_34IDE\\Brian\Particle1\OCV\Data_0043.tif
2-Theta Angle (Degrees)
Intensity
       2000
 0.01725  0.0000000E+00
 0.04025  0.0000000E+00
 0.06325  0.0000000E+00
 0.08625  0.0000000E+00
 0.10925  0.0000000E+00
 0.13225  0.0000000E+00
 0.15525  0.0000000E+00
 0.17825  0.0000000E+00
 0.20125  0.0000000E+00
 0.22425  0.0000000E+00
 0.24725  0.0000000E+00
 0.27025  0.0000000E+00
 0.29325  0.0000000E+00
 0.31625  0.0000000E+00
 0.33925  0.0000000E+00
 0.36225  0.0000000E+00
 0.38525  0.0000000E+00
 0.40825  0.0000000E+00
 0.43125  0.0000000E+00
 0.45425  0.0000000E+00
 0.47725  0.0000000E+00
 0.50025  0.0000000E+00
 0.52325  0.0000000E+00
 0.54625  0.0000000E+00
 0.56925  0.0000000E+00
 0.59225  0.0000000E+00
 0.61525  0.0000000E+00
 0.63825  0.0000000E+00
 0.66125  0.0000000E+00
 0.68425  0.0000000E+00
 0.70725  0.0000000E+00
 0.73025  0.0000000E+00
 0.75325  0.0000000E+00
 0.77625  0.0000000E+00
 0.79925  0.0000000E+00
 0.82225  0.0000000E+00
 0.84525  0.0000000E+00
 0.86825  0.0000000E+00
 0.89125  0.0000000E+00
 0.91425  0.0000000E+00
 0.93725  0.0000000E+00
 0.96025  0.0000000E+00
 0.98325  0.0000000E+00
 1.00625  0.0000000E+00
 1.02925  0.0000000E+00
 1.05225  0.0000000E+00
 1.07525  0.0000000E+00
 1.09825  0.0000000E+00
 1.12125  0.0000000E+00
 1.14425  0.0000000E+00
 1.16725  0.0000000E+00
 1.19025  0.0000000E+00
 1.21325  0.0000000E+00
 1.23625  0.0000000E+00
 1.25925  0.0000000E+00
 1.28225  0.0000000E+00
 1.30525  0.0000000E+00
 1.32825  0.0000000E+00
 1.35125  0.0000000E+00
 1.37425  0.0000000E+00
 1.39725  0.0000000E+00
 1.42025  0.0000000E+00
 1.44325  0.0000000E+00
 1.46625  0.0000000E+00
 1.48925  0.0000000E+00
 1.51225  0.0000000E+00
 1.53525  0.0000000E+00
 1.55825  0.0000000E+00
 1.58125  0.0000000E+00
 1.60425  0.0000000E+00
 1.62725  0.0000000E+00
 1.65025  0.0000000E+00
 1.67325  0.0000000E+00
 1.69625  0.0000000E+00
 1.71925  0.0000000E+00
 1.74225  0.0000000E+00
 1.76525  0.0000000E+00
 1.78825  0.0000000E+00
 1.81125  0.0000000E+00
 1.83425  0.0000000E+00
 1.85725  0.0000000E+00
 1.88025  0.0000000E+00
 1.90325  0.0000000E+00
 1.92625  0.0000000E+00
 1.94925  0.0000000E+00
 1.97225  0.0000000E+00
 1.99525  0.0000000E+00
 2.01825  0.0000000E+00
 2.04125  0.0000000E+00
 2.06425  0.0000000E+00
 2.08725  0.0000000E+00
 2.11025  0.0000000E+00
 2.13325  0.0000000E+00
 2.15625  0.0000000E+00
 2.17925  0.0000000E+00
 2.20225  0.0000000E+00
 2.22525  0.0000000E+00
 2.24825  0.0000000E+00
 2.27125  0.0000000E+00
 2.29425  0.0000000E+00
 2.31725  0.0000000E+00
 2.34025  0.0000000E+00
 2.36325  0.0000000E+00
 2.38625  0.0000000E+00
 2.40925  0.0000000E+00
 2.43225  0.0000000E+00
 2.45525  0.0000000E+00
 2.47825  0.0000000E+00
 2.50125  0.0000000E+00
 2.52425  0.0000000E+00
 2.54725  0.0000000E+00
 2.57025  0.0000000E+00
 2.59325  0.0000000E+00
 2.61625  0.0000000E+00
 2.63925  0.0000000E+00
 2.66225  0.0000000E+00
 2.68525  0.0000000E+00
 2.70825  0.0000000E+00
 2.73125  0.0000000E+00
 2.75425  0.0000000E+00
 2.77725  0.0000000E+00
 2.80025  0.0000000E+00
 2.82325  30.9061
 2.84625  31.4985
 2.86925  32.5636
 2.89225  33.3186
 2.91525  34.3229
 2.93825  36.223
 2.96125  36.6725
 2.98425  35.6559
 3.00725  35.6868
 3.03025  35.7576
 3.05325  35.7397
 3.07625  35.5014
 3.09925  35.4435
 3.12225  35.0663
 3.14525  35.1779
 3.16825  35.3075
 3.19125  35.3468
 3.21425  34.8608
 3.23725  34.1943
 3.26025  33.7615
 3.28325  34.2386
 3.30625  34.5589
 3.32925  35.1274
 3.35225  35.2646
 3.37525  34.6427
 3.39825  33.8323
 3.42125  33.832
 3.44425  34.2114
 3.46725  34.653
 3.49025  34.5986
 3.51325  34.3987
 3.53625  34.2456
 3.55925  33.8458
 3.58225  33.1877
 3.60525  33.2468
 3.62825  33.343
 3.65125  33.5599
 3.67425  33.6384
 3.69725  33.5366
 3.72025  33.278
 3.74325  33.1811
 3.76625  33.2891
 3.78925  33.2018
 3.81225  32.9672
 3.83525  33.0666
 3.85825  32.8956
 3.88125  32.9742
 3.90425  32.7906
 3.92725  32.8732
 3.95025  32.7266
 3.97325  32.834
 3.99625  32.7699
 4.01925  32.5386
 4.04225  32.4578
 4.06525  32.5238
 4.08825  32.4056
 4.11125  32.5749
 4.13425  32.4017
 4.15725  32.6219
 4.18025  32.5768
 4.20325  32.6588
 4.22625  32.8196
 4.24925  32.866
 4.27225  32.6404
 4.29525  32.4301
 4.31825  32.5412
 4.34125  32.5497
 4.36425  32.5518
 4.38725  32.4895
 4.41025  32.4314
 4.43325  32.5372
 4.45625  32.7677
 4.47925  33.3694
 4.50225  33.2812
 4.52525  32.8001
 4.54825  32.701
 4.57125  32.8066
 4.59425  32.9508
 4.61725  33.0467
 4.64025  32.8147
 4.66325  33.0369
 4.68625  33.0759
 4.70925  33.0744
 4.73225  33.0215
 4.75525  32.8802
 4.77825  32.9693
 4.80125  32.7591
 4.82425  32.3806
 4.84725  32.4166
 4.87025  32.6083
 4.89325  32.7474
 4.91625  32.8058
 4.93925  32.9912
 4.96225  33.2171
 4.98525  33.3549
 5.00825  33.3843
 5.03125  33.3523
 5.05425  33.2314
 5.07725  33.3971
 5.10025  33.4048
 5.12325  33.3275
 5.14625  33.5108
 5.16925  33.8216
 5.19225  33.9694
 5.21525  33.9478
 5.23825  34.189
 5.26125  34.3513
 5.28425  34.251
 5.30725  34.1892
 5.33025  34.4576
 5.35325  34.6815
 5.37625  34.7915
 5.39925  34.856
 5.42225  34.5862
 5.44525  34.5815
 5.46825  34.541
 5.49125  34.6016
 5.51425  34.7673
 5.53725  34.8772
 5.56025  34.943
 5.58325  34.9645
 5.60625  34.9867
 5.62925  35.041
 5.65225  35.283
 5.67525  35.3684
 5.69825  35.3485
 5.72125  35.5788
 5.74425  35.7215
 5.76725  35.7069
 5.79025  35.6097
 5.81325  35.5459
 5.83625  35.5412
 5.85925  35.6032
 5.88225  35.756
 5.90525  36.0831
 5.92825  36.6011
 5.95125  37.7967
 5.97425  39.1842
 5.99725  39.3313
 6.02025  38.2337
 6.04325  37.1002
 6.06625  36.7144
 6.08925  36.6658
 6.11225  36.6189
 6.13525  36.641
 6.15825  36.5868
 6.18125  36.7303
 6.20425  37.0152
 6.22725  37.2548
 6.25025  37.4914
 6.27325  37.6588
 6.29625  37.7545
 6.31925  37.8903
 6.34225  38.1324
 6.36525  38.3317
 6.38825  38.408
 6.41125  38.4573
 6.43425  38.3555
 6.45725  38.3638
 6.48025  38.4259
 6.50325  38.7492
 6.52625  38.9158
 6.54925  39.0054
 6.57225  39.3354
 6.59525  39.7263
 6.61825  40.0562
 6.64125  40.2621
 6.66425  40.3843
 6.68725  40.4727
 6.71025  40.6883
 6.73325  40.7811
 6.75625  40.8868
 6.77925  41.127
 6.80225  41.203
 6.82525  41.2403
 6.84825  41.3641
 6.87125  41.516
 6.89425  41.8282
 6.91725  42.0575
 6.94025  42.1375
 6.96325  42.0249
 6.98625  41.9851
 7.00925  42.2057
 7.03225  42.3786
 7.05525  42.518
 7.07825  42.633
 7.10125  42.8208
 7.12425  42.9077
 7.14725  42.9973
 7.17025  43.0987
 7.19325  43.1786
 7.21625  43.3378
 7.23925  43.4987
 7.26225  43.7323
 7.28525  43.6968
 7.30825  43.6778
 7.33125  43.7601
 7.35425  43.8227
 7.37725  43.8534
 7.40025  43.9635
 7.42325  44.0843
 7.44625  44.2581
 7.46925  44.2945
 7.49225  44.2883
 7.51525  44.2307
 7.53825  44.2245
 7.56125  44.175
 7.58425  44.2771
 7.60725  44.4508
 7.63025  44.2936
 7.65325  44.074
 7.67625  44.0662
 7.69925  43.9767
 7.72225  43.9103
 7.74525  43.8666
 7.76825  43.8865
 7.79125  43.8295
 7.81425  43.9606
 7.83725  43.9503
 7.86025  44.1775
 7.88325  44.1457
 7.90625  43.9267
 7.92925  43.761
 7.95225  43.5274
 7.97525  43.3221
 7.99825  43.5047
 8.02125  43.5875
 8.04425  43.5015
 8.06725  43.0504
 8.09025  42.8169
 8.11325  42.6688
 8.13625  42.4405
 8.15925  42.1439
 8.18225  41.9742
 8.20525  41.8951
 8.22825  41.6548
 8.25125  41.2883
 8.27425  40.8451
 8.29725  40.7029
 8.32025  40.4812
 8.34325  40.1259
 8.36625  39.6741
 8.38925  39.2058
 8.41225  39.0231
 8.43525  38.8773
 8.45825  38.5436
 8.48125  38.0855
 8.50425  37.6608
 8.52725  37.3408
 8.55025  36.935
 8.57325  36.5621
 8.59625  36.3336
 8.61925  36.2519
 8.64225  36.0344
 8.66525  35.5448
 8.68825  35.1287
 8.71125  34.6926
 8.73425  34.3177
 8.75725  33.8798
 8.78025  33.5785
 8.80325  33.1986
 8.82625  32.9402
 8.84925  32.6823
 8.87225  32.4347
 8.89525  32.0956
 8.91825  31.7916
 8.94125  31.3942
 8.96425  31.0246
 8.98725  30.8081
 9.01025  30.4603
 9.03325  30.1302
 9.05625  29.7748
 9.07925  29.6172
 9.10225  29.4986
 9.12525  29.3292
 9.14825  29.1001
 9.17125  28.9474
 9.19425  28.8533
 9.21725  28.5258
 9.24025  28.1482
 9.26325  27.8915
 9.28625  27.835
 9.30925  27.7095
 9.33225  27.5939
 9.35525  27.3923
 9.37825  27.1873
 9.40125  27.013
 9.42425  26.7724
 9.44725  26.4684
 9.47025  26.4949
 9.49325  26.4141
 9.51625  26.2722
 9.53925  26.2494
 9.56225  26.0244
 9.58525  25.7936
 9.60825  25.6964
 9.63125  25.5701
 9.65425  25.3575
 9.67725  25.2011
 9.70025  25.0748
 9.72325  25.0706
 9.74625  24.9543
 9.76925  24.9122
 9.79225  24.8863
 9.81525  24.7828
 9.83825  24.6146
 9.86125  24.4634
 9.88425  24.3744
 9.90725  24.3578
 9.93025  24.3364
 9.95325  24.2238
 9.97625  24.2116
 9.99925  24.1406
 10.0222  23.9855
 10.0453  23.9621
 10.0683  23.8813
 10.0913  23.9086
 10.1143  23.9176
 10.1373  23.9034
 10.1603  23.7725
 10.1832  23.664
 10.2063  23.5639
 10.2293  23.5971
 10.2523  23.5516
 10.2752  23.4517
 10.2982  23.4235
 10.3213  23.3428
 10.3443  23.3024
 10.3673  23.2869
 10.3902  23.4093
 10.4133  23.436
 10.4363  23.1713
 10.4593  23.0067
 10.4823  23.0401
 10.5053  23.1156
 10.5283  23.0912
 10.5512  22.9993
 10.5742  22.9378
 10.5973  22.8215
 10.6203  22.7414
 10.6433  22.7523
 10.6662  22.7917
 10.6893  22.7595
 10.7123  22.6792
 10.7353  22.6493
 10.7583  22.6699
 10.7813  22.669
 10.8043  22.6903
 10.8272  22.759
 10.8503  22.772
 10.8733  22.6614
 10.8963  22.444
 10.9192  22.4672
 10.9422  22.4981
 10.9653  22.581
 10.9883  22.7158
 11.0113  22.7386
 11.0343  22.5149
 11.0573  22.3279
 11.0803  22.3073
 11.1033  22.4514
 11.1263  22.7212
 11.1493  22.6171
 11.1723  22.4992
 11.1953  22.3949
 11.2182  22.2896
 11.2413  22.2608
 11.2643  22.4103
 11.2873  22.42
 11.3102  22.273
 11.3333  22.2746
 11.3563  22.2892
 11.3793  22.4156
 11.4023  22.6592
 11.4253  22.6362
 11.4483  22.4152
 11.4713  22.2374
 11.4942  22.2173
 11.5173  22.3863
 11.5403  22.7765
 11.5633  23.4765
 11.5862  24.0081
 11.6093  24.1126
 11.6323  23.7589
 11.6553  23.0511
 11.6783  22.5365
 11.7013  22.292
 11.7243  22.306
 11.7473  22.3152
 11.7703  22.2271
 11.7933  22.1622
 11.8163  22.1952
 11.8393  22.1805
 11.8622  22.1844
 11.8853  22.1305
 11.9083  22.1345
 11.9313  22.2602
 11.9543  22.385
 11.9773  22.477
 12.0003  22.5448
 12.0233  22.5564
 12.0463  22.5732
 12.0693  22.6586
 12.0923  22.7916
 12.1153  22.8689
 12.1382  22.8556
 12.1613  22.6753
 12.1843  22.4502
 12.2073  22.3573
 12.2302  22.2783
 12.2533  22.2694
 12.2763  22.2879
 12.2993  22.3595
 12.3223  22.4073
 12.3453  22.412
 12.3683  22.4219
 12.3913  22.4179
 12.4142  22.3823
 12.4373  22.4134
 12.4603  22.4225
 12.4833  22.4664
 12.5062  22.3595
 12.5292  22.4302
 12.5523  22.5593
 12.5753  22.5699
 12.5983  22.6256
 12.6212  22.6673
 12.6443  22.6243
 12.6673  22.5052
 12.6903  22.521
 12.7133  22.6273
 12.7363  22.6874
 12.7593  22.6996
 12.7822  22.7423
 12.8052  22.7698
 12.8283  22.9166
 12.8513  22.9721
 12.8742  23.096
 12.8972  23.221
 12.9203  23.406
 12.9433  23.4664
 12.9663  23.5662
 12.9893  23.6596
 13.0123  23.7032
 13.0353  23.9054
 13.0582  24.1899
 13.0813  24.2997
 13.1043  24.4147
 13.1273  24.6331
 13.1502  24.9605
 13.1732  25.2499
 13.1963  25.4461
 13.2193  25.6951
 13.2423  26.0297
 13.2652  26.2953
 13.2883  26.5131
 13.3113  26.6536
 13.3343  26.9496
 13.3573  27.3504
 13.3803  27.799
 13.4033  28.0988
 13.4262  28.2671
 13.4492  28.3276
 13.4723  28.5638
 13.4953  28.8748
 13.5183  29.1674
 13.5412  29.2884
 13.5643  29.3439
 13.5873  29.4055
 13.6103  29.3045
 13.6333  29.3825
 13.6563  29.4149
 13.6793  29.4515
 13.7022  29.2402
 13.7253  29.0789
 13.7483  29.0953
 13.7713  29.0274
 13.7942  28.921
 13.8172  28.7601
 13.8403  28.6531
 13.8633  28.6404
 13.8863  28.7762
 13.9093  29.2241
 13.9323  29.8271
 13.9553  30.2205
 13.9783  30.0671
 14.0013  29.1029
 14.0243  28.1629
 14.0473  27.6365
 14.0703  27.4511
 14.0932  27.2689
 14.1163  27.1524
 14.1393  26.9953
 14.1623  26.8291
 14.1852  26.6583
 14.2083  26.511
 14.2313  26.2778
 14.2543  26.2198
 14.2773  26.2355
 14.3003  26.2104
 14.3233  26.1274
 14.3463  25.9892
 14.3692  25.9258
 14.3923  25.8727
 14.4153  25.7435
 14.4383  25.7017
 14.4612  25.6567
 14.4843  25.5779
 14.5073  25.5963
 14.5303  25.5883
 14.5533  25.4536
 14.5763  25.38
 14.5993  25.2468
 14.6223  25.2016
 14.6453  25.2277
 14.6683  25.2005
 14.6913  25.1336
 14.7143  25.0759
 14.7372  24.926
 14.7603  24.9498
 14.7833  24.9363
 14.8063  24.8722
 14.8293  24.9274
 14.8523  24.9526
 14.8753  24.8708
 14.8983  24.8023
 14.9213  24.7451
 14.9443  24.6857
 14.9673  24.5971
 14.9903  24.5665
 15.0132  24.6519
 15.0363  24.6579
 15.0593  24.601
 15.0823  24.5683
 15.1052  24.5825
 15.1283  24.648
 15.1513  24.8211
 15.1743  25.0727
 15.1973  25.1868
 15.2203  25.113
 15.2433  24.8912
 15.2663  24.6536
 15.2892  24.555
 15.3123  24.532
 15.3353  24.3793
 15.3583  24.3568
 15.3812  24.3382
 15.4043  24.2983
 15.4273  24.2548
 15.4503  24.3332
 15.4733  24.3338
 15.4963  24.3337
 15.5193  24.4576
 15.5423  24.4423
 15.5653  24.3892
 15.5883  24.3463
 15.6113  24.2767
 15.6343  24.3273
 15.6572  24.3964
 15.6803  24.4237
 15.7033  24.3911
 15.7263  24.3698
 15.7492  24.4058
 15.7723  24.4057
 15.7953  24.3259
 15.8183  24.2351
 15.8413  24.202
 15.8643  24.2624
 15.8873  24.3498
 15.9103  24.4299
 15.9332  24.4541
 15.9563  24.4834
 15.9793  24.5053
 16.0023  24.5271
 16.0253  24.4971
 16.0482  24.5158
 16.0713  24.4268
 16.0943  24.419
 16.1172  24.4839
 16.1403  24.4608
 16.1633  24.5357
 16.1863  24.6026
 16.2093  24.6618
 16.2323  24.8469
 16.2553  24.992
 16.2783  25.0012
 16.3012  24.8597
 16.3243  24.7203
 16.3472  24.5476
 16.3703  24.4222
 16.3933  24.4771
 16.4163  24.5425
 16.4393  24.4827
 16.4623  24.3924
 16.4853  24.4655
 16.5083  24.4183
 16.5312  24.3545
 16.5543  24.3999
 16.5773  24.4967
 16.6002  24.4662
 16.6233  24.3603
 16.6463  24.2409
 16.6693  24.2081
 16.6923  24.2403
 16.7153  24.2838
 16.7383  24.2523
 16.7613  24.2343
 16.7843  24.2494
 16.8073  24.2097
 16.8303  24.1523
 16.8533  24.1676
 16.8763  24.1882
 16.8992  24.166
 16.9223  24.1584
 16.9453  24.1703
 16.9683  24.116
 16.9913  24.12
 17.0143  24.1134
 17.0373  24.0659
 17.0603  24.0635
 17.0832  24.0611
 17.1063  24.0369
 17.1293  24.0514
 17.1522  24.0465
 17.1753  23.9903
 17.1983  24.0273
 17.2213  23.9332
 17.2443  23.8943
 17.2673  23.8377
 17.2903  23.8834
 17.3133  23.9131
 17.3362  23.9459
 17.3593  23.88
 17.3823  23.7828
 17.4053  23.7163
 17.4283  23.689
 17.4513  23.713
 17.4743  23.7652
 17.4973  23.8107
 17.5203  23.6844
 17.5433  23.6324
 17.5663  23.6113
 17.5893  23.5107
 17.6123  23.5772
 17.6352  23.6468
 17.6583  23.5529
 17.6813  23.5506
 17.7042  23.5508
 17.7273  23.5258
 17.7503  23.5215
 17.7733  23.5106
 17.7963  23.599
 17.8193  23.5564
 17.8423  23.4482
 17.8653  23.4006
 17.8882  23.4976
 17.9113  23.6095
 17.9343  23.5208
 17.9573  23.4562
 17.9803  23.4502
 18.0033  23.643
 18.0263  23.7217
 18.0493  23.6943
 18.0723  23.671
 18.0953  23.6172
 18.1183  23.5856
 18.1413  23.5819
 18.1643  23.5264
 18.1872  23.3358
 18.2103  23.2884
 18.2333  23.3461
 18.2563  23.4534
 18.2793  23.3384
 18.3023  23.3039
 18.3253  23.2564
 18.3483  23.3322
 18.3712  23.3084
 18.3943  23.3387
 18.4173  23.3778
 18.4402  23.2989
 18.4633  23.2873
 18.4863  23.3885
 18.5093  23.3646
 18.5323  23.2518
 18.5553  23.1999
 18.5783  23.2259
 18.6013  23.296
 18.6242  23.2647
 18.6473  23.2616
 18.6703  23.2007
 18.6933  23.2246
 18.7163  23.2041
 18.7392  23.1532
 18.7623  23.1222
 18.7853  23.145
 18.8083  23.2481
 18.8313  23.1974
 18.8543  23.2131
 18.8773  23.1526
 18.9003  23.1653
 18.9232  23.2755
 18.9463  23.4296
 18.9693  23.3487
 18.9922  23.1666
 19.0153  23.2418
 19.0383  23.3768
 19.0613  23.3618
 19.0843  23.4176
 19.1073  23.3431
 19.1303  23.3591
 19.1533  23.3474
 19.1762  23.2028
 19.1993  23.2718
 19.2223  23.3615
 19.2453  23.4259
 19.2683  23.4175
 19.2913  23.3333
 19.3143  23.3171
 19.3373  23.3191
 19.3603  23.254
 19.3833  23.2476
 19.4062  23.2938
 19.4293  23.2954
 19.4523  23.3204
 19.4752  23.3546
 19.4983  23.3362
 19.5213  23.3754
 19.5443  23.4064
 19.5673  23.292
 19.5903  23.2944
 19.6133  23.3435
 19.6363  23.4536
 19.6593  23.5888
 19.6823  23.685
 19.7053  23.8198
 19.7283  23.8075
 19.7513  23.6072
 19.7742  23.5872
 19.7973  23.6364
 19.8203  23.6945
 19.8433  23.9323
 19.8663  23.9781
 19.8893  23.955
 19.9123  23.9313
 19.9353  23.7463
 19.9582  23.4454
 19.9813  23.3292
 20.0043  23.3784
 20.0272  23.3151
 20.0503  23.3403
 20.0733  23.3558
 20.0963  23.4127
 20.1193  23.4856
 20.1423  23.4615
 20.1653  23.4265
 20.1883  23.4017
 20.2112  23.4802
 20.2343  23.5474
 20.2573  23.4593
 20.2803  23.4471
 20.3033  23.314
 20.3263  23.29
 20.3493  23.3807
 20.3723  23.4164
 20.3953  23.407
 20.4183  23.4258
 20.4413  23.3613
 20.4643  23.3447
 20.4873  23.4117
 20.5102  23.4366
 20.5333  23.4261
 20.5563  23.4817
 20.5792  23.4942
 20.6023  23.5307
 20.6253  23.512
 20.6483  23.536
 20.6713  23.5765
 20.6943  23.6693
 20.7173  23.814
 20.7403  23.8864
 20.7632  24.0358
 20.7863  23.9667
 20.8093  23.7979
 20.8323  23.6794
 20.8553  23.6515
 20.8783  23.6127
 20.9013  23.6041
 20.9243  23.5496
 20.9473  23.5345
 20.9703  23.4785
 20.9933  23.5842
 21.0163  23.548
 21.0393  23.5432
 21.0622  23.4841
 21.0853  23.5538
 21.1083  23.5709
 21.1313  23.675
 21.1543  23.5754
 21.1773  23.5039
 21.2003  23.5562
 21.2233  23.5728
 21.2462  23.6212
 21.2693  23.7074
 21.2923  23.6804
 21.3152  23.6324
 21.3383  23.6994
 21.3613  23.767
 21.3843  23.7196
 21.4073  23.6524
 21.4303  23.6369
 21.4533  23.5942
 21.4763  23.5883
 21.4992  23.6753
 21.5223  23.6795
 21.5453  23.6929
 21.5683  23.7333
 21.5913  23.81
 21.6142  23.806
 21.6373  23.7542
 21.6603  23.836
 21.6833  23.8727
 21.7063  23.8864
 21.7293  23.8261
 21.7523  23.8053
 21.7753  23.7913
 21.7982  23.9529
 21.8213  23.9499
 21.8443  23.9302
 21.8672  23.8456
 21.8903  23.8184
 21.9133  23.9583
 21.9363  23.9533
 21.9593  23.9269
 21.9823  23.9292
 22.0053  24.012
 22.0283  24.101
 22.0512  24.0954
 22.0743  24.0925
 22.0973  23.9841
 22.1203  24.0222
 22.1433  24.149
 22.1663  24.147
 22.1893  24.0891
 22.2123  24.0998
 22.2353  24.0789
 22.2583  24.1394
 22.2813  24.1886
 22.3043  24.3198
 22.3273  24.504
 22.3502  24.4288
 22.3733  24.3579
 22.3963  24.2773
 22.4193  24.2827
 22.4423  24.3919
 22.4653  24.3939
 22.4883  24.3635
 22.5113  24.4356
 22.5343  24.4941
 22.5573  24.4954
 22.5803  24.4929
 22.6033  24.5397
 22.6263  24.6472
 22.6493  24.6266
 22.6723  24.6519
 22.6953  24.774
 22.7183  24.8378
 22.7413  24.9677
 22.7643  24.9582
 22.7873  24.8969
 22.8103  24.9751
 22.8333  25.1061
 22.8563  25.1957
 22.8793  25.3248
 22.9022  25.422
 22.9253  25.5092
 22.9483  25.6534
 22.9713  25.8339
 22.9943  25.9658