File: test-data-xrd/xrd-map-34-ID-E/Data_0062.chi
F:\20151113_APS_34IDE\\Brian\Particle1\OCV\Data_0062.tif
2-Theta Angle (Degrees)
Intensity
       2000
 0.01725  0.0000000E+00
 0.04025  0.0000000E+00
 0.06325  0.0000000E+00
 0.08625  0.0000000E+00
 0.10925  0.0000000E+00
 0.13225  0.0000000E+00
 0.15525  0.0000000E+00
 0.17825  0.0000000E+00
 0.20125  0.0000000E+00
 0.22425  0.0000000E+00
 0.24725  0.0000000E+00
 0.27025  0.0000000E+00
 0.29325  0.0000000E+00
 0.31625  0.0000000E+00
 0.33925  0.0000000E+00
 0.36225  0.0000000E+00
 0.38525  0.0000000E+00
 0.40825  0.0000000E+00
 0.43125  0.0000000E+00
 0.45425  0.0000000E+00
 0.47725  0.0000000E+00
 0.50025  0.0000000E+00
 0.52325  0.0000000E+00
 0.54625  0.0000000E+00
 0.56925  0.0000000E+00
 0.59225  0.0000000E+00
 0.61525  0.0000000E+00
 0.63825  0.0000000E+00
 0.66125  0.0000000E+00
 0.68425  0.0000000E+00
 0.70725  0.0000000E+00
 0.73025  0.0000000E+00
 0.75325  0.0000000E+00
 0.77625  0.0000000E+00
 0.79925  0.0000000E+00
 0.82225  0.0000000E+00
 0.84525  0.0000000E+00
 0.86825  0.0000000E+00
 0.89125  0.0000000E+00
 0.91425  0.0000000E+00
 0.93725  0.0000000E+00
 0.96025  0.0000000E+00
 0.98325  0.0000000E+00
 1.00625  0.0000000E+00
 1.02925  0.0000000E+00
 1.05225  0.0000000E+00
 1.07525  0.0000000E+00
 1.09825  0.0000000E+00
 1.12125  0.0000000E+00
 1.14425  0.0000000E+00
 1.16725  0.0000000E+00
 1.19025  0.0000000E+00
 1.21325  0.0000000E+00
 1.23625  0.0000000E+00
 1.25925  0.0000000E+00
 1.28225  0.0000000E+00
 1.30525  0.0000000E+00
 1.32825  0.0000000E+00
 1.35125  0.0000000E+00
 1.37425  0.0000000E+00
 1.39725  0.0000000E+00
 1.42025  0.0000000E+00
 1.44325  0.0000000E+00
 1.46625  0.0000000E+00
 1.48925  0.0000000E+00
 1.51225  0.0000000E+00
 1.53525  0.0000000E+00
 1.55825  0.0000000E+00
 1.58125  0.0000000E+00
 1.60425  0.0000000E+00
 1.62725  0.0000000E+00
 1.65025  0.0000000E+00
 1.67325  0.0000000E+00
 1.69625  0.0000000E+00
 1.71925  0.0000000E+00
 1.74225  0.0000000E+00
 1.76525  0.0000000E+00
 1.78825  0.0000000E+00
 1.81125  0.0000000E+00
 1.83425  0.0000000E+00
 1.85725  0.0000000E+00
 1.88025  0.0000000E+00
 1.90325  0.0000000E+00
 1.92625  0.0000000E+00
 1.94925  0.0000000E+00
 1.97225  0.0000000E+00
 1.99525  0.0000000E+00
 2.01825  0.0000000E+00
 2.04125  0.0000000E+00
 2.06425  0.0000000E+00
 2.08725  0.0000000E+00
 2.11025  0.0000000E+00
 2.13325  0.0000000E+00
 2.15625  0.0000000E+00
 2.17925  0.0000000E+00
 2.20225  0.0000000E+00
 2.22525  0.0000000E+00
 2.24825  0.0000000E+00
 2.27125  0.0000000E+00
 2.29425  0.0000000E+00
 2.31725  0.0000000E+00
 2.34025  0.0000000E+00
 2.36325  0.0000000E+00
 2.38625  0.0000000E+00
 2.40925  0.0000000E+00
 2.43225  0.0000000E+00
 2.45525  0.0000000E+00
 2.47825  0.0000000E+00
 2.50125  0.0000000E+00
 2.52425  0.0000000E+00
 2.54725  0.0000000E+00
 2.57025  0.0000000E+00
 2.59325  0.0000000E+00
 2.61625  0.0000000E+00
 2.63925  0.0000000E+00
 2.66225  0.0000000E+00
 2.68525  0.0000000E+00
 2.70825  0.0000000E+00
 2.73125  0.0000000E+00
 2.75425  0.0000000E+00
 2.77725  0.0000000E+00
 2.80025  0.0000000E+00
 2.82325  29.8431
 2.84625  31.1776
 2.86925  32.2745
 2.89225  33.6459
 2.91525  34.4452
 2.93825  34.9592
 2.96125  34.5604
 2.98425  34.4491
 3.00725  35.7435
 3.03025  35.5704
 3.05325  34.4983
 3.07625  34.5714
 3.09925  35.4204
 3.12225  34.8859
 3.14525  34.5526
 3.16825  34.3443
 3.19125  34.5733
 3.21425  34.8465
 3.23725  34.8925
 3.26025  34.5316
 3.28325  34.9493
 3.30625  34.2234
 3.32925  34.0003
 3.35225  33.9233
 3.37525  34.191
 3.39825  34.5734
 3.42125  34.2702
 3.44425  33.9136
 3.46725  34.1606
 3.49025  34.0531
 3.51325  33.641
 3.53625  33.5451
 3.55925  33.4004
 3.58225  33.0155
 3.60525  33.0763
 3.62825  33.4183
 3.65125  33.4115
 3.67425  33.2382
 3.69725  33.3239
 3.72025  33.0525
 3.74325  32.6092
 3.76625  32.5018
 3.78925  32.5459
 3.81225  32.5401
 3.83525  32.4608
 3.85825  32.2634
 3.88125  32.3685
 3.90425  32.3455
 3.92725  32.1869
 3.95025  32.1632
 3.97325  32.1887
 3.99625  32.1167
 4.01925  31.7526
 4.04225  31.5771
 4.06525  31.8242
 4.08825  31.812
 4.11125  32.1351
 4.13425  31.8966
 4.15725  31.7395
 4.18025  31.5493
 4.20325  31.7269
 4.22625  31.6819
 4.24925  31.7065
 4.27225  31.8003
 4.29525  31.9702
 4.31825  31.9879
 4.34125  31.9231
 4.36425  31.9292
 4.38725  32.0802
 4.41025  32.3079
 4.43325  32.2514
 4.45625  32.1866
 4.47925  32.1897
 4.50225  32.2102
 4.52525  32.4128
 4.54825  32.5251
 4.57125  32.5077
 4.59425  32.5521
 4.61725  32.5892
 4.64025  32.5204
 4.66325  32.5303
 4.68625  32.3281
 4.70925  32.4077
 4.73225  32.5287
 4.75525  32.3374
 4.77825  32.1465
 4.80125  32.3019
 4.82425  32.4424
 4.84725  32.4272
 4.87025  32.4314
 4.89325  32.1548
 4.91625  32.2205
 4.93925  32.405
 4.96225  32.6789
 4.98525  32.9374
 5.00825  33.1045
 5.03125  33.1217
 5.05425  33.2441
 5.07725  33.4661
 5.10025  33.475
 5.12325  33.4201
 5.14625  33.4914
 5.16925  33.5072
 5.19225  33.6107
 5.21525  33.6918
 5.23825  33.6562
 5.26125  33.9015
 5.28425  33.8547
 5.30725  33.7692
 5.33025  33.6449
 5.35325  33.6431
 5.37625  33.8527
 5.39925  34.1285
 5.42225  34.1463
 5.44525  33.9858
 5.46825  34.1347
 5.49125  34.482
 5.51425  34.831
 5.53725  34.8858
 5.56025  34.624
 5.58325  34.7103
 5.60625  34.8253
 5.62925  34.7911
 5.65225  34.7496
 5.67525  35.0009
 5.69825  35.1415
 5.72125  35.2744
 5.74425  35.209
 5.76725  35.1305
 5.79025  35.2722
 5.81325  35.5237
 5.83625  35.7791
 5.85925  35.848
 5.88225  36.2712
 5.90525  37.3572
 5.92825  39.3847
 5.95125  44.7674
 5.97425  54.3078
 5.99725  60.6595
 6.02025  56.5108
 6.04325  45.0156
 6.06625  39.2422
 6.08925  37.5139
 6.11225  36.9637
 6.13525  36.5073
 6.15825  36.5555
 6.18125  36.708
 6.20425  36.8469
 6.22725  36.9896
 6.25025  37.1223
 6.27325  37.3104
 6.29625  37.3902
 6.31925  37.3545
 6.34225  37.5981
 6.36525  37.7783
 6.38825  37.8774
 6.41125  37.925
 6.43425  38.0952
 6.45725  38.3689
 6.48025  38.6009
 6.50325  38.7689
 6.52625  38.801
 6.54925  38.8056
 6.57225  38.8583
 6.59525  39.1069
 6.61825  39.4234
 6.64125  39.5951
 6.66425  39.6847
 6.68725  39.7263
 6.71025  39.7609
 6.73325  40.1108
 6.75625  40.4089
 6.77925  40.6335
 6.80225  40.742
 6.82525  40.9592
 6.84825  41.2409
 6.87125  41.4055
 6.89425  41.4572
 6.91725  41.6119
 6.94025  41.8399
 6.96325  41.8558
 6.98625  42.0372
 7.00925  41.981
 7.03225  41.9459
 7.05525  42.1216
 7.07825  42.2679
 7.10125  42.3562
 7.12425  42.4072
 7.14725  42.57
 7.17025  42.9086
 7.19325  43.1498
 7.21625  43.345
 7.23925  43.4124
 7.26225  43.4214
 7.28525  43.244
 7.30825  43.2062
 7.33125  43.2416
 7.35425  43.3316
 7.37725  43.4929
 7.40025  43.4471
 7.42325  43.5942
 7.44625  43.5538
 7.46925  43.6063
 7.49225  43.6862
 7.51525  43.9143
 7.53825  43.8806
 7.56125  43.7171
 7.58425  43.7051
 7.60725  43.7454
 7.63025  43.772
 7.65325  43.6374
 7.67625  43.5465
 7.69925  43.597
 7.72225  43.84
 7.74525  43.8701
 7.76825  43.7755
 7.79125  43.6478
 7.81425  43.5497
 7.83725  43.455
 7.86025  43.408
 7.88325  43.4022
 7.90625  43.323
 7.92925  43.2157
 7.95225  43.1848
 7.97525  43.0023
 7.99825  43.0069
 8.02125  43.0186
 8.04425  42.8871
 8.06725  42.6995
 8.09025  42.5192
 8.11325  42.3318
 8.13625  42.244
 8.15925  42.1496
 8.18225  41.7106
 8.20525  41.4161
 8.22825  40.9137
 8.25125  40.6522
 8.27425  40.4775
 8.29725  40.4453
 8.32025  40.2645
 8.34325  39.7619
 8.36625  39.4223
 8.38925  39.2902
 8.41225  39.0219
 8.43525  38.6158
 8.45825  38.2239
 8.48125  37.9128
 8.50425  37.5449
 8.52725  37.2434
 8.55025  36.8588
 8.57325  36.4454
 8.59625  36.1998
 8.61925  35.9576
 8.64225  35.6123
 8.66525  35.2151
 8.68825  34.8132
 8.71125  34.602
 8.73425  34.1648
 8.75725  33.7452
 8.78025  33.4961
 8.80325  33.2003
 8.82625  32.9315
 8.84925  32.5386
 8.87225  32.2531
 8.89525  31.8557
 8.91825  31.5254
 8.94125  31.2073
 8.96425  30.9878
 8.98725  30.7441
 9.01025  30.3775
 9.03325  30.0905
 9.05625  29.8393
 9.07925  29.5805
 9.10225  29.419
 9.12525  29.1585
 9.14825  28.9679
 9.17125  28.9087
 9.19425  28.7544
 9.21725  28.4415
 9.24025  28.1596
 9.26325  27.8462
 9.28625  27.648
 9.30925  27.5162
 9.33225  27.3592
 9.35525  27.1562
 9.37825  27.0831
 9.40125  26.9749
 9.42425  26.7619
 9.44725  26.4429
 9.47025  26.3809
 9.49325  26.4981
 9.51625  26.4722
 9.53925  26.3994
 9.56225  26.2015
 9.58525  25.9284
 9.60825  25.8824
 9.63125  25.8263
 9.65425  25.5711
 9.67725  25.3343
 9.70025  25.1722
 9.72325  25.1824
 9.74625  25.1972
 9.76925  25.0449
 9.79225  24.9838
 9.81525  24.9637
 9.83825  24.6863
 9.86125  24.4948
 9.88425  24.3996
 9.90725  24.3738
 9.93025  24.3219
 9.95325  24.2796
 9.97625  24.2529
 9.99925  24.186
 10.0222  24.0602
 10.0453  23.9477
 10.0683  23.9319
 10.0913  23.8308
 10.1143  23.8957
 10.1373  23.9278
 10.1603  23.8731
 10.1832  23.8025
 10.2063  23.7357
 10.2293  23.647
 10.2523  23.4812
 10.2752  23.5633
 10.2982  23.6782
 10.3213  23.6353
 10.3443  23.483
 10.3673  23.301
 10.3902  23.3519
 10.4133  23.4433
 10.4363  23.2822
 10.4593  23.1678
 10.4823  23.1972
 10.5053  23.2417
 10.5283  23.1097
 10.5512  22.998
 10.5742  23.0317
 10.5973  22.9818
 10.6203  22.9998
 10.6433  23.1072
 10.6662  23.0792
 10.6893  22.9684
 10.7123  22.9117
 10.7353  22.822
 10.7583  22.8079
 10.7813  22.8159
 10.8043  22.7574
 10.8272  22.6981
 10.8503  22.7324
 10.8733  22.6745
 10.8963  22.5749
 10.9192  22.6277
 10.9422  22.5293
 10.9653  22.5115
 10.9883  22.457
 11.0113  22.4908
 11.0343  22.4841
 11.0573  22.3639
 11.0803  22.3521
 11.1033  22.3842
 11.1263  22.4618
 11.1493  22.457
 11.1723  22.419
 11.1953  22.3199
 11.2182  22.3781
 11.2413  22.3343
 11.2643  22.436
 11.2873  22.4801
 11.3102  22.4502
 11.3333  22.4664
 11.3563  22.4623
 11.3793  22.569
 11.4023  22.8002
 11.4253  22.8539
 11.4483  22.8779
 11.4713  22.8914
 11.4942  22.9698
 11.5173  23.1485
 11.5403  23.9356
 11.5633  25.8909
 11.5862  28.9238
 11.6093  29.1161
 11.6323  26.5548
 11.6553  24.203
 11.6783  23.1745
 11.7013  22.7048
 11.7243  22.6192
 11.7473  22.5334
 11.7703  22.5169
 11.7933  22.6889
 11.8163  22.7927
 11.8393  22.6796
 11.8622  22.547
 11.8853  22.52
 11.9083  22.6935
 11.9313  22.9721
 11.9543  23.4339
 11.9773  23.862
 12.0003  23.9609
 12.0233  23.6813
 12.0463  23.6949
 12.0693  24.332
 12.0923  25.2663
 12.1153  25.3961
 12.1382  24.8146
 12.1613  23.789
 12.1843  23.0906
 12.2073  22.7361
 12.2302  22.533
 12.2533  22.5388
 12.2763  22.6322
 12.2993  22.599
 12.3223  22.5301
 12.3453  22.5794
 12.3683  22.583
 12.3913  22.5937
 12.4142  22.601
 12.4373  22.5981
 12.4603  22.5774
 12.4833  22.5619
 12.5062  22.5627
 12.5292  22.6795
 12.5523  22.775
 12.5753  22.7401
 12.5983  22.7862
 12.6212  22.8046
 12.6443  22.8325
 12.6673  22.7747
 12.6903  22.7379
 12.7133  22.7441
 12.7363  22.7943
 12.7593  22.7817
 12.7822  22.8501
 12.8052  22.991
 12.8283  23.1344
 12.8513  23.1532
 12.8742  23.2065
 12.8972  23.2477
 12.9203  23.3847
 12.9433  23.5916
 12.9663  23.6774
 12.9893  23.789
 13.0123  23.9693
 13.0353  24.0529
 13.0582  24.275
 13.0813  24.4732
 13.1043  24.7392
 13.1273  24.9955
 13.1502  25.3072
 13.1732  25.6474
 13.1963  25.8706
 13.2193  26.1178
 13.2423  26.3166
 13.2652  26.3563
 13.2883  26.6411
 13.3113  26.958
 13.3343  27.2364
 13.3573  27.5647
 13.3803  27.8547
 13.4033  28.0796
 13.4262  28.3308
 13.4492  28.5816
 13.4723  28.8544
 13.4953  28.894
 13.5183  29.0664
 13.5412  29.2608
 13.5643  29.4222
 13.5873  29.5156
 13.6103  29.4785
 13.6333  29.4186
 13.6563  29.4491
 13.6793  29.4752
 13.7022  29.4282
 13.7253  29.4436
 13.7483  29.3664
 13.7713  29.2638
 13.7942  29.2603
 13.8172  29.2371
 13.8403  29.2778
 13.8633  29.5986
 13.8863  30.6091
 13.9093  33.0261
 13.9323  36.187
 13.9553  37.8199
 13.9783  36.1384
 14.0013  32.4809
 14.0243  29.658
 14.0473  28.235
 14.0703  27.6816
 14.0932  27.4086
 14.1163  27.2264
 14.1393  27.0921
 14.1623  26.8798
 14.1852  26.656
 14.2083  26.5955
 14.2313  26.517
 14.2543  26.3541
 14.2773  26.2974
 14.3003  26.197
 14.3233  26.1187
 14.3463  26.0659
 14.3692  26.1034
 14.3923  26.0361
 14.4153  25.8509
 14.4383  25.7187
 14.4612  25.7107
 14.4843  25.7401
 14.5073  25.7462
 14.5303  25.6117
 14.5533  25.5192
 14.5763  25.3818
 14.5993  25.1984
 14.6223  25.198
 14.6453  25.1538
 14.6683  25.1174
 14.6913  25.0562
 14.7143  25.0987
 14.7372  25.1837
 14.7603  25.2176
 14.7833  25.1744
 14.8063  25.0785
 14.8293  25.0445
 14.8523  25.0939
 14.8753  25.0066
 14.8983  24.9264
 14.9213  24.9537
 14.9443  24.836
 14.9673  24.7949
 14.9903  24.7321
 15.0132  24.806
 15.0363  24.8508
 15.0593  24.8483
 15.0823  24.7976
 15.1052  24.8692
 15.1283  25.1282
 15.1513  25.84
 15.1743  27.1602
 15.1973  27.9028
 15.2203  27.5806
 15.2433  26.2317
 15.2663  25.2956
 15.2892  24.8884
 15.3123  24.7544
 15.3353  24.7129
 15.3583  24.6558
 15.3812  24.4862
 15.4043  24.4327
 15.4273  24.4062
 15.4503  24.4482
 15.4733  24.5141
 15.4963  24.4682
 15.5193  24.4448
 15.5423  24.4592
 15.5653  24.4904
 15.5883  24.4743
 15.6113  24.3875
 15.6343  24.3432
 15.6572  24.5507
 15.6803  24.5664
 15.7033  24.5386
 15.7263  24.4971
 15.7492  24.4395
 15.7723  24.422
 15.7953  24.4362
 15.8183  24.5198
 15.8413  24.4644
 15.8643  24.4975
 15.8873  24.6438
 15.9103  24.7826
 15.9332  24.7126
 15.9563  24.5699
 15.9793  24.6163
 16.0023  24.582
 16.0253  24.5207
 16.0482  24.638
 16.0713  24.5892
 16.0943  24.6164
 16.1172  24.719
 16.1403  24.7168
 16.1633  24.7718
 16.1863  24.8658
 16.2093  25.087
 16.2323  25.3949
 16.2553  25.6664
 16.2783  25.6235
 16.3012  25.2804
 16.3243  25.0145
 16.3472  24.7454
 16.3703  24.6222
 16.3933  24.5718
 16.4163  24.5871
 16.4393  24.6401
 16.4623  24.6641
 16.4853  24.6316
 16.5083  24.6548
 16.5312  24.5758
 16.5543  24.529
 16.5773  24.5109
 16.6002  24.5181
 16.6233  24.4288
 16.6463  24.4183
 16.6693  24.5065
 16.6923  24.5711
 16.7153  24.5087
 16.7383  24.3944
 16.7613  24.3764
 16.7843  24.4128
 16.8073  24.4538
 16.8303  24.4107
 16.8533  24.3373
 16.8763  24.2668
 16.8992  24.3067
 16.9223  24.3325
 16.9453  24.3329
 16.9683  24.3437
 16.9913  24.32
 17.0143  24.2775
 17.0373  24.2501
 17.0603  24.2036
 17.0832  24.2181
 17.1063  24.2221
 17.1293  24.165
 17.1522  24.1867
 17.1753  24.1791
 17.1983  24.0836
 17.2213  24.0242
 17.2443  24.0909
 17.2673  24.0213
 17.2903  24.0753
 17.3133  24.1569
 17.3362  24.0637
 17.3593  23.987
 17.3823  23.9167
 17.4053  24.0278
 17.4283  24.0368
 17.4513  24.0191
 17.4743  23.9525
 17.4973  23.9449
 17.5203  23.8431
 17.5433  23.8605
 17.5663  23.8448
 17.5893  23.8393
 17.6123  23.8424
 17.6352  23.8352
 17.6583  23.8197
 17.6813  23.7959
 17.7042  23.8012
 17.7273  23.799
 17.7503  23.6979
 17.7733  23.7032
 17.7963  23.7444
 17.8193  23.6945
 17.8423  23.7719
 17.8653  23.8271
 17.8882  23.7841
 17.9113  23.8519
 17.9343  23.9748
 17.9573  24.0205
 17.9803  24.0956
 18.0033  24.3649
 18.0263  24.7767
 18.0493  25.2598
 18.0723  25.7472
 18.0953  26.2112
 18.1183  26.1255
 18.1413  25.4877
 18.1643  24.5364
 18.1872  24.0319
 18.2103  23.784
 18.2333  23.6496
 18.2563  23.6438
 18.2793  23.6562
 18.3023  23.6272
 18.3253  23.6454
 18.3483  23.6944
 18.3712  23.6227
 18.3943  23.6456
 18.4173  23.6701
 18.4402  23.5618
 18.4633  23.5757
 18.4863  23.6821
 18.5093  23.7189
 18.5323  23.6002
 18.5553  23.5639
 18.5783  23.5655
 18.6013  23.6276
 18.6242  23.5701
 18.6473  23.519
 18.6703  23.4497
 18.6933  23.4904
 18.7163  23.4956
 18.7392  23.4626
 18.7623  23.4846
 18.7853  23.5097
 18.8083  23.578
 18.8313  23.5355
 18.8543  23.4474
 18.8773  23.4295
 18.9003  23.5155
 18.9232  23.6011
 18.9463  23.6094
 18.9693  23.5638
 18.9922  23.4997
 19.0153  23.5378
 19.0383  23.5782
 19.0613  23.4992
 19.0843  23.5359
 19.1073  23.5195
 19.1303  23.4517
 19.1533  23.5527
 19.1762  23.5192
 19.1993  23.503
 19.2223  23.5276
 19.2453  23.553
 19.2683  23.5751
 19.2913  23.5523
 19.3143  23.5701
 19.3373  23.6692
 19.3603  23.6156
 19.3833  23.629
 19.4062  23.6721
 19.4293  23.6525
 19.4523  23.6579
 19.4752  23.6718
 19.4983  23.6513
 19.5213  23.7349
 19.5443  23.9085
 19.5673  23.9242
 19.5903  23.9785
 19.6133  24.1304
 19.6363  24.5707
 19.6593  25.6394
 19.6823  27.5326
 19.7053  28.509
 19.7283  27.8128
 19.7513  26.4232
 19.7742  25.5808
 19.7973  25.8604
 19.8203  27.4232
 19.8433  29.1124
 19.8663  28.8589
 19.8893  27.4404
 19.9123  25.9809
 19.9353  24.789
 19.9582  24.1865
 19.9813  24.0435
 20.0043  23.9666
 20.0272  23.9535
 20.0503  23.9663
 20.0733  23.9115
 20.0963  23.9015
 20.1193  23.7936
 20.1423  23.7777
 20.1653  23.8199
 20.1883  23.862
 20.2112  23.8371
 20.2343  23.8049
 20.2573  23.7219
 20.2803  23.7223
 20.3033  23.8343
 20.3263  23.8445
 20.3493  23.8339
 20.3723  23.8019
 20.3953  23.8052
 20.4183  23.9036
 20.4413  23.8942
 20.4643  23.8582
 20.4873  23.7995
 20.5102  23.8041
 20.5333  23.7521
 20.5563  23.8179
 20.5792  23.8434
 20.6023  23.8822
 20.6253  23.953
 20.6483  24.0573
 20.6713  24.2514
 20.6943  24.7377
 20.7173  25.6292
 20.7403  26.5472
 20.7632  26.7817
 20.7863  26.2665
 20.8093  25.3543
 20.8323  24.5623
 20.8553  24.2391
 20.8783  24.1865
 20.9013  24.0963
 20.9243  24.1056
 20.9473  24.143
 20.9703  24.0149
 20.9933  23.9742
 21.0163  23.9721
 21.0393  23.9787
 21.0622  23.973
 21.0853  24.0426
 21.1083  24.0414
 21.1313  24.0237
 21.1543  23.9096
 21.1773  23.9441
 21.2003  23.8968
 21.2233  23.9087
 21.2462  23.9522
 21.2693  23.9498
 21.2923  23.89
 21.3152  23.8207
 21.3383  23.8376
 21.3613  23.9271
 21.3843  23.8982
 21.4073  23.8258
 21.4303  23.8421
 21.4533  23.8265
 21.4763  23.8232
 21.4992  23.911
 21.5223  23.9755
 21.5453  23.9885
 21.5683  23.9892
 21.5913  24.0838
 21.6142  24.1378
 21.6373  24.0931
 21.6603  24.0199
 21.6833  23.9945
 21.7063  24.0583
 21.7293  24.1281
 21.7523  24.1059
 21.7753  24.0524
 21.7982  24.1087
 21.8213  24.0985
 21.8443  24.1191
 21.8672  24.2644
 21.8903  24.3829
 21.9133  24.3092
 21.9363  24.132
 21.9593  24.0742
 21.9823  24.0928
 22.0053  24.143
 22.0283  24.2385
 22.0512  24.2506
 22.0743  24.2371
 22.0973  24.2374
 22.1203  24.3248
 22.1433  24.3519
 22.1663  24.2942
 22.1893  24.3192
 22.2123  24.3759
 22.2353  24.3573
 22.2583  24.4255
 22.2813  24.5223
 22.3043  24.5482
 22.3273  24.4773
 22.3502  24.4248
 22.3733  24.4854
 22.3963  24.5372
 22.4193  24.542
 22.4423  24.6412
 22.4653  24.6604
 22.4883  24.6142
 22.5113  24.7585
 22.5343  24.8564
 22.5573  24.9345
 22.5803  24.82
 22.6033  24.885
 22.6263  25.0133
 22.6493  25.0126
 22.6723  25.0597
 22.6953  25.1561
 22.7183  25.2079
 22.7413  25.2389
 22.7643  25.3667
 22.7873  25.3258
 22.8103  25.4232
 22.8333  25.4584
 22.8563  25.6121
 22.8793  25.7058
 22.9022  25.7893
 22.9253  25.9302
 22.9483  26.0807
 22.9713  26.4562
 22.9943  26.6611