File: test-data-xrd/xrd-map-34-ID-E/Data_0037.chi
F:\20151113_APS_34IDE\\Brian\Particle1\OCV\Data_0037.tif
2-Theta Angle (Degrees)
Intensity
       2000
 0.01725  0.0000000E+00
 0.04025  0.0000000E+00
 0.06325  0.0000000E+00
 0.08625  0.0000000E+00
 0.10925  0.0000000E+00
 0.13225  0.0000000E+00
 0.15525  0.0000000E+00
 0.17825  0.0000000E+00
 0.20125  0.0000000E+00
 0.22425  0.0000000E+00
 0.24725  0.0000000E+00
 0.27025  0.0000000E+00
 0.29325  0.0000000E+00
 0.31625  0.0000000E+00
 0.33925  0.0000000E+00
 0.36225  0.0000000E+00
 0.38525  0.0000000E+00
 0.40825  0.0000000E+00
 0.43125  0.0000000E+00
 0.45425  0.0000000E+00
 0.47725  0.0000000E+00
 0.50025  0.0000000E+00
 0.52325  0.0000000E+00
 0.54625  0.0000000E+00
 0.56925  0.0000000E+00
 0.59225  0.0000000E+00
 0.61525  0.0000000E+00
 0.63825  0.0000000E+00
 0.66125  0.0000000E+00
 0.68425  0.0000000E+00
 0.70725  0.0000000E+00
 0.73025  0.0000000E+00
 0.75325  0.0000000E+00
 0.77625  0.0000000E+00
 0.79925  0.0000000E+00
 0.82225  0.0000000E+00
 0.84525  0.0000000E+00
 0.86825  0.0000000E+00
 0.89125  0.0000000E+00
 0.91425  0.0000000E+00
 0.93725  0.0000000E+00
 0.96025  0.0000000E+00
 0.98325  0.0000000E+00
 1.00625  0.0000000E+00
 1.02925  0.0000000E+00
 1.05225  0.0000000E+00
 1.07525  0.0000000E+00
 1.09825  0.0000000E+00
 1.12125  0.0000000E+00
 1.14425  0.0000000E+00
 1.16725  0.0000000E+00
 1.19025  0.0000000E+00
 1.21325  0.0000000E+00
 1.23625  0.0000000E+00
 1.25925  0.0000000E+00
 1.28225  0.0000000E+00
 1.30525  0.0000000E+00
 1.32825  0.0000000E+00
 1.35125  0.0000000E+00
 1.37425  0.0000000E+00
 1.39725  0.0000000E+00
 1.42025  0.0000000E+00
 1.44325  0.0000000E+00
 1.46625  0.0000000E+00
 1.48925  0.0000000E+00
 1.51225  0.0000000E+00
 1.53525  0.0000000E+00
 1.55825  0.0000000E+00
 1.58125  0.0000000E+00
 1.60425  0.0000000E+00
 1.62725  0.0000000E+00
 1.65025  0.0000000E+00
 1.67325  0.0000000E+00
 1.69625  0.0000000E+00
 1.71925  0.0000000E+00
 1.74225  0.0000000E+00
 1.76525  0.0000000E+00
 1.78825  0.0000000E+00
 1.81125  0.0000000E+00
 1.83425  0.0000000E+00
 1.85725  0.0000000E+00
 1.88025  0.0000000E+00
 1.90325  0.0000000E+00
 1.92625  0.0000000E+00
 1.94925  0.0000000E+00
 1.97225  0.0000000E+00
 1.99525  0.0000000E+00
 2.01825  0.0000000E+00
 2.04125  0.0000000E+00
 2.06425  0.0000000E+00
 2.08725  0.0000000E+00
 2.11025  0.0000000E+00
 2.13325  0.0000000E+00
 2.15625  0.0000000E+00
 2.17925  0.0000000E+00
 2.20225  0.0000000E+00
 2.22525  0.0000000E+00
 2.24825  0.0000000E+00
 2.27125  0.0000000E+00
 2.29425  0.0000000E+00
 2.31725  0.0000000E+00
 2.34025  0.0000000E+00
 2.36325  0.0000000E+00
 2.38625  0.0000000E+00
 2.40925  0.0000000E+00
 2.43225  0.0000000E+00
 2.45525  0.0000000E+00
 2.47825  0.0000000E+00
 2.50125  0.0000000E+00
 2.52425  0.0000000E+00
 2.54725  0.0000000E+00
 2.57025  0.0000000E+00
 2.59325  0.0000000E+00
 2.61625  0.0000000E+00
 2.63925  0.0000000E+00
 2.66225  0.0000000E+00
 2.68525  0.0000000E+00
 2.70825  0.0000000E+00
 2.73125  0.0000000E+00
 2.75425  0.0000000E+00
 2.77725  0.0000000E+00
 2.80025  0.0000000E+00
 2.82325  29.3959
 2.84625  32.1389
 2.86925  33.4954
 2.89225  34.0413
 2.91525  35.1736
 2.93825  35.9923
 2.96125  35.7728
 2.98425  35.4113
 3.00725  35.6583
 3.03025  35.6317
 3.05325  35.2628
 3.07625  35.5021
 3.09925  36.0039
 3.12225  35.7057
 3.14525  34.8558
 3.16825  34.7129
 3.19125  34.9956
 3.21425  35.2866
 3.23725  35.3281
 3.26025  35.2052
 3.28325  35.0332
 3.30625  35.0059
 3.32925  34.7183
 3.35225  34.5793
 3.37525  34.0333
 3.39825  33.398
 3.42125  33.0778
 3.44425  33.6007
 3.46725  33.9476
 3.49025  33.9861
 3.51325  33.7224
 3.53625  33.3125
 3.55925  33.2541
 3.58225  32.8479
 3.60525  32.7888
 3.62825  32.9244
 3.65125  33.1903
 3.67425  32.7639
 3.69725  32.494
 3.72025  32.1
 3.74325  32.3056
 3.76625  32.5842
 3.78925  32.416
 3.81225  32.1778
 3.83525  32.0046
 3.85825  32.5527
 3.88125  32.5493
 3.90425  32.1147
 3.92725  31.6895
 3.95025  31.6428
 3.97325  32.1027
 3.99625  32.214
 4.01925  32.0961
 4.04225  31.8353
 4.06525  31.7744
 4.08825  31.6854
 4.11125  31.646
 4.13425  31.5638
 4.15725  31.7488
 4.18025  32.0044
 4.20325  32.3348
 4.22625  32.2879
 4.24925  32.1614
 4.27225  32.087
 4.29525  32.1007
 4.31825  32.0776
 4.34125  31.9537
 4.36425  31.7761
 4.38725  31.8957
 4.41025  32.2722
 4.43325  32.4935
 4.45625  32.664
 4.47925  32.6397
 4.50225  32.6191
 4.52525  32.8114
 4.54825  32.8028
 4.57125  32.6348
 4.59425  32.5322
 4.61725  32.5037
 4.64025  32.7039
 4.66325  32.8678
 4.68625  32.8606
 4.70925  32.9664
 4.73225  32.5985
 4.75525  32.1091
 4.77825  32.0042
 4.80125  31.9318
 4.82425  32.1573
 4.84725  32.3882
 4.87025  32.4188
 4.89325  32.4248
 4.91625  32.804
 4.93925  32.9153
 4.96225  32.8735
 4.98525  32.8683
 5.00825  33.0908
 5.03125  33.1191
 5.05425  32.9915
 5.07725  32.9696
 5.10025  33.0631
 5.12325  33.2189
 5.14625  33.3586
 5.16925  33.2361
 5.19225  33.2453
 5.21525  33.271
 5.23825  33.5213
 5.26125  33.838
 5.28425  34.1406
 5.30725  34.1987
 5.33025  34.3567
 5.35325  34.3156
 5.37625  34.355
 5.39925  34.3369
 5.42225  34.4338
 5.44525  34.4734
 5.46825  34.6882
 5.49125  34.6978
 5.51425  34.8013
 5.53725  34.7893
 5.56025  34.7233
 5.58325  34.9635
 5.60625  35.3625
 5.62925  35.5717
 5.65225  35.5511
 5.67525  35.7326
 5.69825  35.8368
 5.72125  36.0477
 5.74425  36.2642
 5.76725  36.2838
 5.79025  36.3571
 5.81325  36.3586
 5.83625  36.537
 5.85925  37.0285
 5.88225  38.2515
 5.90525  40.949
 5.92825  48.6582
 5.95125  68.1367
 5.97425  93.6106
 5.99725  97.9243
 6.02025  73.4906
 6.04325  50.493
 6.06625  41.9222
 6.08925  39.3533
 6.11225  38.3357
 6.13525  37.6729
 6.15825  37.3851
 6.18125  37.3714
 6.20425  37.3946
 6.22725  37.3947
 6.25025  37.4446
 6.27325  37.6426
 6.29625  37.7456
 6.31925  37.8111
 6.34225  37.965
 6.36525  38.11
 6.38825  38.253
 6.41125  38.3133
 6.43425  38.2594
 6.45725  38.4091
 6.48025  38.6132
 6.50325  38.8311
 6.52625  39.1108
 6.54925  39.2076
 6.57225  39.3943
 6.59525  39.6317
 6.61825  39.7965
 6.64125  39.8467
 6.66425  39.929
 6.68725  39.9471
 6.71025  40.1095
 6.73325  40.201
 6.75625  40.2607
 6.77925  40.4307
 6.80225  40.6336
 6.82525  40.9017
 6.84825  41.1683
 6.87125  41.3545
 6.89425  41.5083
 6.91725  41.7107
 6.94025  41.7735
 6.96325  41.8771
 6.98625  41.9534
 7.00925  41.9654
 7.03225  42.1841
 7.05525  42.4498
 7.07825  42.5098
 7.10125  42.5976
 7.12425  42.8693
 7.14725  43.0489
 7.17025  43.2698
 7.19325  43.4805
 7.21625  43.4645
 7.23925  43.4966
 7.26225  43.4424
 7.28525  43.4621
 7.30825  43.3219
 7.33125  43.4861
 7.35425  43.6559
 7.37725  43.704
 7.40025  43.7181
 7.42325  43.9557
 7.44625  43.9913
 7.46925  44.0718
 7.49225  44.2668
 7.51525  44.3687
 7.53825  44.1199
 7.56125  44.1763
 7.58425  44.3524
 7.60725  44.3566
 7.63025  44.1103
 7.65325  44.1247
 7.67625  44.2083
 7.69925  44.241
 7.72225  44.2461
 7.74525  44.3858
 7.76825  44.3643
 7.79125  44.1568
 7.81425  44.0384
 7.83725  44.0941
 7.86025  44.0911
 7.88325  43.8873
 7.90625  43.7106
 7.92925  43.5203
 7.95225  43.3793
 7.97525  43.5201
 7.99825  43.6176
 8.02125  43.3255
 8.04425  43.0953
 8.06725  42.8895
 8.09025  42.8086
 8.11325  42.7861
 8.13625  42.6229
 8.15925  42.607
 8.18225  42.3109
 8.20525  41.9301
 8.22825  41.5834
 8.25125  41.3104
 8.27425  40.9772
 8.29725  40.661
 8.32025  40.4576
 8.34325  40.1283
 8.36625  39.8505
 8.38925  39.5828
 8.41225  39.3417
 8.43525  38.9936
 8.45825  38.7652
 8.48125  38.4256
 8.50425  38.0894
 8.52725  37.7044
 8.55025  37.3106
 8.57325  36.9086
 8.59625  36.5793
 8.61925  36.2977
 8.64225  35.9735
 8.66525  35.5488
 8.68825  35.2506
 8.71125  35.1739
 8.73425  34.8792
 8.75725  34.3873
 8.78025  33.9898
 8.80325  33.5782
 8.82625  33.231
 8.84925  32.8164
 8.87225  32.5148
 8.89525  32.1684
 8.91825  32.0163
 8.94125  31.8387
 8.96425  31.4746
 8.98725  31.1647
 9.01025  30.8671
 9.03325  30.5895
 9.05625  30.2961
 9.07925  30.014
 9.10225  29.8409
 9.12525  29.6867
 9.14825  29.5362
 9.17125  29.2179
 9.19425  28.8109
 9.21725  28.561
 9.24025  28.2992
 9.26325  28.2339
 9.28625  28.1474
 9.30925  28.1768
 9.33225  28.011
 9.35525  27.7421
 9.37825  27.6056
 9.40125  27.5149
 9.42425  27.3447
 9.44725  27.0431
 9.47025  26.9523
 9.49325  26.8867
 9.51625  26.7872
 9.53925  26.5456
 9.56225  26.2973
 9.58525  26.1676
 9.60825  26.0938
 9.63125  25.9223
 9.65425  25.6469
 9.67725  25.4247
 9.70025  25.4898
 9.72325  25.5424
 9.74625  25.4198
 9.76925  25.2447
 9.79225  25.2279
 9.81525  25.1594
 9.83825  25.0456
 9.86125  24.9903
 9.88425  24.9828
 9.90725  24.9788
 9.93025  24.8025
 9.95325  24.5857
 9.97625  24.5568
 9.99925  24.5242
 10.0222  24.475
 10.0453  24.565
 10.0683  24.5166
 10.0913  24.3726
 10.1143  24.2716
 10.1373  24.2825
 10.1603  24.1624
 10.1832  24.0827
 10.2063  24.0369
 10.2293  24.0969
 10.2523  24.0103
 10.2752  23.9607
 10.2982  23.9624
 10.3213  23.8634
 10.3443  23.6858
 10.3673  23.6126
 10.3902  23.6713
 10.4133  23.6945
 10.4363  23.6286
 10.4593  23.5501
 10.4823  23.5663
 10.5053  23.6331
 10.5283  23.603
 10.5512  23.5746
 10.5742  23.5501
 10.5973  23.4825
 10.6203  23.4107
 10.6433  23.3432
 10.6662  23.2646
 10.6893  23.1942
 10.7123  23.2269
 10.7353  23.1865
 10.7583  23.1224
 10.7813  23.0894
 10.8043  23.1437
 10.8272  23.1571
 10.8503  23.1933
 10.8733  23.0894
 10.8963  22.9082
 10.9192  22.9518
 10.9422  23.0197
 10.9653  22.986
 10.9883  22.9681
 11.0113  22.9223
 11.0343  22.9226
 11.0573  22.8715
 11.0803  22.8272
 11.1033  22.8451
 11.1263  22.9045
 11.1493  22.8924
 11.1723  22.8088
 11.1953  22.6532
 11.2182  22.6696
 11.2413  22.6465
 11.2643  22.7141
 11.2873  22.7136
 11.3102  22.7927
 11.3333  22.8749
 11.3563  22.9595
 11.3793  23.0464
 11.4023  23.186
 11.4253  23.335
 11.4483  23.4114
 11.4713  23.4674
 11.4942  23.7292
 11.5173  24.8102
 11.5403  27.039
 11.5633  29.767
 11.5862  32.7068
 11.6093  37.2818
 11.6323  36.5851
 11.6553  29.362
 11.6783  24.9735
 11.7013  23.7396
 11.7243  23.2961
 11.7473  23.1417
 11.7703  23.0202
 11.7933  22.9648
 11.8163  22.9955
 11.8393  22.8759
 11.8622  22.7939
 11.8853  22.7928
 11.9083  22.9032
 11.9313  23.1292
 11.9543  23.6074
 11.9773  24.3289
 12.0003  24.9369
 12.0233  24.6602
 12.0463  24.0757
 12.0693  24.3002
 12.0923  25.3177
 12.1153  25.6798
 12.1382  24.9516
 12.1613  23.7954
 12.1843  23.1862
 12.2073  23.0224
 12.2302  22.9726
 12.2533  22.8971
 12.2763  22.7745
 12.2993  22.8267
 12.3223  22.9177
 12.3453  22.9261
 12.3683  23.0144
 12.3913  23.004
 12.4142  22.8763
 12.4373  22.9074
 12.4603  22.9876
 12.4833  23.0039
 12.5062  22.9281
 12.5292  22.9218
 12.5523  22.9835
 12.5753  22.9426
 12.5983  23.0188
 12.6212  23.1318
 12.6443  23.182
 12.6673  23.261
 12.6903  23.2666
 12.7133  23.3165
 12.7363  23.302
 12.7593  23.2953
 12.7822  23.3262
 12.8052  23.3223
 12.8283  23.3829
 12.8513  23.4168
 12.8742  23.4831
 12.8972  23.4717
 12.9203  23.5925
 12.9433  23.8264
 12.9663  23.9652
 12.9893  24.1045
 13.0123  24.2124
 13.0353  24.452
 13.0582  24.6523
 13.0813  24.8233
 13.1043  25.0297
 13.1273  25.2708
 13.1502  25.4498
 13.1732  25.5904
 13.1963  25.8681
 13.2193  26.175
 13.2423  26.5302
 13.2652  26.7708
 13.2883  27.0588
 13.3113  27.3013
 13.3343  27.4748
 13.3573  27.9003
 13.3803  28.23
 13.4033  28.5814
 13.4262  28.7067
 13.4492  28.7737
 13.4723  28.9408
 13.4953  29.2425
 13.5183  29.4411
 13.5412  29.5795
 13.5643  29.6612
 13.5873  29.7116
 13.6103  29.8853
 13.6333  29.9464
 13.6563  29.9853
 13.6793  30.0391
 13.7022  29.9607
 13.7253  29.9015
 13.7483  29.9422
 13.7713  30.0008
 13.7942  29.9917
 13.8172  30.0373
 13.8403  30.4498
 13.8633  31.3477
 13.8863  33.7437
 13.9093  41.7415
 13.9323  58.0391
 13.9553  68.7067
 13.9783  62.2359
 14.0013  47.0129
 14.0243  36.0892
 14.0473  31.306
 14.0703  29.5832
 14.0932  28.8919
 14.1163  28.4059
 14.1393  28.0636
 14.1623  27.8093
 14.1852  27.5846
 14.2083  27.3954
 14.2313  27.1331
 14.2543  26.9219
 14.2773  26.732
 14.3003  26.6621
 14.3233  26.559
 14.3463  26.4534
 14.3692  26.3246
 14.3923  26.196
 14.4153  26.1442
 14.4383  26.0043
 14.4612  25.9043
 14.4843  25.7561
 14.5073  25.6721
 14.5303  25.5925
 14.5533  25.6524
 14.5763  25.8096
 14.5993  25.7696
 14.6223  25.7378
 14.6453  25.7426
 14.6683  25.6581
 14.6913  25.5512
 14.7143  25.5039
 14.7372  25.3793
 14.7603  25.2707
 14.7833  25.1876
 14.8063  25.1776
 14.8293  25.1859
 14.8523  25.2623
 14.8753  25.1916
 14.8983  25.1524
 14.9213  25.0941
 14.9443  25.0035
 14.9673  25.0122
 14.9903  25.0159
 15.0132  25.1324
 15.0363  25.2772
 15.0593  25.2529
 15.0823  25.212
 15.1052  25.3175
 15.1283  25.8789
 15.1513  27.3472
 15.1743  29.383
 15.1973  30.8698
 15.2203  30.1461
 15.2433  28.0477
 15.2663  26.2034
 15.2892  25.3777
 15.3123  25.0734
 15.3353  24.9166
 15.3583  24.8546
 15.3812  24.8209
 15.4043  24.8632
 15.4273  24.9113
 15.4503  24.8953
 15.4733  24.8647
 15.4963  24.7929
 15.5193  24.7237
 15.5423  24.6513
 15.5653  24.6312
 15.5883  24.6065
 15.6113  24.6118
 15.6343  24.6697
 15.6572  24.7214
 15.6803  24.7248
 15.7033  24.7776
 15.7263  24.8259
 15.7492  24.7949
 15.7723  24.7855
 15.7953  24.7394
 15.8183  24.7835
 15.8413  24.7737
 15.8643  24.8361
 15.8873  24.9123
 15.9103  24.9661
 15.9332  24.8961
 15.9563  24.8504
 15.9793  24.8541
 16.0023  24.8746
 16.0253  24.8764
 16.0482  24.9623
 16.0713  25.0106
 16.0943  25.0247
 16.1172  25.0704
 16.1403  25.0336
 16.1633  25.0763
 16.1863  25.2209
 16.2093  25.638
 16.2323  26.1624
 16.2553  26.6212
 16.2783  26.5074
 16.3012  25.7069
 16.3243  25.1448
 16.3472  25.0074
 16.3703  24.8767
 16.3933  24.8659
 16.4163  24.9726
 16.4393  25.0173
 16.4623  24.9758
 16.4853  24.9728
 16.5083  24.9319
 16.5312  24.9593
 16.5543  25.0284
 16.5773  24.9355
 16.6002  24.8943
 16.6233  24.7759
 16.6463  24.7104
 16.6693  24.76
 16.6923  24.7815
 16.7153  24.8041
 16.7383  24.7069
 16.7613  24.6676
 16.7843  24.6325
 16.8073  24.6464
 16.8303  24.5661
 16.8533  24.5942
 16.8763  24.5694
 16.8992  24.5711
 16.9223  24.5682
 16.9453  24.516
 16.9683  24.528
 16.9913  24.5108
 17.0143  24.47
 17.0373  24.4829
 17.0603  24.4586
 17.0832  24.4548
 17.1063  24.4183
 17.1293  24.4012
 17.1522  24.4144
 17.1753  24.3874
 17.1983  24.3774
 17.2213  24.3935
 17.2443  24.3608
 17.2673  24.3056
 17.2903  24.2574
 17.3133  24.3381
 17.3362  24.3418
 17.3593  24.3669
 17.3823  24.3186
 17.4053  24.2532
 17.4283  24.1815
 17.4513  24.181
 17.4743  24.2111
 17.4973  24.1977
 17.5203  24.1618
 17.5433  24.1851
 17.5663  24.1738
 17.5893  24.1183
 17.6123  24.1544
 17.6352  24.1326
 17.6583  24.128
 17.6813  24.0986
 17.7042  24.085
 17.7273  24.0549
 17.7503  24.0658
 17.7733  24.059
 17.7963  24.0942
 17.8193  24.0993
 17.8423  24.1528
 17.8653  24.1725
 17.8882  24.2016
 17.9113  24.2824
 17.9343  24.3928
 17.9573  24.4395
 17.9803  24.5743
 18.0033  25.0557
 18.0263  25.8378
 18.0493  27.4872
 18.0723  30.3082
 18.0953  33.484
 18.1183  33.5222
 18.1413  30.1188
 18.1643  26.7199
 18.1872  25.1075
 18.2103  24.5244
 18.2333  24.2981
 18.2563  24.193
 18.2793  24.1082
 18.3023  24.0691
 18.3253  23.903
 18.3483  23.8901
 18.3712  23.8903
 18.3943  23.9375
 18.4173  23.9296
 18.4402  23.808
 18.4633  23.7566
 18.4863  23.7613
 18.5093  23.736
 18.5323  23.6881
 18.5553  23.7288
 18.5783  23.7461
 18.6013  23.7876
 18.6242  23.7887
 18.6473  23.7715
 18.6703  23.6681
 18.6933  23.6963
 18.7163  23.7233
 18.7392  23.721
 18.7623  23.69
 18.7853  23.7701
 18.8083  23.7496
 18.8313  23.7505
 18.8543  23.7861
 18.8773  23.8144
 18.9003  23.7497
 18.9232  23.7734
 18.9463  23.8942
 18.9693  23.8121
 18.9922  23.7036
 19.0153  23.7625
 19.0383  23.8023
 19.0613  23.6882
 19.0843  23.7425
 19.1073  23.7277
 19.1303  23.774
 19.1533  23.8404
 19.1762  23.7742
 19.1993  23.7103
 19.2223  23.6877
 19.2453  23.7155
 19.2683  23.7852
 19.2913  23.8191
 19.3143  23.918
 19.3373  23.9157
 19.3603  23.9595
 19.3833  23.9979
 19.4062  24.0708
 19.4293  24.0469
 19.4523  23.9697
 19.4752  24.0002
 19.4983  24.0034
 19.5213  24.025
 19.5443  24.0417
 19.5673  24.1378
 19.5903  24.3395
 19.6133  24.6002
 19.6363  25.1752
 19.6593  26.1139
 19.6823  27.9204
 19.7053  31.0529
 19.7283  32.6398
 19.7513  30.8472
 19.7742  28.3334
 19.7973  27.063
 19.8203  27.838
 19.8433  29.3632
 19.8663  30.3988
 19.8893  29.6293
 19.9123  27.3234
 19.9353  25.4668
 19.9582  24.7055
 19.9813  24.4735
 20.0043  24.295
 20.0272  24.2028
 20.0503  24.1593
 20.0733  24.073
 20.0963  24.0504
 20.1193  24.0812
 20.1423  23.9987
 20.1653  23.9945
 20.1883  23.9981
 20.2112  23.9817
 20.2343  23.9466
 20.2573  24.048
 20.2803  24.0561
 20.3033  24.0406
 20.3263  24.0451
 20.3493  24.0472
 20.3723  24.0689
 20.3953  24.0848
 20.4183  24.0703
 20.4413  24.1063
 20.4643  24.0636
 20.4873  24.0416
 20.5102  23.9958
 20.5333  24.011
 20.5563  24.1133
 20.5792  24.0231
 20.6023  24.1087
 20.6253  24.1394
 20.6483  24.2394
 20.6713  24.4534
 20.6943  24.7896
 20.7173  25.4828
 20.7403  26.5913
 20.7632  27.8308
 20.7863  28.1318
 20.8093  27.3967
 20.8323  25.936
 20.8553  24.8476
 20.8783  24.5519
 20.9013  24.4029
 20.9243  24.2648
 20.9473  24.2656
 20.9703  24.2388
 20.9933  24.2143
 21.0163  24.1847
 21.0393  24.1578
 21.0622  24.1153
 21.0853  24.0981
 21.1083  24.1433
 21.1313  24.1939
 21.1543  24.158
 21.1773  24.2206
 21.2003  24.247
 21.2233  24.1746
 21.2462  24.1098
 21.2693  24.1087
 21.2923  24.1585
 21.3152  24.1376
 21.3383  24.1428
 21.3613  24.2244
 21.3843  24.2658
 21.4073  24.1763
 21.4303  24.2144
 21.4533  24.1824
 21.4763  24.2087
 21.4992  24.234
 21.5223  24.2214
 21.5453  24.2204
 21.5683  24.2064
 21.5913  24.2212
 21.6142  24.2411
 21.6373  24.2431
 21.6603  24.3065
 21.6833  24.3469
 21.7063  24.3025
 21.7293  24.3086
 21.7523  24.3823
 21.7753  24.328
 21.7982  24.3863
 21.8213  24.3891
 21.8443  24.4089
 21.8672  24.3924
 21.8903  24.4316
 21.9133  24.4823
 21.9363  24.4082
 21.9593  24.2986
 21.9823  24.3588
 22.0053  24.3648
 22.0283  24.4272
 22.0512  24.4791
 22.0743  24.4923
 22.0973  24.4945
 22.1203  24.6231
 22.1433  24.5684
 22.1663  24.5711
 22.1893  24.6578
 22.2123  24.7128
 22.2353  24.6813
 22.2583  24.7551
 22.2813  24.801
 22.3043  24.759
 22.3273  24.7538
 22.3502  24.7569
 22.3733  24.7547
 22.3963  24.6674
 22.4193  24.7832
 22.4423  24.9149
 22.4653  24.943
 22.4883  24.8317
 22.5113  24.9172
 22.5343  24.9669
 22.5573  24.9988
 22.5803  25.0272
 22.6033  25.1442
 22.6263  25.2087
 22.6493  25.2584
 22.6723  25.2945
 22.6953  25.4397
 22.7183  25.4871
 22.7413  25.5048
 22.7643  25.6386
 22.7873  25.633
 22.8103  25.7144
 22.8333  25.7718
 22.8563  25.8325
 22.8793  25.915
 22.9022  26.0653
 22.9253  26.2874
 22.9483  26.3249
 22.9713  26.4204
 22.9943  26.6038