File: test-data-xrd/xrd-map-34-ID-E/Data_0078.chi
F:\20151113_APS_34IDE\\Brian\Particle1\OCV\Data_0078.tif
2-Theta Angle (Degrees)
Intensity
       2000
 0.01725  0.0000000E+00
 0.04025  0.0000000E+00
 0.06325  0.0000000E+00
 0.08625  0.0000000E+00
 0.10925  0.0000000E+00
 0.13225  0.0000000E+00
 0.15525  0.0000000E+00
 0.17825  0.0000000E+00
 0.20125  0.0000000E+00
 0.22425  0.0000000E+00
 0.24725  0.0000000E+00
 0.27025  0.0000000E+00
 0.29325  0.0000000E+00
 0.31625  0.0000000E+00
 0.33925  0.0000000E+00
 0.36225  0.0000000E+00
 0.38525  0.0000000E+00
 0.40825  0.0000000E+00
 0.43125  0.0000000E+00
 0.45425  0.0000000E+00
 0.47725  0.0000000E+00
 0.50025  0.0000000E+00
 0.52325  0.0000000E+00
 0.54625  0.0000000E+00
 0.56925  0.0000000E+00
 0.59225  0.0000000E+00
 0.61525  0.0000000E+00
 0.63825  0.0000000E+00
 0.66125  0.0000000E+00
 0.68425  0.0000000E+00
 0.70725  0.0000000E+00
 0.73025  0.0000000E+00
 0.75325  0.0000000E+00
 0.77625  0.0000000E+00
 0.79925  0.0000000E+00
 0.82225  0.0000000E+00
 0.84525  0.0000000E+00
 0.86825  0.0000000E+00
 0.89125  0.0000000E+00
 0.91425  0.0000000E+00
 0.93725  0.0000000E+00
 0.96025  0.0000000E+00
 0.98325  0.0000000E+00
 1.00625  0.0000000E+00
 1.02925  0.0000000E+00
 1.05225  0.0000000E+00
 1.07525  0.0000000E+00
 1.09825  0.0000000E+00
 1.12125  0.0000000E+00
 1.14425  0.0000000E+00
 1.16725  0.0000000E+00
 1.19025  0.0000000E+00
 1.21325  0.0000000E+00
 1.23625  0.0000000E+00
 1.25925  0.0000000E+00
 1.28225  0.0000000E+00
 1.30525  0.0000000E+00
 1.32825  0.0000000E+00
 1.35125  0.0000000E+00
 1.37425  0.0000000E+00
 1.39725  0.0000000E+00
 1.42025  0.0000000E+00
 1.44325  0.0000000E+00
 1.46625  0.0000000E+00
 1.48925  0.0000000E+00
 1.51225  0.0000000E+00
 1.53525  0.0000000E+00
 1.55825  0.0000000E+00
 1.58125  0.0000000E+00
 1.60425  0.0000000E+00
 1.62725  0.0000000E+00
 1.65025  0.0000000E+00
 1.67325  0.0000000E+00
 1.69625  0.0000000E+00
 1.71925  0.0000000E+00
 1.74225  0.0000000E+00
 1.76525  0.0000000E+00
 1.78825  0.0000000E+00
 1.81125  0.0000000E+00
 1.83425  0.0000000E+00
 1.85725  0.0000000E+00
 1.88025  0.0000000E+00
 1.90325  0.0000000E+00
 1.92625  0.0000000E+00
 1.94925  0.0000000E+00
 1.97225  0.0000000E+00
 1.99525  0.0000000E+00
 2.01825  0.0000000E+00
 2.04125  0.0000000E+00
 2.06425  0.0000000E+00
 2.08725  0.0000000E+00
 2.11025  0.0000000E+00
 2.13325  0.0000000E+00
 2.15625  0.0000000E+00
 2.17925  0.0000000E+00
 2.20225  0.0000000E+00
 2.22525  0.0000000E+00
 2.24825  0.0000000E+00
 2.27125  0.0000000E+00
 2.29425  0.0000000E+00
 2.31725  0.0000000E+00
 2.34025  0.0000000E+00
 2.36325  0.0000000E+00
 2.38625  0.0000000E+00
 2.40925  0.0000000E+00
 2.43225  0.0000000E+00
 2.45525  0.0000000E+00
 2.47825  0.0000000E+00
 2.50125  0.0000000E+00
 2.52425  0.0000000E+00
 2.54725  0.0000000E+00
 2.57025  0.0000000E+00
 2.59325  0.0000000E+00
 2.61625  0.0000000E+00
 2.63925  0.0000000E+00
 2.66225  0.0000000E+00
 2.68525  0.0000000E+00
 2.70825  0.0000000E+00
 2.73125  0.0000000E+00
 2.75425  0.0000000E+00
 2.77725  0.0000000E+00
 2.80025  0.0000000E+00
 2.82325  32.6715
 2.84625  35.3932
 2.86925  35.0648
 2.89225  35.2341
 2.91525  36.018
 2.93825  35.8164
 2.96125  35.9259
 2.98425  35.6591
 3.00725  35.6517
 3.03025  35.9623
 3.05325  35.8527
 3.07625  35.5892
 3.09925  35.7871
 3.12225  35.3883
 3.14525  35.2163
 3.16825  35.4357
 3.19125  35.4136
 3.21425  35.7704
 3.23725  35.6988
 3.26025  34.735
 3.28325  33.9941
 3.30625  33.9042
 3.32925  34.2915
 3.35225  35.0508
 3.37525  35.5371
 3.39825  35.4
 3.42125  34.7304
 3.44425  34.0403
 3.46725  33.9735
 3.49025  34.0426
 3.51325  33.7869
 3.53625  33.3895
 3.55925  33.2343
 3.58225  33.2298
 3.60525  33.4839
 3.62825  34.0002
 3.65125  34.125
 3.67425  33.888
 3.69725  33.2281
 3.72025  32.6401
 3.74325  32.9099
 3.76625  33.1101
 3.78925  33.025
 3.81225  33.2091
 3.83525  33.398
 3.85825  33.1667
 3.88125  33.041
 3.90425  32.5125
 3.92725  32.3203
 3.95025  32.3297
 3.97325  32.7364
 3.99625  33.0483
 4.01925  32.8349
 4.04225  32.0985
 4.06525  32.0347
 4.08825  32.0564
 4.11125  32.3644
 4.13425  32.4416
 4.15725  32.4932
 4.18025  32.2061
 4.20325  32.2721
 4.22625  32.3206
 4.24925  32.1405
 4.27225  32.1122
 4.29525  32.2466
 4.31825  32.3085
 4.34125  32.468
 4.36425  32.5824
 4.38725  32.6791
 4.41025  32.6188
 4.43325  32.488
 4.45625  32.3003
 4.47925  32.6292
 4.50225  32.683
 4.52525  32.5748
 4.54825  32.5275
 4.57125  32.7423
 4.59425  32.9421
 4.61725  33.0697
 4.64025  32.9379
 4.66325  33.1035
 4.68625  33.2554
 4.70925  33.5496
 4.73225  33.3337
 4.75525  32.8677
 4.77825  32.83
 4.80125  32.7456
 4.82425  32.7305
 4.84725  32.8064
 4.87025  32.8728
 4.89325  32.8608
 4.91625  33.0278
 4.93925  33.0426
 4.96225  32.9109
 4.98525  33.0209
 5.00825  33.1227
 5.03125  33.3144
 5.05425  33.2488
 5.07725  33.1884
 5.10025  33.4202
 5.12325  33.5782
 5.14625  33.8844
 5.16925  34.0125
 5.19225  34.0239
 5.21525  34.0713
 5.23825  34.0757
 5.26125  33.9744
 5.28425  34.0093
 5.30725  34.1448
 5.33025  34.1958
 5.35325  34.1754
 5.37625  34.3138
 5.39925  34.5895
 5.42225  34.6309
 5.44525  34.5035
 5.46825  34.7143
 5.49125  34.6789
 5.51425  34.7967
 5.53725  35.085
 5.56025  35.3955
 5.58325  35.3786
 5.60625  35.3405
 5.62925  35.318
 5.65225  35.3893
 5.67525  35.6882
 5.69825  35.8569
 5.72125  36.0255
 5.74425  36.0484
 5.76725  36.1998
 5.79025  36.4296
 5.81325  36.5878
 5.83625  36.7729
 5.85925  37.0299
 5.88225  37.4081
 5.90525  38.7026
 5.92825  43.2361
 5.95125  57.6658
 5.97425  73.1324
 5.99725  81.373
 6.02025  64.0654
 6.04325  48.0074
 6.06625  40.6746
 6.08925  38.4515
 6.11225  37.9144
 6.13525  37.4918
 6.15825  37.3401
 6.18125  37.5561
 6.20425  37.6403
 6.22725  37.6583
 6.25025  37.5309
 6.27325  37.6511
 6.29625  37.8347
 6.31925  37.9789
 6.34225  38.1504
 6.36525  38.2872
 6.38825  38.277
 6.41125  38.2142
 6.43425  38.2049
 6.45725  38.3879
 6.48025  38.685
 6.50325  39.0193
 6.52625  39.3303
 6.54925  39.4797
 6.57225  39.5605
 6.59525  39.7031
 6.61825  39.8859
 6.64125  40.0599
 6.66425  40.2979
 6.68725  40.3671
 6.71025  40.5192
 6.73325  40.7558
 6.75625  41.0549
 6.77925  41.2613
 6.80225  41.3854
 6.82525  41.4966
 6.84825  41.7268
 6.87125  42.0914
 6.89425  42.1587
 6.91725  42.1955
 6.94025  41.9899
 6.96325  42.0583
 6.98625  42.4678
 7.00925  42.7076
 7.03225  42.883
 7.05525  42.9452
 7.07825  42.8648
 7.10125  43.0321
 7.12425  43.3464
 7.14725  43.4791
 7.17025  43.4968
 7.19325  43.6302
 7.21625  43.7901
 7.23925  43.7529
 7.26225  43.5888
 7.28525  43.2811
 7.30825  43.2872
 7.33125  43.6575
 7.35425  43.8013
 7.37725  44.0137
 7.40025  44.2353
 7.42325  44.2416
 7.44625  44.075
 7.46925  44.3261
 7.49225  44.5289
 7.51525  44.4521
 7.53825  44.4716
 7.56125  44.5302
 7.58425  44.4993
 7.60725  44.5322
 7.63025  44.6936
 7.65325  44.6513
 7.67625  44.4393
 7.69925  44.2932
 7.72225  44.4657
 7.74525  44.5155
 7.76825  44.5732
 7.79125  44.695
 7.81425  44.6721
 7.83725  44.5171
 7.86025  44.3627
 7.88325  44.047
 7.90625  43.9632
 7.92925  43.9724
 7.95225  43.84
 7.97525  43.5424
 7.99825  43.3757
 8.02125  43.1296
 8.04425  43.0583
 8.06725  43.0012
 8.09025  43.0302
 8.11325  43.1209
 8.13625  43.0062
 8.15925  42.7182
 8.18225  42.2948
 8.20525  42.0199
 8.22825  41.7266
 8.25125  41.4432
 8.27425  41.2271
 8.29725  41.0155
 8.32025  40.8096
 8.34325  40.5928
 8.36625  40.4026
 8.38925  39.9198
 8.41225  39.316
 8.43525  38.887
 8.45825  38.5529
 8.48125  38.2308
 8.50425  37.9049
 8.52725  37.6907
 8.55025  37.4946
 8.57325  37.1462
 8.59625  36.6896
 8.61925  36.2517
 8.64225  36.0212
 8.66525  35.6615
 8.68825  35.2624
 8.71125  34.9356
 8.73425  34.5775
 8.75725  34.1883
 8.78025  33.8438
 8.80325  33.5001
 8.82625  33.2205
 8.84925  32.9343
 8.87225  32.5658
 8.89525  32.214
 8.91825  31.8697
 8.94125  31.5493
 8.96425  31.3395
 8.98725  31.0683
 9.01025  30.6873
 9.03325  30.481
 9.05625  30.2273
 9.07925  30.055
 9.10225  29.7637
 9.12525  29.4259
 9.14825  29.248
 9.17125  28.9427
 9.19425  28.7169
 9.21725  28.5568
 9.24025  28.3976
 9.26325  28.2749
 9.28625  28.1409
 9.30925  27.9223
 9.33225  27.6024
 9.35525  27.3832
 9.37825  27.2717
 9.40125  27.162
 9.42425  27.1464
 9.44725  26.9005
 9.47025  26.6765
 9.49325  26.4991
 9.51625  26.3586
 9.53925  26.1352
 9.56225  25.9969
 9.58525  25.8171
 9.60825  25.7927
 9.63125  25.7478
 9.65425  25.5898
 9.67725  25.4951
 9.70025  25.3252
 9.72325  25.1993
 9.74625  25.1626
 9.76925  25.0302
 9.79225  24.9746
 9.81525  24.9496
 9.83825  24.8754
 9.86125  24.7225
 9.88425  24.6687
 9.90725  24.6746
 9.93025  24.6101
 9.95325  24.3821
 9.97625  24.2695
 9.99925  24.3349
 10.0222  24.2923
 10.0453  24.2981
 10.0683  24.2708
 10.0913  24.1265
 10.1143  23.9786
 10.1373  23.9049
 10.1603  24.0171
 10.1832  23.964
 10.2063  23.9
 10.2293  23.7814
 10.2523  23.6606
 10.2752  23.6044
 10.2982  23.6304
 10.3213  23.6099
 10.3443  23.604
 10.3673  23.4905
 10.3902  23.5001
 10.4133  23.4434
 10.4363  23.3489
 10.4593  23.2646
 10.4823  23.1857
 10.5053  23.1201
 10.5283  23.0944
 10.5512  23.0817
 10.5742  23.1554
 10.5973  23.1429
 10.6203  23.1444
 10.6433  23.1559
 10.6662  23.1269
 10.6893  23.0899
 10.7123  23.0728
 10.7353  22.915
 10.7583  22.8223
 10.7813  22.8415
 10.8043  22.9297
 10.8272  22.9106
 10.8503  22.8249
 10.8733  22.8453
 10.8963  22.8634
 10.9192  22.8139
 10.9422  22.7499
 10.9653  22.7372
 10.9883  22.7146
 11.0113  22.6177
 11.0343  22.5887
 11.0573  22.5229
 11.0803  22.5519
 11.1033  22.5432
 11.1263  22.6341
 11.1493  22.6429
 11.1723  22.6463
 11.1953  22.5929
 11.2182  22.525
 11.2413  22.4546
 11.2643  22.4616
 11.2873  22.4881
 11.3102  22.6049
 11.3333  22.6611
 11.3563  22.7974
 11.3793  22.8401
 11.4023  22.8915
 11.4253  22.937
 11.4483  23.0419
 11.4713  23.2063
 11.4942  23.3914
 11.5173  23.9727
 11.5403  26.3813
 11.5633  32.5076
 11.5862  40.0429
 11.6093  41.1319
 11.6323  34.6011
 11.6553  27.3881
 11.6783  24.2458
 11.7013  23.3092
 11.7243  23.0271
 11.7473  22.9203
 11.7703  22.7986
 11.7933  22.6843
 11.8163  22.7291
 11.8393  22.851
 11.8622  22.8333
 11.8853  22.8549
 11.9083  22.978
 11.9313  23.2141
 11.9543  23.6753
 11.9773  24.0467
 12.0003  23.9155
 12.0233  23.4028
 12.0463  23.3475
 12.0693  23.5766
 12.0923  24.0047
 12.1153  23.9385
 12.1382  23.5525
 12.1613  23.0666
 12.1843  22.8262
 12.2073  22.6742
 12.2302  22.5355
 12.2533  22.5575
 12.2763  22.5026
 12.2993  22.5519
 12.3223  22.5612
 12.3453  22.5466
 12.3683  22.4802
 12.3913  22.5191
 12.4142  22.6162
 12.4373  22.6139
 12.4603  22.6718
 12.4833  22.6939
 12.5062  22.6841
 12.5292  22.7635
 12.5523  22.8026
 12.5753  22.803
 12.5983  22.8575
 12.6212  22.9453
 12.6443  22.9338
 12.6673  22.8609
 12.6903  22.8404
 12.7133  22.9419
 12.7363  23.0292
 12.7593  23.1472
 12.7822  23.2407
 12.8052  23.2473
 12.8283  23.3531
 12.8513  23.3782
 12.8742  23.4063
 12.8972  23.4384
 12.9203  23.5521
 12.9433  23.7488
 12.9663  23.8487
 12.9893  23.9213
 13.0123  24.0248
 13.0353  24.197
 13.0582  24.4503
 13.0813  24.6311
 13.1043  24.8651
 13.1273  25.0885
 13.1502  25.2568
 13.1732  25.5176
 13.1963  25.692
 13.2193  26.037
 13.2423  26.3416
 13.2652  26.6332
 13.2883  26.9302
 13.3113  27.1438
 13.3343  27.4318
 13.3573  27.7148
 13.3803  28.0436
 13.4033  28.3314
 13.4262  28.5911
 13.4492  28.791
 13.4723  29.0798
 13.4953  29.3387
 13.5183  29.4571
 13.5412  29.613
 13.5643  29.8115
 13.5873  29.9478
 13.6103  29.9153
 13.6333  29.8846
 13.6563  29.8356
 13.6793  29.8908
 13.7022  29.8066
 13.7253  29.7131
 13.7483  29.6618
 13.7713  29.5762
 13.7942  29.4934
 13.8172  29.5925
 13.8403  29.7009
 13.8633  29.9842
 13.8863  30.7924
 13.9093  32.8981
 13.9323  36.3592
 13.9553  38.9149
 13.9783  38.2892
 14.0013  34.8192
 14.0243  31.2195
 14.0473  29.0938
 14.0703  28.2281
 14.0932  27.7818
 14.1163  27.5311
 14.1393  27.3973
 14.1623  27.2473
 14.1852  27.0643
 14.2083  26.9221
 14.2313  26.7626
 14.2543  26.5416
 14.2773  26.4102
 14.3003  26.283
 14.3233  26.2517
 14.3463  26.2032
 14.3692  26.2436
 14.3923  26.1691
 14.4153  26.0111
 14.4383  25.8818
 14.4612  25.733
 14.4843  25.6061
 14.5073  25.6188
 14.5303  25.5835
 14.5533  25.5821
 14.5763  25.6093
 14.5993  25.5095
 14.6223  25.3337
 14.6453  25.3703
 14.6683  25.3255
 14.6913  25.3503
 14.7143  25.3584
 14.7372  25.3304
 14.7603  25.2338
 14.7833  25.1926
 14.8063  25.0226
 14.8293  24.9473
 14.8523  24.9597
 14.8753  24.843
 14.8983  24.8617
 14.9213  24.9987
 14.9443  24.9482
 14.9673  24.8388
 14.9903  24.8655
 15.0132  24.9092
 15.0363  24.9218
 15.0593  24.8637
 15.0823  24.9262
 15.1052  24.9889
 15.1283  25.0759
 15.1513  25.5124
 15.1743  26.5151
 15.1973  27.4068
 15.2203  27.2153
 15.2433  26.2844
 15.2663  25.3282
 15.2892  24.8678
 15.3123  24.6794
 15.3353  24.6076
 15.3583  24.5957
 15.3812  24.6128
 15.4043  24.6166
 15.4273  24.5924
 15.4503  24.5877
 15.4733  24.6298
 15.4963  24.5938
 15.5193  24.6132
 15.5423  24.5325
 15.5653  24.5601
 15.5883  24.65
 15.6113  24.647
 15.6343  24.5914
 15.6572  24.5734
 15.6803  24.656
 15.7033  24.7646
 15.7263  24.8238
 15.7492  24.726
 15.7723  24.7578
 15.7953  24.755
 15.8183  24.828
 15.8413  24.7461
 15.8643  24.7408
 15.8873  24.6781
 15.9103  24.5747
 15.9332  24.5613
 15.9563  24.6254
 15.9793  24.7405
 16.0023  24.8349
 16.0253  24.8463
 16.0482  24.9625
 16.0713  24.949
 16.0943  24.8825
 16.1172  25.005
 16.1403  25.1862
 16.1633  25.4263
 16.1863  26.2995
 16.2093  28.0505
 16.2323  29.4714
 16.2553  29.4346
 16.2783  27.9456
 16.3012  26.1806
 16.3243  25.2647
 16.3472  24.9643
 16.3703  24.837
 16.3933  24.8825
 16.4163  24.9266
 16.4393  24.8547
 16.4623  24.8251
 16.4853  24.7535
 16.5083  24.6942
 16.5312  24.6672
 16.5543  24.6888
 16.5773  24.6624
 16.6002  24.737
 16.6233  24.7092
 16.6463  24.6378
 16.6693  24.67
 16.6923  24.6648
 16.7153  24.6559
 16.7383  24.6405
 16.7613  24.5524
 16.7843  24.4851
 16.8073  24.473
 16.8303  24.422
 16.8533  24.4668
 16.8763  24.5645
 16.8992  24.6101
 16.9223  24.5561
 16.9453  24.5216
 16.9683  24.436
 16.9913  24.4427
 17.0143  24.36
 17.0373  24.3029
 17.0603  24.3141
 17.0832  24.3665
 17.1063  24.3525
 17.1293  24.3324
 17.1522  24.336
 17.1753  24.3307
 17.1983  24.3141
 17.2213  24.2867
 17.2443  24.2244
 17.2673  24.1579
 17.2903  24.2058
 17.3133  24.2329
 17.3362  24.2275
 17.3593  24.1788
 17.3823  24.0696
 17.4053  23.9629
 17.4283  24.0396
 17.4513  24.0471
 17.4743  24.0628
 17.4973  24.0529
 17.5203  24.0194
 17.5433  24.0741
 17.5663  24.0749
 17.5893  23.9684
 17.6123  23.9932
 17.6352  24.0914
 17.6583  23.9797
 17.6813  23.9116
 17.7042  23.9283
 17.7273  23.9621
 17.7503  23.929
 17.7733  23.948
 17.7963  23.9996
 17.8193  23.991
 17.8423  24.0209
 17.8653  23.9391
 17.8882  23.9103
 17.9113  23.9336
 17.9343  23.9265
 17.9573  23.973
 17.9803  24.0916
 18.0033  24.2895
 18.0263  24.4971
 18.0493  24.8593
 18.0723  25.5794
 18.0953  26.5556
 18.1183  26.9556
 18.1413  26.4249
 18.1643  25.3274
 18.1872  24.4935
 18.2103  24.1254
 18.2333  23.9393
 18.2563  23.8874
 18.2793  23.834
 18.3023  23.8246
 18.3253  23.7033
 18.3483  23.753
 18.3712  23.7926
 18.3943  23.7521
 18.4173  23.7389
 18.4402  23.7348
 18.4633  23.707
 18.4863  23.6787
 18.5093  23.6317
 18.5323  23.5729
 18.5553  23.6266
 18.5783  23.6257
 18.6013  23.6513
 18.6242  23.6528
 18.6473  23.627
 18.6703  23.525
 18.6933  23.5375
 18.7163  23.5061
 18.7392  23.4544
 18.7623  23.5087
 18.7853  23.5161
 18.8083  23.536
 18.8313  23.6047
 18.8543  23.5973
 18.8773  23.4701
 18.9003  23.3836
 18.9232  23.4449
 18.9463  23.6639
 18.9693  23.6251
 18.9922  23.5041
 19.0153  23.5252
 19.0383  23.5649
 19.0613  23.6387
 19.0843  23.7082
 19.1073  23.6899
 19.1303  23.6064
 19.1533  23.5669
 19.1762  23.5383
 19.1993  23.5437
 19.2223  23.5888
 19.2453  23.6031
 19.2683  23.7226
 19.2913  23.6912
 19.3143  23.6671
 19.3373  23.6868
 19.3603  23.6446
 19.3833  23.6588
 19.4062  23.6855
 19.4293  23.7139
 19.4523  23.7586
 19.4752  23.7409
 19.4983  23.7337
 19.5213  23.881
 19.5443  23.9487
 19.5673  23.9211
 19.5903  24.0289
 19.6133  24.1658
 19.6363  24.43
 19.6593  24.9122
 19.6823  25.8184
 19.7053  27.0316
 19.7283  27.659
 19.7513  27.1699
 19.7742  26.2666
 19.7973  25.7141
 19.8203  26.1189
 19.8433  27.3895
 19.8663  28.495
 19.8893  28.0751
 19.9123  26.1667
 19.9353  24.8454
 19.9582  24.3541
 19.9813  24.1043
 20.0043  24.0334
 20.0272  23.9748
 20.0503  23.953
 20.0733  23.8635
 20.0963  23.7629
 20.1193  23.8525
 20.1423  23.8737
 20.1653  23.8399
 20.1883  23.8223
 20.2112  23.8121
 20.2343  23.8138
 20.2573  23.8027
 20.2803  23.8585
 20.3033  23.8001
 20.3263  23.7566
 20.3493  23.8006
 20.3723  23.8373
 20.3953  23.9176
 20.4183  23.9812
 20.4413  23.9354
 20.4643  23.9502
 20.4873  23.9139
 20.5102  23.8843
 20.5333  23.7943
 20.5563  23.9654
 20.5792  24.0238
 20.6023  24.0801
 20.6253  24.1128
 20.6483  24.1857
 20.6713  24.3569
 20.6943  25.0861
 20.7173  26.7323
 20.7403  28.3978
 20.7632  29.2866
 20.7863  28.1943
 20.8093  26.4146
 20.8323  25.0757
 20.8553  24.4964
 20.8783  24.2872
 20.9013  24.1464
 20.9243  24.0847
 20.9473  24.0722
 20.9703  24.0662
 20.9933  24.101
 21.0163  24.0845
 21.0393  24.0411
 21.0622  24.0202
 21.0853  24.1035
 21.1083  24.0405
 21.1313  24.109
 21.1543  24.0112
 21.1773  23.9435
 21.2003  24.0065
 21.2233  23.9811
 21.2462  23.9629
 21.2693  23.9706
 21.2923  24.0518
 21.3152  23.9686
 21.3383  23.9775
 21.3613  24.039
 21.3843  24.099
 21.4073  24.0929
 21.4303  23.9986
 21.4533  24.002
 21.4763  24.0384
 21.4992  24.1013
 21.5223  24.0953
 21.5453  24.1105
 21.5683  24.0825
 21.5913  24.1611
 21.6142  24.2676
 21.6373  24.1958
 21.6603  24.1421
 21.6833  24.167
 21.7063  24.1398
 21.7293  24.2204
 21.7523  24.2414
 21.7753  24.271
 21.7982  24.3005
 21.8213  24.2975
 21.8443  24.2822
 21.8672  24.3029
 21.8903  24.2158
 21.9133  24.28
 21.9363  24.3138
 21.9593  24.3307
 21.9823  24.4892
 22.0053  24.3822
 22.0283  24.4205
 22.0512  24.4442
 22.0743  24.3986
 22.0973  24.4713
 22.1203  24.4875
 22.1433  24.456
 22.1663  24.4523
 22.1893  24.431
 22.2123  24.4541
 22.2353  24.4562
 22.2583  24.4727
 22.2813  24.4042
 22.3043  24.4506
 22.3273  24.5597
 22.3502  24.5719
 22.3733  24.5849
 22.3963  24.6
 22.4193  24.5945
 22.4423  24.6759
 22.4653  24.7219
 22.4883  24.7103
 22.5113  24.8217
 22.5343  24.9316
 22.5573  24.9146
 22.5803  24.9321
 22.6033  25.0181
 22.6263  25.0698
 22.6493  25.1096
 22.6723  25.1441
 22.6953  25.249
 22.7183  25.2581
 22.7413  25.3335
 22.7643  25.3791
 22.7873  25.4012
 22.8103  25.4568
 22.8333  25.5161
 22.8563  25.5937
 22.8793  25.6824
 22.9022  25.7527
 22.9253  25.9754
 22.9483  26.0462
 22.9713  26.189
 22.9943  26.4829