File: test-data-xrd/xrd-map-34-ID-E/Data_0021.chi
F:\20151113_APS_34IDE\\Brian\Particle1\OCV\Data_0021.tif
2-Theta Angle (Degrees)
Intensity
       2000
 0.01725  0.0000000E+00
 0.04025  0.0000000E+00
 0.06325  0.0000000E+00
 0.08625  0.0000000E+00
 0.10925  0.0000000E+00
 0.13225  0.0000000E+00
 0.15525  0.0000000E+00
 0.17825  0.0000000E+00
 0.20125  0.0000000E+00
 0.22425  0.0000000E+00
 0.24725  0.0000000E+00
 0.27025  0.0000000E+00
 0.29325  0.0000000E+00
 0.31625  0.0000000E+00
 0.33925  0.0000000E+00
 0.36225  0.0000000E+00
 0.38525  0.0000000E+00
 0.40825  0.0000000E+00
 0.43125  0.0000000E+00
 0.45425  0.0000000E+00
 0.47725  0.0000000E+00
 0.50025  0.0000000E+00
 0.52325  0.0000000E+00
 0.54625  0.0000000E+00
 0.56925  0.0000000E+00
 0.59225  0.0000000E+00
 0.61525  0.0000000E+00
 0.63825  0.0000000E+00
 0.66125  0.0000000E+00
 0.68425  0.0000000E+00
 0.70725  0.0000000E+00
 0.73025  0.0000000E+00
 0.75325  0.0000000E+00
 0.77625  0.0000000E+00
 0.79925  0.0000000E+00
 0.82225  0.0000000E+00
 0.84525  0.0000000E+00
 0.86825  0.0000000E+00
 0.89125  0.0000000E+00
 0.91425  0.0000000E+00
 0.93725  0.0000000E+00
 0.96025  0.0000000E+00
 0.98325  0.0000000E+00
 1.00625  0.0000000E+00
 1.02925  0.0000000E+00
 1.05225  0.0000000E+00
 1.07525  0.0000000E+00
 1.09825  0.0000000E+00
 1.12125  0.0000000E+00
 1.14425  0.0000000E+00
 1.16725  0.0000000E+00
 1.19025  0.0000000E+00
 1.21325  0.0000000E+00
 1.23625  0.0000000E+00
 1.25925  0.0000000E+00
 1.28225  0.0000000E+00
 1.30525  0.0000000E+00
 1.32825  0.0000000E+00
 1.35125  0.0000000E+00
 1.37425  0.0000000E+00
 1.39725  0.0000000E+00
 1.42025  0.0000000E+00
 1.44325  0.0000000E+00
 1.46625  0.0000000E+00
 1.48925  0.0000000E+00
 1.51225  0.0000000E+00
 1.53525  0.0000000E+00
 1.55825  0.0000000E+00
 1.58125  0.0000000E+00
 1.60425  0.0000000E+00
 1.62725  0.0000000E+00
 1.65025  0.0000000E+00
 1.67325  0.0000000E+00
 1.69625  0.0000000E+00
 1.71925  0.0000000E+00
 1.74225  0.0000000E+00
 1.76525  0.0000000E+00
 1.78825  0.0000000E+00
 1.81125  0.0000000E+00
 1.83425  0.0000000E+00
 1.85725  0.0000000E+00
 1.88025  0.0000000E+00
 1.90325  0.0000000E+00
 1.92625  0.0000000E+00
 1.94925  0.0000000E+00
 1.97225  0.0000000E+00
 1.99525  0.0000000E+00
 2.01825  0.0000000E+00
 2.04125  0.0000000E+00
 2.06425  0.0000000E+00
 2.08725  0.0000000E+00
 2.11025  0.0000000E+00
 2.13325  0.0000000E+00
 2.15625  0.0000000E+00
 2.17925  0.0000000E+00
 2.20225  0.0000000E+00
 2.22525  0.0000000E+00
 2.24825  0.0000000E+00
 2.27125  0.0000000E+00
 2.29425  0.0000000E+00
 2.31725  0.0000000E+00
 2.34025  0.0000000E+00
 2.36325  0.0000000E+00
 2.38625  0.0000000E+00
 2.40925  0.0000000E+00
 2.43225  0.0000000E+00
 2.45525  0.0000000E+00
 2.47825  0.0000000E+00
 2.50125  0.0000000E+00
 2.52425  0.0000000E+00
 2.54725  0.0000000E+00
 2.57025  0.0000000E+00
 2.59325  0.0000000E+00
 2.61625  0.0000000E+00
 2.63925  0.0000000E+00
 2.66225  0.0000000E+00
 2.68525  0.0000000E+00
 2.70825  0.0000000E+00
 2.73125  0.0000000E+00
 2.75425  0.0000000E+00
 2.77725  0.0000000E+00
 2.80025  0.0000000E+00
 2.82325  33.4454
 2.84625  32.7503
 2.86925  32.9802
 2.89225  34.4888
 2.91525  35.4517
 2.93825  36.0495
 2.96125  36.5294
 2.98425  36.583
 3.00725  35.9216
 3.03025  36.2985
 3.05325  36.4866
 3.07625  36.1617
 3.09925  36.214
 3.12225  36.0874
 3.14525  35.9739
 3.16825  36.0437
 3.19125  35.8907
 3.21425  35.2701
 3.23725  34.72
 3.26025  34.5697
 3.28325  34.8648
 3.30625  35.5645
 3.32925  35.5542
 3.35225  35.513
 3.37525  35.5354
 3.39825  34.9905
 3.42125  34.426
 3.44425  34.581
 3.46725  34.6253
 3.49025  34.792
 3.51325  34.2233
 3.53625  33.3881
 3.55925  33.2492
 3.58225  33.2716
 3.60525  33.3912
 3.62825  33.4179
 3.65125  33.4388
 3.67425  33.2823
 3.69725  33.1057
 3.72025  32.841
 3.74325  32.8732
 3.76625  33.2369
 3.78925  33.1791
 3.81225  32.891
 3.83525  32.8001
 3.85825  32.5895
 3.88125  32.7256
 3.90425  32.7498
 3.92725  32.9166
 3.95025  33.116
 3.97325  33.1788
 3.99625  33.0028
 4.01925  32.7328
 4.04225  32.4818
 4.06525  32.7039
 4.08825  32.67
 4.11125  32.4542
 4.13425  32.4981
 4.15725  32.609
 4.18025  32.2979
 4.20325  32.4415
 4.22625  32.7564
 4.24925  32.7936
 4.27225  32.8173
 4.29525  32.9185
 4.31825  32.7164
 4.34125  32.6204
 4.36425  32.5905
 4.38725  32.4113
 4.41025  32.6187
 4.43325  32.7243
 4.45625  32.7235
 4.47925  32.8681
 4.50225  32.7829
 4.52525  32.7225
 4.54825  32.774
 4.57125  32.7857
 4.59425  32.8858
 4.61725  32.7996
 4.64025  32.7909
 4.66325  33.0631
 4.68625  33.3659
 4.70925  33.3742
 4.73225  32.9442
 4.75525  32.51
 4.77825  32.5521
 4.80125  32.4815
 4.82425  32.5177
 4.84725  32.5822
 4.87025  32.7778
 4.89325  32.7067
 4.91625  32.8373
 4.93925  32.8816
 4.96225  32.758
 4.98525  32.8299
 5.00825  33.0958
 5.03125  33.1805
 5.05425  33.2525
 5.07725  33.304
 5.10025  33.4454
 5.12325  33.4837
 5.14625  33.7755
 5.16925  34.1159
 5.19225  34.0804
 5.21525  33.9179
 5.23825  34.0329
 5.26125  34.1611
 5.28425  34.1379
 5.30725  34.0442
 5.33025  34.0587
 5.35325  34.1892
 5.37625  34.5126
 5.39925  34.7953
 5.42225  34.7362
 5.44525  34.4849
 5.46825  34.5764
 5.49125  34.6037
 5.51425  34.8329
 5.53725  34.9517
 5.56025  34.823
 5.58325  34.9125
 5.60625  35.1993
 5.62925  35.1293
 5.65225  34.9921
 5.67525  35.1537
 5.69825  35.4059
 5.72125  35.5282
 5.74425  35.5559
 5.76725  35.4908
 5.79025  35.5102
 5.81325  35.6487
 5.83625  35.9744
 5.85925  36.1423
 5.88225  36.4613
 5.90525  36.7606
 5.92825  37.1918
 5.95125  37.8486
 5.97425  38.7319
 5.99725  38.892
 6.02025  38.0764
 6.04325  36.9613
 6.06625  36.4789
 6.08925  36.482
 6.11225  36.6814
 6.13525  36.6965
 6.15825  36.8525
 6.18125  37.0332
 6.20425  37.2426
 6.22725  37.3124
 6.25025  37.5231
 6.27325  37.5572
 6.29625  37.6599
 6.31925  38.0125
 6.34225  38.3148
 6.36525  38.4335
 6.38825  38.5592
 6.41125  38.5563
 6.43425  38.5527
 6.45725  38.4597
 6.48025  38.3541
 6.50325  38.6683
 6.52625  39.1957
 6.54925  39.3416
 6.57225  39.5151
 6.59525  39.7494
 6.61825  39.9271
 6.64125  40.0057
 6.66425  40.1194
 6.68725  40.2882
 6.71025  40.5861
 6.73325  40.7392
 6.75625  40.8375
 6.77925  40.944
 6.80225  41.2823
 6.82525  41.4839
 6.84825  41.5978
 6.87125  41.7251
 6.89425  41.8472
 6.91725  42.0584
 6.94025  42.1459
 6.96325  42.1297
 6.98625  42.3003
 7.00925  42.492
 7.03225  42.444
 7.05525  42.4614
 7.07825  42.6315
 7.10125  42.8496
 7.12425  42.9298
 7.14725  42.9285
 7.17025  43.0494
 7.19325  43.2351
 7.21625  43.5043
 7.23925  43.7372
 7.26225  43.7827
 7.28525  43.888
 7.30825  43.9897
 7.33125  43.9956
 7.35425  44.0025
 7.37725  44.1241
 7.40025  44.2607
 7.42325  44.3688
 7.44625  44.236
 7.46925  44.2712
 7.49225  44.4358
 7.51525  44.3645
 7.53825  44.2547
 7.56125  44.3257
 7.58425  44.3406
 7.60725  44.2861
 7.63025  44.3908
 7.65325  44.4991
 7.67625  44.4585
 7.69925  44.4397
 7.72225  44.5308
 7.74525  44.5023
 7.76825  44.5425
 7.79125  44.4879
 7.81425  44.2729
 7.83725  44.0936
 7.86025  44.02
 7.88325  43.8692
 7.90625  43.9287
 7.92925  44.0147
 7.95225  43.9103
 7.97525  43.787
 7.99825  43.7303
 8.02125  43.5634
 8.04425  43.3642
 8.06725  43.1888
 8.09025  43.0572
 8.11325  43.0354
 8.13625  42.8712
 8.15925  42.7577
 8.18225  42.5759
 8.20525  42.3748
 8.22825  42.0405
 8.25125  41.7562
 8.27425  41.3294
 8.29725  41.036
 8.32025  40.7604
 8.34325  40.3073
 8.36625  40.145
 8.38925  39.9556
 8.41225  39.5995
 8.43525  39.1688
 8.45825  38.7659
 8.48125  38.4969
 8.50425  38.2779
 8.52725  37.9883
 8.55025  37.5599
 8.57325  37.1553
 8.59625  36.7772
 8.61925  36.3772
 8.64225  35.9488
 8.66525  35.6125
 8.68825  35.4131
 8.71125  35.1132
 8.73425  34.7817
 8.75725  34.4853
 8.78025  34.146
 8.80325  33.6175
 8.82625  33.1757
 8.84925  32.7426
 8.87225  32.5647
 8.89525  32.3341
 8.91825  31.9519
 8.94125  31.5188
 8.96425  31.2924
 8.98725  31.1166
 9.01025  30.9302
 9.03325  30.6328
 9.05625  30.4342
 9.07925  30.2227
 9.10225  29.8529
 9.12525  29.7197
 9.14825  29.5716
 9.17125  29.2597
 9.19425  28.9328
 9.21725  28.6731
 9.24025  28.4659
 9.26325  28.3359
 9.28625  28.0808
 9.30925  27.7288
 9.33225  27.5637
 9.35525  27.4858
 9.37825  27.3657
 9.40125  27.1366
 9.42425  26.9794
 9.44725  26.8762
 9.47025  26.7917
 9.49325  26.6529
 9.51625  26.44
 9.53925  26.3216
 9.56225  26.2359
 9.58525  26.0289
 9.60825  25.9496
 9.63125  25.8348
 9.65425  25.6619
 9.67725  25.4667
 9.70025  25.4291
 9.72325  25.6025
 9.74625  25.483
 9.76925  25.2569
 9.79225  25.1465
 9.81525  25.1144
 9.83825  24.986
 9.86125  24.8612
 9.88425  24.8852
 9.90725  24.818
 9.93025  24.6554
 9.95325  24.4754
 9.97625  24.451
 9.99925  24.4437
 10.0222  24.4227
 10.0453  24.3906
 10.0683  24.2035
 10.0913  23.9596
 10.1143  23.8895
 10.1373  23.9343
 10.1603  23.9061
 10.1832  23.8078
 10.2063  23.725
 10.2293  23.8311
 10.2523  23.7461
 10.2752  23.6997
 10.2982  23.6817
 10.3213  23.6359
 10.3443  23.6241
 10.3673  23.5559
 10.3902  23.4784
 10.4133  23.3817
 10.4363  23.3493
 10.4593  23.4304
 10.4823  23.4822
 10.5053  23.5433
 10.5283  23.4755
 10.5512  23.4613
 10.5742  23.4269
 10.5973  23.2846
 10.6203  23.242
 10.6433  23.2946
 10.6662  23.3212
 10.6893  23.1623
 10.7123  23.0359
 10.7353  22.9872
 10.7583  22.9248
 10.7813  22.9745
 10.8043  22.9852
 10.8272  22.9608
 10.8503  22.9003
 10.8733  22.8824
 10.8963  22.7981
 10.9192  22.7289
 10.9422  22.7182
 10.9653  22.6885
 10.9883  22.6917
 11.0113  22.5358
 11.0343  22.5861
 11.0573  22.5958
 11.0803  22.5882
 11.1033  22.5762
 11.1263  22.5463
 11.1493  22.5261
 11.1723  22.5332
 11.1953  22.4489
 11.2182  22.368
 11.2413  22.3509
 11.2643  22.3578
 11.2873  22.3375
 11.3102  22.3876
 11.3333  22.4794
 11.3563  22.4864
 11.3793  22.6619
 11.4023  22.8431
 11.4253  22.836
 11.4483  22.7203
 11.4713  22.7333
 11.4942  22.7541
 11.5173  22.926
 11.5403  23.4938
 11.5633  24.8317
 11.5862  26.1725
 11.6093  28.8224
 11.6323  27.9552
 11.6553  26.3234
 11.6783  24.0567
 11.7013  22.8943
 11.7243  22.6371
 11.7473  22.5907
 11.7703  22.5692
 11.7933  22.5563
 11.8163  22.6001
 11.8393  22.5527
 11.8622  22.5607
 11.8853  22.5013
 11.9083  22.3736
 11.9313  22.3971
 11.9543  22.6001
 11.9773  22.8054
 12.0003  22.9115
 12.0233  22.7227
 12.0463  22.7225
 12.0693  22.9462
 12.0923  23.2719
 12.1153  23.302
 12.1382  23.0174
 12.1613  22.7281
 12.1843  22.5905
 12.2073  22.5688
 12.2302  22.5299
 12.2533  22.3817
 12.2763  22.3325
 12.2993  22.4378
 12.3223  22.6
 12.3453  22.6575
 12.3683  22.6358
 12.3913  22.5933
 12.4142  22.4978
 12.4373  22.5555
 12.4603  22.5923
 12.4833  22.5587
 12.5062  22.4793
 12.5292  22.5276
 12.5523  22.5654
 12.5753  22.5118
 12.5983  22.6
 12.6212  22.7982
 12.6443  22.9028
 12.6673  22.9165
 12.6903  22.8888
 12.7133  22.9423
 12.7363  22.9401
 12.7593  22.979
 12.7822  23.1028
 12.8052  23.1466
 12.8283  23.2539
 12.8513  23.2656
 12.8742  23.3235
 12.8972  23.4254
 12.9203  23.541
 12.9433  23.7295
 12.9663  23.8031
 12.9893  23.8636
 13.0123  23.9687
 13.0353  24.1289
 13.0582  24.2917
 13.0813  24.4605
 13.1043  24.6927
 13.1273  24.8792
 13.1502  25.1874
 13.1732  25.5062
 13.1963  25.8568
 13.2193  26.0873
 13.2423  26.3505
 13.2652  26.5207
 13.2883  26.7986
 13.3113  27.05
 13.3343  27.2788
 13.3573  27.5724
 13.3803  27.7892
 13.4033  28.0054
 13.4262  28.2645
 13.4492  28.6264
 13.4723  28.9527
 13.4953  29.2395
 13.5183  29.3882
 13.5412  29.5361
 13.5643  29.6508
 13.5873  29.7674
 13.6103  29.7085
 13.6333  29.6266
 13.6563  29.6791
 13.6793  29.7377
 13.7022  29.5594
 13.7253  29.4252
 13.7483  29.3263
 13.7713  29.2366
 13.7942  29.1432
 13.8172  29.0096
 13.8403  28.9511
 13.8633  28.8256
 13.8863  28.8427
 13.9093  29.047
 13.9323  29.5563
 13.9553  29.8584
 13.9783  29.4704
 14.0013  28.7047
 14.0243  27.9804
 14.0473  27.5644
 14.0703  27.4717
 14.0932  27.3336
 14.1163  27.2711
 14.1393  27.2158
 14.1623  27.0458
 14.1852  26.8183
 14.2083  26.6987
 14.2313  26.5432
 14.2543  26.4766
 14.2773  26.4011
 14.3003  26.296
 14.3233  26.1895
 14.3463  26.1583
 14.3692  26.0748
 14.3923  25.9831
 14.4153  25.9048
 14.4383  25.8289
 14.4612  25.7152
 14.4843  25.6017
 14.5073  25.5472
 14.5303  25.628
 14.5533  25.6542
 14.5763  25.5821
 14.5993  25.4624
 14.6223  25.4559
 14.6453  25.3471
 14.6683  25.1874
 14.6913  25.1766
 14.7143  25.1662
 14.7372  25.0683
 14.7603  24.9656
 14.7833  24.9082
 14.8063  24.9168
 14.8293  24.985
 14.8523  25.0173
 14.8753  25.0036
 14.8983  24.952
 14.9213  24.9203
 14.9443  24.8296
 14.9673  24.8328
 14.9903  24.9302
 15.0132  25.0147
 15.0363  25.099
 15.0593  25.0973
 15.0823  25.0725
 15.1052  25.1784
 15.1283  25.4022
 15.1513  26.1409
 15.1743  28.8127
 15.1973  33.1258
 15.2203  35.556
 15.2433  32.4323
 15.2663  27.3029
 15.2892  25.5379
 15.3123  25.1274
 15.3353  24.9288
 15.3583  24.8407
 15.3812  24.8072
 15.4043  24.7487
 15.4273  24.59
 15.4503  24.5709
 15.4733  24.7183
 15.4963  25.0683
 15.5193  25.0139
 15.5423  24.619
 15.5653  24.4844
 15.5883  24.5738
 15.6113  24.4918
 15.6343  24.4537
 15.6572  24.4537
 15.6803  24.5087
 15.7033  24.4879
 15.7263  24.4129
 15.7492  24.3304
 15.7723  24.4479
 15.7953  24.5106
 15.8183  24.5381
 15.8413  24.5403
 15.8643  24.6626
 15.8873  24.7746
 15.9103  24.7489
 15.9332  24.6456
 15.9563  24.6234
 15.9793  24.6295
 16.0023  24.6033
 16.0253  24.5675
 16.0482  24.9864
 16.0713  25.1375
 16.0943  24.9753
 16.1172  24.7464
 16.1403  24.8708
 16.1633  24.961
 16.1863  24.8987
 16.2093  24.9241
 16.2323  25.0369
 16.2553  25.1614
 16.2783  25.1506
 16.3012  25.0068
 16.3243  24.8455
 16.3472  24.6603
 16.3703  24.5629
 16.3933  24.5956
 16.4163  24.6596
 16.4393  24.6738
 16.4623  24.6899
 16.4853  24.5861
 16.5083  24.5313
 16.5312  24.5241
 16.5543  24.4958
 16.5773  24.4964
 16.6002  24.5306
 16.6233  24.4758
 16.6463  24.4337
 16.6693  24.4463
 16.6923  24.4161
 16.7153  24.4776
 16.7383  24.4369
 16.7613  24.376
 16.7843  24.3024
 16.8073  24.344
 16.8303  24.3478
 16.8533  24.2558
 16.8763  24.2041
 16.8992  24.1708
 16.9223  24.1715
 16.9453  24.2248
 16.9683  24.1722
 16.9913  24.1125
 17.0143  24.1386
 17.0373  24.1695
 17.0603  24.0896
 17.0832  24.0914
 17.1063  24.1398
 17.1293  24.1644
 17.1522  24.1668
 17.1753  24.1822
 17.1983  24.2622
 17.2213  24.2686
 17.2443  24.118
 17.2673  23.9881
 17.2903  24.004
 17.3133  24.0026
 17.3362  24.0553
 17.3593  24.0427
 17.3823  23.9926
 17.4053  23.9614
 17.4283  23.9061
 17.4513  23.9527
 17.4743  23.946
 17.4973  23.9762
 17.5203  23.8507
 17.5433  23.7488
 17.5663  23.7537
 17.5893  23.7534
 17.6123  23.8647
 17.6352  23.7878
 17.6583  23.7617
 17.6813  23.8807
 17.7042  23.7719
 17.7273  23.6771
 17.7503  23.6204
 17.7733  23.6776
 17.7963  23.7427
 17.8193  23.6603
 17.8423  23.663
 17.8653  23.6737
 17.8882  23.675
 17.9113  23.6792
 17.9343  23.6522
 17.9573  23.5886
 17.9803  23.6262
 18.0033  23.8472
 18.0263  23.9183
 18.0493  23.9331
 18.0723  24.0545
 18.0953  24.1169
 18.1183  24.1069
 18.1413  24.0105
 18.1643  23.9478
 18.1872  23.8388
 18.2103  23.6997
 18.2333  23.5597
 18.2563  23.5222
 18.2793  23.5292
 18.3023  23.5702
 18.3253  23.5572
 18.3483  23.6182
 18.3712  23.6716
 18.3943  23.7298
 18.4173  23.5988
 18.4402  23.4744
 18.4633  23.4927
 18.4863  23.4773
 18.5093  23.4619
 18.5323  23.515
 18.5553  23.5692
 18.5783  23.582
 18.6013  23.56
 18.6242  23.4439
 18.6473  23.4188
 18.6703  23.4058
 18.6933  23.4369
 18.7163  23.4707
 18.7392  23.447
 18.7623  23.4217
 18.7853  23.4678
 18.8083  23.4724
 18.8313  23.429
 18.8543  23.4207
 18.8773  23.4046
 18.9003  23.4434
 18.9232  23.4721
 18.9463  23.486
 18.9693  23.3721
 18.9922  23.2828
 19.0153  23.4209
 19.0383  23.5169
 19.0613  23.5175
 19.0843  23.5428
 19.1073  23.5007
 19.1303  23.4473
 19.1533  23.5023
 19.1762  23.4243
 19.1993  23.4568
 19.2223  23.4761
 19.2453  23.5359
 19.2683  23.6388
 19.2913  23.4899
 19.3143  23.5003
 19.3373  23.5328
 19.3603  23.5864
 19.3833  23.5654
 19.4062  23.5602
 19.4293  23.5737
 19.4523  23.5819
 19.4752  23.5393
 19.4983  23.5325
 19.5213  23.4939
 19.5443  23.5645
 19.5673  23.5504
 19.5903  23.6214
 19.6133  23.687
 19.6363  23.6645
 19.6593  23.7463
 19.6823  23.9092
 19.7053  24.1315
 19.7283  24.2658
 19.7513  24.1952
 19.7742  24.0828
 19.7973  24.0182
 19.8203  24.1047
 19.8433  24.3348
 19.8663  24.2923
 19.8893  24.2153
 19.9123  24.2513
 19.9353  23.9143
 19.9582  23.778
 19.9813  23.6183
 20.0043  23.5443
 20.0272  23.5768
 20.0503  23.6422
 20.0733  23.5624
 20.0963  23.5626
 20.1193  23.5341
 20.1423  23.575
 20.1653  23.6081
 20.1883  23.5269
 20.2112  23.512
 20.2343  23.6506
 20.2573  23.6741
 20.2803  23.6604
 20.3033  23.5904
 20.3263  23.5393
 20.3493  23.6133
 20.3723  23.6527
 20.3953  23.6366
 20.4183  23.6828
 20.4413  23.7439
 20.4643  23.6502
 20.4873  23.5664
 20.5102  23.5769
 20.5333  23.5939
 20.5563  23.714
 20.5792  23.7135
 20.6023  23.7675
 20.6253  23.6856
 20.6483  23.6865
 20.6713  23.7749
 20.6943  23.9437
 20.7173  24.3496
 20.7403  24.8303
 20.7632  25.1927
 20.7863  25.0684
 20.8093  24.4712
 20.8323  24.066
 20.8553  23.8274
 20.8783  23.7338
 20.9013  23.7495
 20.9243  23.7883
 20.9473  23.8414
 20.9703  23.8071
 20.9933  23.885
 21.0163  23.933
 21.0393  23.8375
 21.0622  23.766
 21.0853  23.7085
 21.1083  23.7127
 21.1313  23.7275
 21.1543  23.6582
 21.1773  23.7667
 21.2003  23.8039
 21.2233  23.8137
 21.2462  23.8506
 21.2693  23.9202
 21.2923  23.8238
 21.3152  23.7677
 21.3383  23.851
 21.3613  23.9086
 21.3843  23.8076
 21.4073  23.7459
 21.4303  23.7744
 21.4533  23.7454
 21.4763  23.7526
 21.4992  23.8472
 21.5223  23.8799
 21.5453  23.9179
 21.5683  23.9706
 21.5913  24.0414
 21.6142  24.076
 21.6373  24.0917
 21.6603  24.0838
 21.6833  24.0218
 21.7063  24.0347
 21.7293  24.0476
 21.7523  24.1017
 21.7753  24.0902
 21.7982  24.0644
 21.8213  24.1115
 21.8443  24.1042
 21.8672  24.1489
 21.8903  24.1188
 21.9133  24.1257
 21.9363  24.155
 21.9593  24.1204
 21.9823  24.0122
 22.0053  24.0887
 22.0283  24.1796
 22.0512  24.1503
 22.0743  24.1219
 22.0973  24.1912
 22.1203  24.2678
 22.1433  24.2788
 22.1663  24.2556
 22.1893  24.2361
 22.2123  24.3078
 22.2353  24.3237
 22.2583  24.3573
 22.2813  24.3538
 22.3043  24.3564
 22.3273  24.3893
 22.3502  24.41
 22.3733  24.4799
 22.3963  24.4737
 22.4193  24.4349
 22.4423  24.5535
 22.4653  24.5388
 22.4883  24.4906
 22.5113  24.5614
 22.5343  24.5605
 22.5573  24.6371
 22.5803  24.6609
 22.6033  24.7784
 22.6263  24.982
 22.6493  24.8927
 22.6723  24.9131
 22.6953  25.1147
 22.7183  25.1571
 22.7413  25.1217
 22.7643  25.1376
 22.7873  25.1945
 22.8103  25.2524
 22.8333  25.3462
 22.8563  25.4191
 22.8793  25.5325
 22.9022  25.6564
 22.9253  25.8388
 22.9483  25.8393
 22.9713  25.9027
 22.9943  26.0985