File: test-data-xrd/xrd-map-34-ID-E/Data_0091.chi
F:\20151113_APS_34IDE\\Brian\Particle1\OCV\Data_0091.tif
2-Theta Angle (Degrees)
Intensity
       2000
 0.01725  0.0000000E+00
 0.04025  0.0000000E+00
 0.06325  0.0000000E+00
 0.08625  0.0000000E+00
 0.10925  0.0000000E+00
 0.13225  0.0000000E+00
 0.15525  0.0000000E+00
 0.17825  0.0000000E+00
 0.20125  0.0000000E+00
 0.22425  0.0000000E+00
 0.24725  0.0000000E+00
 0.27025  0.0000000E+00
 0.29325  0.0000000E+00
 0.31625  0.0000000E+00
 0.33925  0.0000000E+00
 0.36225  0.0000000E+00
 0.38525  0.0000000E+00
 0.40825  0.0000000E+00
 0.43125  0.0000000E+00
 0.45425  0.0000000E+00
 0.47725  0.0000000E+00
 0.50025  0.0000000E+00
 0.52325  0.0000000E+00
 0.54625  0.0000000E+00
 0.56925  0.0000000E+00
 0.59225  0.0000000E+00
 0.61525  0.0000000E+00
 0.63825  0.0000000E+00
 0.66125  0.0000000E+00
 0.68425  0.0000000E+00
 0.70725  0.0000000E+00
 0.73025  0.0000000E+00
 0.75325  0.0000000E+00
 0.77625  0.0000000E+00
 0.79925  0.0000000E+00
 0.82225  0.0000000E+00
 0.84525  0.0000000E+00
 0.86825  0.0000000E+00
 0.89125  0.0000000E+00
 0.91425  0.0000000E+00
 0.93725  0.0000000E+00
 0.96025  0.0000000E+00
 0.98325  0.0000000E+00
 1.00625  0.0000000E+00
 1.02925  0.0000000E+00
 1.05225  0.0000000E+00
 1.07525  0.0000000E+00
 1.09825  0.0000000E+00
 1.12125  0.0000000E+00
 1.14425  0.0000000E+00
 1.16725  0.0000000E+00
 1.19025  0.0000000E+00
 1.21325  0.0000000E+00
 1.23625  0.0000000E+00
 1.25925  0.0000000E+00
 1.28225  0.0000000E+00
 1.30525  0.0000000E+00
 1.32825  0.0000000E+00
 1.35125  0.0000000E+00
 1.37425  0.0000000E+00
 1.39725  0.0000000E+00
 1.42025  0.0000000E+00
 1.44325  0.0000000E+00
 1.46625  0.0000000E+00
 1.48925  0.0000000E+00
 1.51225  0.0000000E+00
 1.53525  0.0000000E+00
 1.55825  0.0000000E+00
 1.58125  0.0000000E+00
 1.60425  0.0000000E+00
 1.62725  0.0000000E+00
 1.65025  0.0000000E+00
 1.67325  0.0000000E+00
 1.69625  0.0000000E+00
 1.71925  0.0000000E+00
 1.74225  0.0000000E+00
 1.76525  0.0000000E+00
 1.78825  0.0000000E+00
 1.81125  0.0000000E+00
 1.83425  0.0000000E+00
 1.85725  0.0000000E+00
 1.88025  0.0000000E+00
 1.90325  0.0000000E+00
 1.92625  0.0000000E+00
 1.94925  0.0000000E+00
 1.97225  0.0000000E+00
 1.99525  0.0000000E+00
 2.01825  0.0000000E+00
 2.04125  0.0000000E+00
 2.06425  0.0000000E+00
 2.08725  0.0000000E+00
 2.11025  0.0000000E+00
 2.13325  0.0000000E+00
 2.15625  0.0000000E+00
 2.17925  0.0000000E+00
 2.20225  0.0000000E+00
 2.22525  0.0000000E+00
 2.24825  0.0000000E+00
 2.27125  0.0000000E+00
 2.29425  0.0000000E+00
 2.31725  0.0000000E+00
 2.34025  0.0000000E+00
 2.36325  0.0000000E+00
 2.38625  0.0000000E+00
 2.40925  0.0000000E+00
 2.43225  0.0000000E+00
 2.45525  0.0000000E+00
 2.47825  0.0000000E+00
 2.50125  0.0000000E+00
 2.52425  0.0000000E+00
 2.54725  0.0000000E+00
 2.57025  0.0000000E+00
 2.59325  0.0000000E+00
 2.61625  0.0000000E+00
 2.63925  0.0000000E+00
 2.66225  0.0000000E+00
 2.68525  0.0000000E+00
 2.70825  0.0000000E+00
 2.73125  0.0000000E+00
 2.75425  0.0000000E+00
 2.77725  0.0000000E+00
 2.80025  0.0000000E+00
 2.82325  37.6476
 2.84625  35.2792
 2.86925  34.6931
 2.89225  35.903
 2.91525  36.1026
 2.93825  35.9082
 2.96125  35.8134
 2.98425  35.1817
 3.00725  35.3942
 3.03025  36.2104
 3.05325  35.9486
 3.07625  36.3888
 3.09925  36.8254
 3.12225  35.8113
 3.14525  35.2343
 3.16825  35.416
 3.19125  35.007
 3.21425  34.5144
 3.23725  34.1941
 3.26025  33.5203
 3.28325  33.5747
 3.30625  33.8758
 3.32925  34.3702
 3.35225  34.4364
 3.37525  34.4993
 3.39825  34.2401
 3.42125  34.254
 3.44425  34.533
 3.46725  34.7205
 3.49025  34.7332
 3.51325  34.4767
 3.53625  34.3572
 3.55925  33.9604
 3.58225  33.9526
 3.60525  33.7353
 3.62825  33.3803
 3.65125  33.654
 3.67425  33.4584
 3.69725  33.4661
 3.72025  33.2041
 3.74325  33.0357
 3.76625  33.0808
 3.78925  33.0981
 3.81225  33.1719
 3.83525  33.1579
 3.85825  32.8643
 3.88125  32.9631
 3.90425  32.984
 3.92725  33.0645
 3.95025  33.1893
 3.97325  33.2995
 3.99625  33.1427
 4.01925  32.9846
 4.04225  32.7563
 4.06525  32.6585
 4.08825  32.8856
 4.11125  32.7328
 4.13425  32.6271
 4.15725  32.5993
 4.18025  32.3625
 4.20325  32.302
 4.22625  32.3127
 4.24925  32.4166
 4.27225  32.9395
 4.29525  33.3134
 4.31825  33.2271
 4.34125  32.8334
 4.36425  32.4679
 4.38725  32.4044
 4.41025  32.7095
 4.43325  32.9884
 4.45625  32.9445
 4.47925  32.8771
 4.50225  32.7358
 4.52525  32.6898
 4.54825  32.5383
 4.57125  32.5982
 4.59425  33.0473
 4.61725  33.2208
 4.64025  33.4058
 4.66325  33.4365
 4.68625  33.2654
 4.70925  33.1497
 4.73225  32.8802
 4.75525  32.7519
 4.77825  32.8309
 4.80125  32.9951
 4.82425  32.8834
 4.84725  33.0374
 4.87025  33.2468
 4.89325  33.162
 4.91625  33.0526
 4.93925  33.1589
 4.96225  33.2493
 4.98525  33.6037
 5.00825  33.6199
 5.03125  33.4977
 5.05425  33.4815
 5.07725  33.6084
 5.10025  33.6479
 5.12325  33.8493
 5.14625  34.0825
 5.16925  34.1081
 5.19225  34.0363
 5.21525  33.9155
 5.23825  33.9805
 5.26125  34.0062
 5.28425  34.066
 5.30725  34.3298
 5.33025  34.6045
 5.35325  34.7317
 5.37625  34.9851
 5.39925  35.2608
 5.42225  35.1376
 5.44525  34.8557
 5.46825  34.8474
 5.49125  34.9868
 5.51425  35.3711
 5.53725  35.6425
 5.56025  35.5906
 5.58325  35.5381
 5.60625  35.6336
 5.62925  35.6929
 5.65225  35.7895
 5.67525  35.8947
 5.69825  35.807
 5.72125  35.7883
 5.74425  35.9082
 5.76725  35.8879
 5.79025  35.9834
 5.81325  35.8861
 5.83625  36.0455
 5.85925  36.4409
 5.88225  36.6972
 5.90525  37.3983
 5.92825  39.5651
 5.95125  45.5751
 5.97425  51.9099
 5.99725  51.4185
 6.02025  45.7847
 6.04325  41.2668
 6.06625  38.7028
 6.08925  37.6758
 6.11225  37.3349
 6.13525  37.1413
 6.15825  37.1334
 6.18125  37.2034
 6.20425  37.2656
 6.22725  37.507
 6.25025  37.659
 6.27325  37.7547
 6.29625  37.8252
 6.31925  37.8203
 6.34225  38.1461
 6.36525  38.369
 6.38825  38.4112
 6.41125  38.6359
 6.43425  38.7484
 6.45725  38.7595
 6.48025  38.9015
 6.50325  39.2559
 6.52625  39.5492
 6.54925  39.5735
 6.57225  39.7124
 6.59525  39.8025
 6.61825  39.9401
 6.64125  40.1529
 6.66425  40.392
 6.68725  40.2252
 6.71025  40.2679
 6.73325  40.5502
 6.75625  40.9571
 6.77925  41.2945
 6.80225  41.3667
 6.82525  41.4355
 6.84825  41.6148
 6.87125  41.9436
 6.89425  42.3212
 6.91725  42.4099
 6.94025  42.3006
 6.96325  42.2229
 6.98625  42.1639
 7.00925  42.2658
 7.03225  42.536
 7.05525  42.6871
 7.07825  42.9719
 7.10125  43.2035
 7.12425  43.3091
 7.14725  43.2952
 7.17025  43.206
 7.19325  43.362
 7.21625  43.7427
 7.23925  43.8164
 7.26225  43.7218
 7.28525  43.7018
 7.30825  43.9336
 7.33125  44.0972
 7.35425  44.0499
 7.37725  44.1422
 7.40025  44.3017
 7.42325  44.4382
 7.44625  44.4311
 7.46925  44.5367
 7.49225  44.6028
 7.51525  44.5212
 7.53825  44.4312
 7.56125  44.3775
 7.58425  44.4609
 7.60725  44.6887
 7.63025  44.8575
 7.65325  45.2244
 7.67625  45.504
 7.69925  44.5715
 7.72225  44.4924
 7.74525  44.417
 7.76825  44.1255
 7.79125  44.1149
 7.81425  44.1761
 7.83725  44.2267
 7.86025  44.0787
 7.88325  43.9542
 7.90625  43.9004
 7.92925  43.8655
 7.95225  43.7654
 7.97525  43.5331
 7.99825  43.5345
 8.02125  43.3484
 8.04425  43.3067
 8.06725  43.0995
 8.09025  42.8637
 8.11325  42.6584
 8.13625  42.361
 8.15925  42.1413
 8.18225  42.0355
 8.20525  41.7592
 8.22825  41.5981
 8.25125  41.5177
 8.27425  41.3038
 8.29725  40.9407
 8.32025  41.2145
 8.34325  41.2752
 8.36625  40.8242
 8.38925  39.6848
 8.41225  39.3096
 8.43525  38.9413
 8.45825  38.608
 8.48125  38.1015
 8.50425  37.7477
 8.52725  37.5182
 8.55025  37.2854
 8.57325  36.9321
 8.59625  36.6216
 8.61925  36.2376
 8.64225  35.9185
 8.66525  35.4929
 8.68825  35.0762
 8.71125  34.6706
 8.73425  34.3924
 8.75725  34.1253
 8.78025  33.6637
 8.80325  33.2406
 8.82625  33.1018
 8.84925  32.9801
 8.87225  32.6527
 8.89525  32.1143
 8.91825  31.6267
 8.94125  31.4003
 8.96425  31.2973
 8.98725  31.0157
 9.01025  30.6582
 9.03325  30.4017
 9.05625  30.1545
 9.07925  29.8108
 9.10225  29.4478
 9.12525  29.3366
 9.14825  29.2168
 9.17125  28.9567
 9.19425  28.6944
 9.21725  28.3951
 9.24025  28.1598
 9.26325  28.0877
 9.28625  27.8441
 9.30925  27.5495
 9.33225  27.3077
 9.35525  27.1634
 9.37825  26.9857
 9.40125  26.8336
 9.42425  26.5756
 9.44725  26.4147
 9.47025  26.3224
 9.49325  26.22
 9.51625  26.0889
 9.53925  25.9582
 9.56225  25.9435
 9.58525  25.8403
 9.60825  25.793
 9.63125  25.6696
 9.65425  25.5929
 9.67725  25.4078
 9.70025  25.2446
 9.72325  25.1529
 9.74625  25.1595
 9.76925  25.0431
 9.79225  24.9684
 9.81525  24.8733
 9.83825  24.7199
 9.86125  24.5609
 9.88425  24.505
 9.90725  24.5278
 9.93025  24.4252
 9.95325  24.2625
 9.97625  24.3556
 9.99925  24.3987
 10.0222  24.2074
 10.0453  24.0623
 10.0683  23.953
 10.0913  23.9538
 10.1143  23.8877
 10.1373  23.833
 10.1603  23.899
 10.1832  23.871
 10.2063  23.7553
 10.2293  23.7135
 10.2523  23.6079
 10.2752  23.5431
 10.2982  23.6106
 10.3213  23.6476
 10.3443  23.5775
 10.3673  23.523
 10.3902  23.4719
 10.4133  23.4167
 10.4363  23.2812
 10.4593  23.2365
 10.4823  23.2271
 10.5053  23.2542
 10.5283  23.1054
 10.5512  23.0514
 10.5742  22.9657
 10.5973  22.8834
 10.6203  22.9313
 10.6433  23.0469
 10.6662  23.0444
 10.6893  22.8182
 10.7123  22.7698
 10.7353  22.8466
 10.7583  22.8107
 10.7813  22.8587
 10.8043  22.8762
 10.8272  22.8819
 10.8503  22.8964
 10.8733  22.8462
 10.8963  22.7382
 10.9192  22.6878
 10.9422  22.5251
 10.9653  22.4611
 10.9883  22.4429
 11.0113  22.4974
 11.0343  22.5548
 11.0573  22.4362
 11.0803  22.5111
 11.1033  22.4807
 11.1263  22.4909
 11.1493  22.4442
 11.1723  22.4691
 11.1953  22.4593
 11.2182  22.4614
 11.2413  22.4777
 11.2643  22.5189
 11.2873  22.5107
 11.3102  22.5552
 11.3333  22.5632
 11.3563  22.5222
 11.3793  22.7022
 11.4023  22.859
 11.4253  22.9101
 11.4483  22.9891
 11.4713  23.1727
 11.4942  23.3024
 11.5173  23.9492
 11.5403  26.1763
 11.5633  29.8012
 11.5862  33.9868
 11.6093  33.6581
 11.6323  30.3846
 11.6553  26.3331
 11.6783  24.2417
 11.7013  23.3373
 11.7243  23.0181
 11.7473  22.9328
 11.7703  22.7057
 11.7933  22.6436
 11.8163  22.7149
 11.8393  22.662
 11.8622  22.6147
 11.8853  22.6789
 11.9083  22.8783
 11.9313  23.2378
 11.9543  23.7757
 11.9773  24.1072
 12.0003  23.9785
 12.0233  23.6318
 12.0463  23.9746
 12.0693  25.1373
 12.0923  26.4508
 12.1153  26.3992
 12.1382  25.0522
 12.1613  23.7908
 12.1843  23.0998
 12.2073  22.8948
 12.2302  22.7743
 12.2533  22.6175
 12.2763  22.5713
 12.2993  22.5844
 12.3223  22.561
 12.3453  22.5028
 12.3683  22.5419
 12.3913  22.6135
 12.4142  22.6563
 12.4373  22.5919
 12.4603  22.6057
 12.4833  22.604
 12.5062  22.606
 12.5292  22.6833
 12.5523  22.7893
 12.5753  22.8167
 12.5983  22.8392
 12.6212  22.9184
 12.6443  22.8098
 12.6673  22.6914
 12.6903  22.7627
 12.7133  22.9528
 12.7363  23.1088
 12.7593  23.1211
 12.7822  23.1429
 12.8052  23.0659
 12.8283  23.1022
 12.8513  23.2494
 12.8742  23.3744
 12.8972  23.4643
 12.9203  23.5905
 12.9433  23.7856
 12.9663  23.8845
 12.9893  24.0297
 13.0123  24.1776
 13.0353  24.2416
 13.0582  24.3285
 13.0813  24.4548
 13.1043  24.7143
 13.1273  25.0358
 13.1502  25.2252
 13.1732  25.463
 13.1963  25.7216
 13.2193  26.016
 13.2423  26.4129
 13.2652  26.6648
 13.2883  27.0442
 13.3113  27.3645
 13.3343  27.6728
 13.3573  28.0634
 13.3803  28.1712
 13.4033  28.3079
 13.4262  28.4626
 13.4492  28.6218
 13.4723  28.7363
 13.4953  29.1044
 13.5183  29.4467
 13.5412  29.6377
 13.5643  29.7392
 13.5873  29.7462
 13.6103  29.7698
 13.6333  29.8716
 13.6563  29.7354
 13.6793  29.6665
 13.7022  29.5758
 13.7253  29.5724
 13.7483  29.5728
 13.7713  29.5083
 13.7942  29.5407
 13.8172  29.5251
 13.8403  29.6983
 13.8633  30.004
 13.8863  31.1993
 13.9093  33.921
 13.9323  37.5242
 13.9553  39.4472
 13.9783  38.0313
 14.0013  34.7492
 14.0243  31.3393
 14.0473  29.1813
 14.0703  28.257
 14.0932  27.807
 14.1163  27.5937
 14.1393  27.4032
 14.1623  27.1623
 14.1852  26.9512
 14.2083  26.7953
 14.2313  26.6121
 14.2543  26.5384
 14.2773  26.4405
 14.3003  26.2774
 14.3233  26.1621
 14.3463  26.1473
 14.3692  26.1414
 14.3923  26.08
 14.4153  25.9743
 14.4383  25.8761
 14.4612  25.8212
 14.4843  25.753
 14.5073  25.7271
 14.5303  25.7793
 14.5533  25.7832
 14.5763  25.6987
 14.5993  25.6239
 14.6223  25.6008
 14.6453  25.5083
 14.6683  25.3657
 14.6913  25.3741
 14.7143  25.3507
 14.7372  25.2506
 14.7603  25.161
 14.7833  25.08
 14.8063  25.0524
 14.8293  24.9489
 14.8523  25.0226
 14.8753  25.0051
 14.8983  25.014
 14.9213  24.9724
 14.9443  24.907
 14.9673  24.8398
 14.9903  24.8201
 15.0132  24.7757
 15.0363  24.8266
 15.0593  24.8401
 15.0823  24.9299
 15.1052  25.0599
 15.1283  25.3572
 15.1513  26.0608
 15.1743  27.0744
 15.1973  27.6717
 15.2203  27.2311
 15.2433  26.1461
 15.2663  25.1967
 15.2892  24.8336
 15.3123  24.7443
 15.3353  24.6964
 15.3583  24.7955
 15.3812  24.7788
 15.4043  24.7179
 15.4273  24.6369
 15.4503  24.6237
 15.4733  24.5843
 15.4963  24.6153
 15.5193  24.6841
 15.5423  24.6656
 15.5653  24.666
 15.5883  24.6964
 15.6113  24.6538
 15.6343  24.5488
 15.6572  24.5429
 15.6803  24.5345
 15.7033  24.5478
 15.7263  24.6616
 15.7492  24.6262
 15.7723  24.6478
 15.7953  24.7127
 15.8183  24.7914
 15.8413  24.6842
 15.8643  24.6631
 15.8873  24.6989
 15.9103  24.8327
 15.9332  24.8554
 15.9563  24.8427
 15.9793  24.7944
 16.0023  24.783
 16.0253  24.7494
 16.0482  24.7704
 16.0713  24.7409
 16.0943  24.7182
 16.1172  24.7822
 16.1403  24.8985
 16.1633  25.0232
 16.1863  25.1898
 16.2093  25.6863
 16.2323  26.4286
 16.2553  26.9852
 16.2783  26.6567
 16.3012  25.7019
 16.3243  25.1192
 16.3472  24.8556
 16.3703  24.8246
 16.3933  24.9431
 16.4163  24.8718
 16.4393  24.8178
 16.4623  24.8095
 16.4853  24.7755
 16.5083  24.7344
 16.5312  24.6662
 16.5543  24.6733
 16.5773  24.6109
 16.6002  24.6655
 16.6233  24.6588
 16.6463  24.6728
 16.6693  24.6684
 16.6923  24.7162
 16.7153  24.6853
 16.7383  24.558
 16.7613  24.5514
 16.7843  24.5274
 16.8073  24.4795
 16.8303  24.4628
 16.8533  24.4062
 16.8763  24.4019
 16.8992  24.3777
 16.9223  24.3641
 16.9453  24.4039
 16.9683  24.4504
 16.9913  24.4409
 17.0143  24.4344
 17.0373  24.3059
 17.0603  24.2017
 17.0832  24.256
 17.1063  24.2732
 17.1293  24.3059
 17.1522  24.3458
 17.1753  24.3007
 17.1983  24.2861
 17.2213  24.3119
 17.2443  24.2923
 17.2673  24.2205
 17.2903  24.2688
 17.3133  24.2669
 17.3362  24.1943
 17.3593  24.141
 17.3823  24.1195
 17.4053  24.0406
 17.4283  24.0047
 17.4513  24.0413
 17.4743  24.043
 17.4973  24.0296
 17.5203  23.9795
 17.5433  23.9462
 17.5663  23.8944
 17.5893  23.759
 17.6123  23.7904
 17.6352  23.9127
 17.6583  23.9102
 17.6813  23.911
 17.7042  24.0247
 17.7273  24.0036
 17.7503  23.9185
 17.7733  23.9442
 17.7963  23.983
 17.8193  23.9601
 17.8423  24.0071
 17.8653  24.018
 17.8882  24.0158
 17.9113  24.1299
 17.9343  24.2498
 17.9573  24.2122
 17.9803  24.3042
 18.0033  24.6709
 18.0263  25.2664
 18.0493  26.4222
 18.0723  29.6538
 18.0953  33.1994
 18.1183  34.0637
 18.1413  30.5382
 18.1643  26.8257
 18.1872  24.9283
 18.2103  24.3561
 18.2333  24.1081
 18.2563  23.9849
 18.2793  23.8903
 18.3023  23.8307
 18.3253  23.7639
 18.3483  23.7358
 18.3712  23.7895
 18.3943  23.7882
 18.4173  23.7127
 18.4402  23.7303
 18.4633  23.7905
 18.4863  23.7664
 18.5093  23.749
 18.5323  23.6871
 18.5553  23.6406
 18.5783  23.8399
 18.6013  23.8761
 18.6242  23.689
 18.6473  23.5785
 18.6703  23.5585
 18.6933  23.6528
 18.7163  23.6467
 18.7392  23.6086
 18.7623  23.5827
 18.7853  23.5762
 18.8083  23.5554
 18.8313  23.455
 18.8543  23.4925
 18.8773  23.5097
 18.9003  23.4649
 18.9232  23.528
 18.9463  23.5917
 18.9693  23.5248
 18.9922  23.4768
 19.0153  23.5552
 19.0383  23.5859
 19.0613  23.5578
 19.0843  23.6245
 19.1073  23.5642
 19.1303  23.5997
 19.1533  23.7231
 19.1762  23.6835
 19.1993  23.7019
 19.2223  23.7066
 19.2453  23.6344
 19.2683  23.6366
 19.2913  23.6187
 19.3143  23.6827
 19.3373  23.6709
 19.3603  23.7283
 19.3833  23.6734
 19.4062  23.6926
 19.4293  23.7532
 19.4523  23.7926
 19.4752  23.8558
 19.4983  23.8542
 19.5213  23.8911
 19.5443  23.9387
 19.5673  23.8427
 19.5903  23.9233
 19.6133  24.2697
 19.6363  24.6105
 19.6593  25.3066
 19.6823  26.4615
 19.7053  27.0766
 19.7283  27.0961
 19.7513  26.813
 19.7742  27.3249
 19.7973  30.3454
 19.8203  33.0883
 19.8433  33.1793
 19.8663  29.3791
 19.8893  27.6655
 19.9123  26.2208
 19.9353  25.1061
 19.9582  24.4887
 19.9813  24.1298
 20.0043  23.9825
 20.0272  23.961
 20.0503  24.0033
 20.0733  23.9663
 20.0963  23.9435
 20.1193  23.9153
 20.1423  23.8622
 20.1653  23.8835
 20.1883  23.9536
 20.2112  24.0561
 20.2343  24.0534
 20.2573  24.057
 20.2803  23.9822
 20.3033  23.8274
 20.3263  23.7031
 20.3493  23.6749
 20.3723  23.6896
 20.3953  23.6865
 20.4183  23.7833
 20.4413  23.8411
 20.4643  23.8651
 20.4873  23.8774
 20.5102  23.866
 20.5333  23.8156
 20.5563  23.8791
 20.5792  23.8423
 20.6023  23.912
 20.6253  24.0144
 20.6483  24.183
 20.6713  24.4187
 20.6943  24.955
 20.7173  25.8867
 20.7403  27.0331
 20.7632  27.5225
 20.7863  26.8754
 20.8093  25.7124
 20.8323  24.869
 20.8553  24.3782
 20.8783  24.0937
 20.9013  24.0756
 20.9243  24.1118
 20.9473  24.0674
 20.9703  24.0236
 20.9933  23.9531
 21.0163  23.9078
 21.0393  23.9116
 21.0622  23.9259
 21.0853  23.9459
 21.1083  23.9027
 21.1313  23.9672
 21.1543  23.8991
 21.1773  23.8977
 21.2003  23.9497
 21.2233  23.9418
 21.2462  23.9901
 21.2693  24.0301
 21.2923  24.0085
 21.3152  23.9621
 21.3383  24.0281
 21.3613  24.167
 21.3843  24.12
 21.4073  23.9054
 21.4303  23.9208
 21.4533  23.9007
 21.4763  23.9692
 21.4992  24.1232
 21.5223  24.1103
 21.5453  24.0654
 21.5683  24.0073
 21.5913  24.1263
 21.6142  24.1443
 21.6373  24.0971
 21.6603  24.055
 21.6833  24.1328
 21.7063  24.1439
 21.7293  24.1486
 21.7523  24.1104
 21.7753  24.1108
 21.7982  24.1131
 21.8213  24.0947
 21.8443  24.0837
 21.8672  24.2115
 21.8903  24.2029
 21.9133  24.312
 21.9363  24.3499
 21.9593  24.2389
 21.9823  24.2071
 22.0053  24.2056
 22.0283  24.3125
 22.0512  24.3708
 22.0743  24.3163
 22.0973  24.3169
 22.1203  24.3453
 22.1433  24.3839
 22.1663  24.3264
 22.1893  24.2795
 22.2123  24.3492
 22.2353  24.4471
 22.2583  24.4859
 22.2813  24.5038
 22.3043  24.5314
 22.3273  24.5398
 22.3502  24.6058
 22.3733  24.5315
 22.3963  24.4966
 22.4193  24.4771
 22.4423  24.5798
 22.4653  24.6195
 22.4883  24.6561
 22.5113  24.8151
 22.5343  24.9035
 22.5573  24.8237
 22.5803  24.8654
 22.6033  24.906
 22.6263  25.0864
 22.6493  25.0656
 22.6723  25.0047
 22.6953  25.129
 22.7183  25.1218
 22.7413  25.2706
 22.7643  25.3019
 22.7873  25.3435
 22.8103  25.4431
 22.8333  25.59
 22.8563  25.5997
 22.8793  25.6428
 22.9022  25.7582
 22.9253  25.8946
 22.9483  26.0307
 22.9713  26.2378
 22.9943  26.5105