File: test-data-xrd/xrd-map-34-ID-E/Data_0084.chi
F:\20151113_APS_34IDE\\Brian\Particle1\OCV\Data_0084.tif
2-Theta Angle (Degrees)
Intensity
       2000
 0.01725  0.0000000E+00
 0.04025  0.0000000E+00
 0.06325  0.0000000E+00
 0.08625  0.0000000E+00
 0.10925  0.0000000E+00
 0.13225  0.0000000E+00
 0.15525  0.0000000E+00
 0.17825  0.0000000E+00
 0.20125  0.0000000E+00
 0.22425  0.0000000E+00
 0.24725  0.0000000E+00
 0.27025  0.0000000E+00
 0.29325  0.0000000E+00
 0.31625  0.0000000E+00
 0.33925  0.0000000E+00
 0.36225  0.0000000E+00
 0.38525  0.0000000E+00
 0.40825  0.0000000E+00
 0.43125  0.0000000E+00
 0.45425  0.0000000E+00
 0.47725  0.0000000E+00
 0.50025  0.0000000E+00
 0.52325  0.0000000E+00
 0.54625  0.0000000E+00
 0.56925  0.0000000E+00
 0.59225  0.0000000E+00
 0.61525  0.0000000E+00
 0.63825  0.0000000E+00
 0.66125  0.0000000E+00
 0.68425  0.0000000E+00
 0.70725  0.0000000E+00
 0.73025  0.0000000E+00
 0.75325  0.0000000E+00
 0.77625  0.0000000E+00
 0.79925  0.0000000E+00
 0.82225  0.0000000E+00
 0.84525  0.0000000E+00
 0.86825  0.0000000E+00
 0.89125  0.0000000E+00
 0.91425  0.0000000E+00
 0.93725  0.0000000E+00
 0.96025  0.0000000E+00
 0.98325  0.0000000E+00
 1.00625  0.0000000E+00
 1.02925  0.0000000E+00
 1.05225  0.0000000E+00
 1.07525  0.0000000E+00
 1.09825  0.0000000E+00
 1.12125  0.0000000E+00
 1.14425  0.0000000E+00
 1.16725  0.0000000E+00
 1.19025  0.0000000E+00
 1.21325  0.0000000E+00
 1.23625  0.0000000E+00
 1.25925  0.0000000E+00
 1.28225  0.0000000E+00
 1.30525  0.0000000E+00
 1.32825  0.0000000E+00
 1.35125  0.0000000E+00
 1.37425  0.0000000E+00
 1.39725  0.0000000E+00
 1.42025  0.0000000E+00
 1.44325  0.0000000E+00
 1.46625  0.0000000E+00
 1.48925  0.0000000E+00
 1.51225  0.0000000E+00
 1.53525  0.0000000E+00
 1.55825  0.0000000E+00
 1.58125  0.0000000E+00
 1.60425  0.0000000E+00
 1.62725  0.0000000E+00
 1.65025  0.0000000E+00
 1.67325  0.0000000E+00
 1.69625  0.0000000E+00
 1.71925  0.0000000E+00
 1.74225  0.0000000E+00
 1.76525  0.0000000E+00
 1.78825  0.0000000E+00
 1.81125  0.0000000E+00
 1.83425  0.0000000E+00
 1.85725  0.0000000E+00
 1.88025  0.0000000E+00
 1.90325  0.0000000E+00
 1.92625  0.0000000E+00
 1.94925  0.0000000E+00
 1.97225  0.0000000E+00
 1.99525  0.0000000E+00
 2.01825  0.0000000E+00
 2.04125  0.0000000E+00
 2.06425  0.0000000E+00
 2.08725  0.0000000E+00
 2.11025  0.0000000E+00
 2.13325  0.0000000E+00
 2.15625  0.0000000E+00
 2.17925  0.0000000E+00
 2.20225  0.0000000E+00
 2.22525  0.0000000E+00
 2.24825  0.0000000E+00
 2.27125  0.0000000E+00
 2.29425  0.0000000E+00
 2.31725  0.0000000E+00
 2.34025  0.0000000E+00
 2.36325  0.0000000E+00
 2.38625  0.0000000E+00
 2.40925  0.0000000E+00
 2.43225  0.0000000E+00
 2.45525  0.0000000E+00
 2.47825  0.0000000E+00
 2.50125  0.0000000E+00
 2.52425  0.0000000E+00
 2.54725  0.0000000E+00
 2.57025  0.0000000E+00
 2.59325  0.0000000E+00
 2.61625  0.0000000E+00
 2.63925  0.0000000E+00
 2.66225  0.0000000E+00
 2.68525  0.0000000E+00
 2.70825  0.0000000E+00
 2.73125  0.0000000E+00
 2.75425  0.0000000E+00
 2.77725  0.0000000E+00
 2.80025  0.0000000E+00
 2.82325  34.4115
 2.84625  34.6253
 2.86925  34.8083
 2.89225  35.2502
 2.91525  35.2467
 2.93825  35.3718
 2.96125  35.1306
 2.98425  34.968
 3.00725  36.2226
 3.03025  36.9943
 3.05325  36.1518
 3.07625  35.4502
 3.09925  35.812
 3.12225  35.5884
 3.14525  35.7536
 3.16825  35.9034
 3.19125  36.4378
 3.21425  36.6125
 3.23725  36.2104
 3.26025  36.3026
 3.28325  36.7354
 3.30625  36.4689
 3.32925  36.2379
 3.35225  36.0295
 3.37525  35.7467
 3.39825  35.3654
 3.42125  34.9576
 3.44425  34.796
 3.46725  34.7534
 3.49025  34.3201
 3.51325  33.4687
 3.53625  33.3217
 3.55925  33.482
 3.58225  34.0322
 3.60525  33.9394
 3.62825  33.7773
 3.65125  33.5537
 3.67425  33.6631
 3.69725  33.4184
 3.72025  33.1215
 3.74325  33.5387
 3.76625  33.7772
 3.78925  33.2723
 3.81225  33.1928
 3.83525  33.0517
 3.85825  33.0889
 3.88125  32.96
 3.90425  32.6529
 3.92725  32.4412
 3.95025  32.6559
 3.97325  32.7822
 3.99625  33.0169
 4.01925  33.0797
 4.04225  32.8128
 4.06525  32.6421
 4.08825  32.3722
 4.11125  32.2365
 4.13425  32.565
 4.15725  32.6469
 4.18025  32.5418
 4.20325  32.5314
 4.22625  32.5021
 4.24925  32.6835
 4.27225  32.8987
 4.29525  33.3041
 4.31825  33.1165
 4.34125  32.786
 4.36425  32.6243
 4.38725  32.3975
 4.41025  32.5111
 4.43325  32.6265
 4.45625  32.6185
 4.47925  32.8639
 4.50225  32.666
 4.52525  32.6808
 4.54825  32.8549
 4.57125  32.8547
 4.59425  32.8053
 4.61725  32.7824
 4.64025  32.7396
 4.66325  32.8951
 4.68625  33.0729
 4.70925  33.3796
 4.73225  33.1503
 4.75525  32.9896
 4.77825  32.778
 4.80125  32.7247
 4.82425  32.7749
 4.84725  32.8714
 4.87025  32.9087
 4.89325  32.8214
 4.91625  32.9248
 4.93925  33.0605
 4.96225  32.971
 4.98525  32.8997
 5.00825  33.1056
 5.03125  33.1555
 5.05425  33.2405
 5.07725  33.2769
 5.10025  33.4999
 5.12325  33.5378
 5.14625  33.7586
 5.16925  33.7064
 5.19225  33.8127
 5.21525  34.0645
 5.23825  34.1704
 5.26125  34.0539
 5.28425  34.0832
 5.30725  34.2578
 5.33025  34.1805
 5.35325  34.1781
 5.37625  34.1878
 5.39925  34.4363
 5.42225  34.6168
 5.44525  34.7974
 5.46825  34.9497
 5.49125  34.8769
 5.51425  35.1987
 5.53725  35.397
 5.56025  35.3423
 5.58325  35.2221
 5.60625  35.1607
 5.62925  35.286
 5.65225  35.6034
 5.67525  36.052
 5.69825  36.2276
 5.72125  36.0036
 5.74425  35.8474
 5.76725  35.8954
 5.79025  36.1129
 5.81325  36.2432
 5.83625  36.4109
 5.85925  36.7016
 5.88225  37.0934
 5.90525  37.7913
 5.92825  39.8217
 5.95125  45.244
 5.97425  52.2064
 5.99725  54.2528
 6.02025  48.0911
 6.04325  41.5399
 6.06625  38.661
 6.08925  37.6329
 6.11225  37.3152
 6.13525  37.0857
 6.15825  37.0736
 6.18125  37.1406
 6.20425  37.1023
 6.22725  37.3432
 6.25025  37.4931
 6.27325  37.6912
 6.29625  37.797
 6.31925  37.8709
 6.34225  38.0338
 6.36525  38.1323
 6.38825  38.2379
 6.41125  38.5694
 6.43425  38.7312
 6.45725  38.741
 6.48025  38.7845
 6.50325  38.9827
 6.52625  39.2306
 6.54925  39.4222
 6.57225  39.6376
 6.59525  39.7808
 6.61825  39.7701
 6.64125  39.9504
 6.66425  40.2589
 6.68725  40.3572
 6.71025  40.4552
 6.73325  40.59
 6.75625  40.7507
 6.77925  40.843
 6.80225  40.9899
 6.82525  41.1597
 6.84825  41.4138
 6.87125  41.597
 6.89425  41.6765
 6.91725  41.9162
 6.94025  42.1394
 6.96325  42.4053
 6.98625  42.3609
 7.00925  42.415
 7.03225  42.5085
 7.05525  42.7799
 7.07825  43.0215
 7.10125  43.0879
 7.12425  43.2324
 7.14725  43.1867
 7.17025  43.3775
 7.19325  43.5518
 7.21625  43.7408
 7.23925  43.9936
 7.26225  44.1894
 7.28525  44.2301
 7.30825  44.2073
 7.33125  44.096
 7.35425  44.1437
 7.37725  44.106
 7.40025  44.1028
 7.42325  44.2078
 7.44625  44.2459
 7.46925  44.3479
 7.49225  44.4021
 7.51525  44.4649
 7.53825  44.5638
 7.56125  44.5422
 7.58425  44.7109
 7.60725  44.7128
 7.63025  44.4358
 7.65325  44.2587
 7.67625  44.2755
 7.69925  44.2474
 7.72225  44.2263
 7.74525  44.1609
 7.76825  44.1414
 7.79125  44.1646
 7.81425  44.0875
 7.83725  44.2004
 7.86025  44.189
 7.88325  44.0405
 7.90625  44.0718
 7.92925  43.9442
 7.95225  43.6572
 7.97525  43.4869
 7.99825  43.5333
 8.02125  43.5412
 8.04425  43.3201
 8.06725  43.0943
 8.09025  43.0013
 8.11325  42.8621
 8.13625  42.4693
 8.15925  42.1748
 8.18225  41.969
 8.20525  41.7228
 8.22825  41.5943
 8.25125  41.4907
 8.27425  41.1786
 8.29725  40.788
 8.32025  40.4963
 8.34325  40.1701
 8.36625  39.96
 8.38925  39.7207
 8.41225  39.3834
 8.43525  39.0606
 8.45825  38.731
 8.48125  38.2892
 8.50425  37.8882
 8.52725  37.6231
 8.55025  37.2232
 8.57325  36.7934
 8.59625  36.4712
 8.61925  36.2098
 8.64225  35.88
 8.66525  35.4874
 8.68825  35.2269
 8.71125  34.8884
 8.73425  34.5569
 8.75725  34.1013
 8.78025  33.7461
 8.80325  33.4573
 8.82625  33.2541
 8.84925  33.047
 8.87225  32.7036
 8.89525  32.2797
 8.91825  31.8742
 8.94125  31.6435
 8.96425  31.3599
 8.98725  31.0972
 9.01025  30.7454
 9.03325  30.2668
 9.05625  30.0412
 9.07925  29.9939
 9.10225  29.6543
 9.12525  29.2735
 9.14825  29.1494
 9.17125  29.0734
 9.19425  28.894
 9.21725  28.6071
 9.24025  28.4292
 9.26325  28.2242
 9.28625  28.0382
 9.30925  27.7459
 9.33225  27.4229
 9.35525  27.2719
 9.37825  27.2032
 9.40125  27.0727
 9.42425  26.9972
 9.44725  26.8238
 9.47025  26.7686
 9.49325  26.7611
 9.51625  26.6507
 9.53925  26.3491
 9.56225  26.1144
 9.58525  25.9072
 9.60825  26.0256
 9.63125  25.9663
 9.65425  25.7046
 9.67725  25.4627
 9.70025  25.397
 9.72325  25.4046
 9.74625  25.2608
 9.76925  25.0984
 9.79225  25.0105
 9.81525  24.9789
 9.83825  24.8076
 9.86125  24.7636
 9.88425  24.7567
 9.90725  24.7017
 9.93025  24.6223
 9.95325  24.5571
 9.97625  24.4852
 9.99925  24.3679
 10.0222  24.2052
 10.0453  24.1156
 10.0683  24.1427
 10.0913  24.1394
 10.1143  24.0967
 10.1373  24.0076
 10.1603  23.9543
 10.1832  23.9224
 10.2063  23.991
 10.2293  24.0153
 10.2523  23.9336
 10.2752  23.7404
 10.2982  23.7024
 10.3213  23.6838
 10.3443  23.6422
 10.3673  23.6516
 10.3902  23.6414
 10.4133  23.6318
 10.4363  23.4535
 10.4593  23.2897
 10.4823  23.2766
 10.5053  23.3001
 10.5283  23.2846
 10.5512  23.2577
 10.5742  23.2345
 10.5973  23.156
 10.6203  23.1336
 10.6433  23.2649
 10.6662  23.2341
 10.6893  23.1549
 10.7123  23.1161
 10.7353  23.1438
 10.7583  23.0495
 10.7813  23.0718
 10.8043  23.0855
 10.8272  23.0655
 10.8503  22.9392
 10.8733  22.996
 10.8963  22.9462
 10.9192  22.8685
 10.9422  22.8267
 10.9653  22.8479
 10.9883  22.8057
 11.0113  22.6512
 11.0343  22.5944
 11.0573  22.5636
 11.0803  22.6202
 11.1033  22.7701
 11.1263  22.8303
 11.1493  22.7475
 11.1723  22.7375
 11.1953  22.6901
 11.2182  22.6144
 11.2413  22.5696
 11.2643  22.6622
 11.2873  22.6514
 11.3102  22.592
 11.3333  22.6016
 11.3563  22.6134
 11.3793  22.7769
 11.4023  23.0566
 11.4253  23.1295
 11.4483  23.0954
 11.4713  23.1439
 11.4942  23.3058
 11.5173  23.6898
 11.5403  24.9385
 11.5633  27.9095
 11.5862  31.2775
 11.6093  31.7732
 11.6323  28.9014
 11.6553  25.7348
 11.6783  23.9452
 11.7013  23.2279
 11.7243  22.8562
 11.7473  22.7317
 11.7703  22.7075
 11.7933  22.651
 11.8163  22.6654
 11.8393  22.7186
 11.8622  22.7421
 11.8853  22.7112
 11.9083  22.7419
 11.9313  23.0512
 11.9543  23.5996
 11.9773  23.9532
 12.0003  24.0655
 12.0233  23.9457
 12.0463  24.4112
 12.0693  25.8741
 12.0923  27.4801
 12.1153  26.7694
 12.1382  25.0097
 12.1613  23.6271
 12.1843  23.0862
 12.2073  22.8041
 12.2302  22.6498
 12.2533  22.6575
 12.2763  22.602
 12.2993  22.6025
 12.3223  22.7169
 12.3453  22.8192
 12.3683  22.8084
 12.3913  22.7368
 12.4142  22.6139
 12.4373  22.5912
 12.4603  22.6727
 12.4833  22.8459
 12.5062  22.8948
 12.5292  22.9126
 12.5523  22.8956
 12.5753  22.8698
 12.5983  22.8829
 12.6212  22.9142
 12.6443  22.8716
 12.6673  22.8738
 12.6903  23.0204
 12.7133  23.0665
 12.7363  23.0542
 12.7593  23.1211
 12.7822  23.2216
 12.8052  23.1743
 12.8283  23.1924
 12.8513  23.3628
 12.8742  23.4868
 12.8972  23.5698
 12.9203  23.6806
 12.9433  23.7523
 12.9663  23.8754
 12.9893  24.0513
 13.0123  24.2073
 13.0353  24.3457
 13.0582  24.5894
 13.0813  24.6682
 13.1043  24.9634
 13.1273  25.2144
 13.1502  25.4771
 13.1732  25.7077
 13.1963  25.8956
 13.2193  26.1652
 13.2423  26.4885
 13.2652  26.7319
 13.2883  26.9655
 13.3113  27.2477
 13.3343  27.4966
 13.3573  27.8022
 13.3803  28.0089
 13.4033  28.2309
 13.4262  28.4541
 13.4492  28.7821
 13.4723  28.992
 13.4953  29.2951
 13.5183  29.5369
 13.5412  29.6788
 13.5643  29.8307
 13.5873  29.9962
 13.6103  29.9986
 13.6333  30.0595
 13.6563  30.0971
 13.6793  30.1393
 13.7022  30.0797
 13.7253  30.0517
 13.7483  30.0389
 13.7713  30.1143
 13.7942  30.151
 13.8172  30.4272
 13.8403  31.1122
 13.8633  32.5514
 13.8863  35.3775
 13.9093  43.0957
 13.9323  59.5825
 13.9553  76.507
 13.9783  76.2896
 14.0013  57.7841
 14.0243  39.8236
 14.0473  32.3331
 14.0703  29.9194
 14.0932  29.0513
 14.1163  28.4945
 14.1393  28.1277
 14.1623  27.7961
 14.1852  27.5266
 14.2083  27.278
 14.2313  27.0199
 14.2543  26.8567
 14.2773  26.6968
 14.3003  26.6611
 14.3233  26.5633
 14.3463  26.4314
 14.3692  26.2361
 14.3923  26.074
 14.4153  26.0403
 14.4383  26.031
 14.4612  25.9079
 14.4843  25.838
 14.5073  25.8275
 14.5303  25.9513
 14.5533  25.8727
 14.5763  25.7397
 14.5993  25.5806
 14.6223  25.5169
 14.6453  25.5387
 14.6683  25.4786
 14.6913  25.3933
 14.7143  25.3068
 14.7372  25.3017
 14.7603  25.1904
 14.7833  25.1465
 14.8063  25.1342
 14.8293  25.0685
 14.8523  25.0811
 14.8753  25.0402
 14.8983  25.0783
 14.9213  25.0741
 14.9443  25.0311
 14.9673  24.9078
 14.9903  24.8853
 15.0132  24.966
 15.0363  24.98
 15.0593  24.9885
 15.0823  25.0229
 15.1052  25.0957
 15.1283  25.3912
 15.1513  25.9869
 15.1743  26.7898
 15.1973  27.2124
 15.2203  26.7128
 15.2433  25.8756
 15.2663  25.2466
 15.2892  25.0047
 15.3123  24.8528
 15.3353  24.7492
 15.3583  24.7837
 15.3812  24.7966
 15.4043  24.7146
 15.4273  24.6161
 15.4503  24.6593
 15.4733  24.6977
 15.4963  24.6135
 15.5193  24.6056
 15.5423  24.6471
 15.5653  24.6783
 15.5883  24.6477
 15.6113  24.5611
 15.6343  24.5896
 15.6572  24.6358
 15.6803  24.7046
 15.7033  24.7274
 15.7263  24.6476
 15.7492  24.6083
 15.7723  24.742
 15.7953  24.7709
 15.8183  24.823
 15.8413  24.7391
 15.8643  24.6903
 15.8873  24.6933
 15.9103  24.8034
 15.9332  24.7781
 15.9563  24.7213
 15.9793  24.7874
 16.0023  24.7952
 16.0253  24.7633
 16.0482  24.8213
 16.0713  24.8923
 16.0943  24.8912
 16.1172  24.8548
 16.1403  24.8803
 16.1633  25.0131
 16.1863  25.1142
 16.2093  25.2635
 16.2323  25.4182
 16.2553  25.7442
 16.2783  25.7782
 16.3012  25.4295
 16.3243  25.1817
 16.3472  24.9869
 16.3703  24.8007
 16.3933  24.7286
 16.4163  24.7056
 16.4393  24.638
 16.4623  24.6123
 16.4853  24.671
 16.5083  24.7404
 16.5312  24.7615
 16.5543  24.7787
 16.5773  24.7121
 16.6002  24.5987
 16.6233  24.5622
 16.6463  24.625
 16.6693  24.7014
 16.6923  24.6814
 16.7153  24.6767
 16.7383  24.6431
 16.7613  24.6597
 16.7843  24.6151
 16.8073  24.6466
 16.8303  24.661
 16.8533  24.5784
 16.8763  24.6015
 16.8992  24.5925
 16.9223  24.4981
 16.9453  24.3834
 16.9683  24.3904
 16.9913  24.3892
 17.0143  24.3833
 17.0373  24.3798
 17.0603  24.3255
 17.0832  24.3569
 17.1063  24.3008
 17.1293  24.2399
 17.1522  24.2422
 17.1753  24.2067
 17.1983  24.2078
 17.2213  24.2061
 17.2443  24.2385
 17.2673  24.2248
 17.2903  24.1692
 17.3133  24.1992
 17.3362  24.2994
 17.3593  24.2592
 17.3823  24.196
 17.4053  24.2006
 17.4283  24.1287
 17.4513  24.0982
 17.4743  24.0888
 17.4973  24.0565
 17.5203  23.9673
 17.5433  23.9634
 17.5663  23.9421
 17.5893  23.9044
 17.6123  23.9512
 17.6352  23.9659
 17.6583  23.9073
 17.6813  23.9695
 17.7042  24.0214
 17.7273  23.9691
 17.7503  23.9062
 17.7733  23.9355
 17.7963  24.0136
 17.8193  23.9859
 17.8423  24.0481
 17.8653  24.0016
 17.8882  23.9273
 17.9113  23.946
 17.9343  23.9337
 17.9573  23.9914
 17.9803  24.2307
 18.0033  24.4422
 18.0263  24.607
 18.0493  24.9706
 18.0723  25.6356
 18.0953  26.4273
 18.1183  26.5523
 18.1413  25.8418
 18.1643  24.9682
 18.1872  24.4241
 18.2103  24.2026
 18.2333  23.9849
 18.2563  23.8646
 18.2793  23.7769
 18.3023  23.7928
 18.3253  23.7488
 18.3483  23.8085
 18.3712  23.7952
 18.3943  23.6619
 18.4173  23.6876
 18.4402  23.6379
 18.4633  23.6439
 18.4863  23.7483
 18.5093  23.7313
 18.5323  23.743
 18.5553  23.6763
 18.5783  23.6431
 18.6013  23.6395
 18.6242  23.6795
 18.6473  23.7281
 18.6703  23.695
 18.6933  23.7362
 18.7163  23.6469
 18.7392  23.524
 18.7623  23.4654
 18.7853  23.5018
 18.8083  23.5689
 18.8313  23.5639
 18.8543  23.5212
 18.8773  23.5485
 18.9003  23.6313
 18.9232  23.7035
 18.9463  23.7842
 18.9693  23.6884
 18.9922  23.5836
 19.0153  23.6128
 19.0383  23.67
 19.0613  23.7271
 19.0843  23.7881
 19.1073  23.7535
 19.1303  23.7198
 19.1533  23.7115
 19.1762  23.6707
 19.1993  23.7357
 19.2223  23.7792
 19.2453  23.79
 19.2683  23.8662
 19.2913  23.9931
 19.3143  24.0447
 19.3373  23.8853
 19.3603  23.8084
 19.3833  23.9072
 19.4062  23.9844
 19.4293  23.9901
 19.4523  23.8977
 19.4752  23.8808
 19.4983  23.9297
 19.5213  23.98
 19.5443  24.2041
 19.5673  24.2048
 19.5903  24.2633
 19.6133  24.5243
 19.6363  24.9767
 19.6593  25.8642
 19.6823  27.2248
 19.7053  28.4426
 19.7283  28.734
 19.7513  27.9777
 19.7742  27.933
 19.7973  31.3771
 19.8203  39.4671
 19.8433  44.2
 19.8663  39.7873
 19.8893  32.5185
 19.9123  28.1904
 19.9353  26.0547
 19.9582  25.1454
 19.9813  24.8313
 20.0043  24.622
 20.0272  24.4962
 20.0503  24.3989
 20.0733  24.315
 20.0963  24.1823
 20.1193  24.157
 20.1423  24.1151
 20.1653  24.0466
 20.1883  24.0471
 20.2112  24.007
 20.2343  23.9729
 20.2573  23.9244
 20.2803  23.9018
 20.3033  23.8972
 20.3263  23.839
 20.3493  23.8095
 20.3723  23.8289
 20.3953  23.8533
 20.4183  23.9386
 20.4413  23.9964
 20.4643  23.9293
 20.4873  23.8537
 20.5102  23.8799
 20.5333  23.9068
 20.5563  24.0233
 20.5792  24.0311
 20.6023  24.1663
 20.6253  24.2884
 20.6483  24.3649
 20.6713  24.6327
 20.6943  25.4897
 20.7173  27.4459
 20.7403  29.3142
 20.7632  29.3024
 20.7863  27.7711
 20.8093  26.1116
 20.8323  25.1332
 20.8553  24.6096
 20.8783  24.3156
 20.9013  24.2766
 20.9243  24.2029
 20.9473  24.222
 20.9703  24.2029
 20.9933  24.2119
 21.0163  24.1728
 21.0393  24.1047
 21.0622  24.0778
 21.0853  24.1139
 21.1083  24.1218
 21.1313  24.175
 21.1543  24.1097
 21.1773  24.106
 21.2003  24.0505
 21.2233  24.0249
 21.2462  23.9626
 21.2693  24.0263
 21.2923  24.0438
 21.3152  24.0749
 21.3383  24.0904
 21.3613  24.2132
 21.3843  24.2304
 21.4073  24.1533
 21.4303  24.0825
 21.4533  24.0348
 21.4763  24.0296
 21.4992  24.1802
 21.5223  24.1895
 21.5453  24.1031
 21.5683  24.1355
 21.5913  24.2324
 21.6142  24.2183
 21.6373  24.2111
 21.6603  24.2368
 21.6833  24.1912
 21.7063  24.1936
 21.7293  24.2086
 21.7523  24.3491
 21.7753  24.3825
 21.7982  24.3536
 21.8213  24.3183
 21.8443  24.2905
 21.8672  24.3238
 21.8903  24.3881
 21.9133  24.425
 21.9363  24.4408
 21.9593  24.4041
 21.9823  24.3955
 22.0053  24.3876
 22.0283  24.3869
 22.0512  24.4343
 22.0743  24.4598
 22.0973  24.4287
 22.1203  24.5736
 22.1433  24.6712
 22.1663  24.5391
 22.1893  24.4892
 22.2123  24.4941
 22.2353  24.5946
 22.2583  24.5858
 22.2813  24.564
 22.3043  24.6246
 22.3273  24.7086
 22.3502  24.7126
 22.3733  24.7559
 22.3963  24.7296
 22.4193  24.6837
 22.4423  24.7899
 22.4653  24.8727
 22.4883  24.8705
 22.5113  24.9288
 22.5343  25.0123
 22.5573  25.1176
 22.5803  25.1216
 22.6033  25.1193
 22.6263  25.2192
 22.6493  25.1593
 22.6723  25.0974
 22.6953  25.1742
 22.7183  25.2471
 22.7413  25.2929
 22.7643  25.3774
 22.7873  25.4549
 22.8103  25.5456
 22.8333  25.68
 22.8563  25.7466
 22.8793  25.8373
 22.9022  25.9701
 22.9253  26.0961
 22.9483  26.2828
 22.9713  26.4913
 22.9943  26.7424