File: test-data-xrd/xrd-map-34-ID-E/Data_0103.chi
F:\20151113_APS_34IDE\\Brian\Particle1\OCV\Data_0103.tif
2-Theta Angle (Degrees)
Intensity
       2000
 0.01725  0.0000000E+00
 0.04025  0.0000000E+00
 0.06325  0.0000000E+00
 0.08625  0.0000000E+00
 0.10925  0.0000000E+00
 0.13225  0.0000000E+00
 0.15525  0.0000000E+00
 0.17825  0.0000000E+00
 0.20125  0.0000000E+00
 0.22425  0.0000000E+00
 0.24725  0.0000000E+00
 0.27025  0.0000000E+00
 0.29325  0.0000000E+00
 0.31625  0.0000000E+00
 0.33925  0.0000000E+00
 0.36225  0.0000000E+00
 0.38525  0.0000000E+00
 0.40825  0.0000000E+00
 0.43125  0.0000000E+00
 0.45425  0.0000000E+00
 0.47725  0.0000000E+00
 0.50025  0.0000000E+00
 0.52325  0.0000000E+00
 0.54625  0.0000000E+00
 0.56925  0.0000000E+00
 0.59225  0.0000000E+00
 0.61525  0.0000000E+00
 0.63825  0.0000000E+00
 0.66125  0.0000000E+00
 0.68425  0.0000000E+00
 0.70725  0.0000000E+00
 0.73025  0.0000000E+00
 0.75325  0.0000000E+00
 0.77625  0.0000000E+00
 0.79925  0.0000000E+00
 0.82225  0.0000000E+00
 0.84525  0.0000000E+00
 0.86825  0.0000000E+00
 0.89125  0.0000000E+00
 0.91425  0.0000000E+00
 0.93725  0.0000000E+00
 0.96025  0.0000000E+00
 0.98325  0.0000000E+00
 1.00625  0.0000000E+00
 1.02925  0.0000000E+00
 1.05225  0.0000000E+00
 1.07525  0.0000000E+00
 1.09825  0.0000000E+00
 1.12125  0.0000000E+00
 1.14425  0.0000000E+00
 1.16725  0.0000000E+00
 1.19025  0.0000000E+00
 1.21325  0.0000000E+00
 1.23625  0.0000000E+00
 1.25925  0.0000000E+00
 1.28225  0.0000000E+00
 1.30525  0.0000000E+00
 1.32825  0.0000000E+00
 1.35125  0.0000000E+00
 1.37425  0.0000000E+00
 1.39725  0.0000000E+00
 1.42025  0.0000000E+00
 1.44325  0.0000000E+00
 1.46625  0.0000000E+00
 1.48925  0.0000000E+00
 1.51225  0.0000000E+00
 1.53525  0.0000000E+00
 1.55825  0.0000000E+00
 1.58125  0.0000000E+00
 1.60425  0.0000000E+00
 1.62725  0.0000000E+00
 1.65025  0.0000000E+00
 1.67325  0.0000000E+00
 1.69625  0.0000000E+00
 1.71925  0.0000000E+00
 1.74225  0.0000000E+00
 1.76525  0.0000000E+00
 1.78825  0.0000000E+00
 1.81125  0.0000000E+00
 1.83425  0.0000000E+00
 1.85725  0.0000000E+00
 1.88025  0.0000000E+00
 1.90325  0.0000000E+00
 1.92625  0.0000000E+00
 1.94925  0.0000000E+00
 1.97225  0.0000000E+00
 1.99525  0.0000000E+00
 2.01825  0.0000000E+00
 2.04125  0.0000000E+00
 2.06425  0.0000000E+00
 2.08725  0.0000000E+00
 2.11025  0.0000000E+00
 2.13325  0.0000000E+00
 2.15625  0.0000000E+00
 2.17925  0.0000000E+00
 2.20225  0.0000000E+00
 2.22525  0.0000000E+00
 2.24825  0.0000000E+00
 2.27125  0.0000000E+00
 2.29425  0.0000000E+00
 2.31725  0.0000000E+00
 2.34025  0.0000000E+00
 2.36325  0.0000000E+00
 2.38625  0.0000000E+00
 2.40925  0.0000000E+00
 2.43225  0.0000000E+00
 2.45525  0.0000000E+00
 2.47825  0.0000000E+00
 2.50125  0.0000000E+00
 2.52425  0.0000000E+00
 2.54725  0.0000000E+00
 2.57025  0.0000000E+00
 2.59325  0.0000000E+00
 2.61625  0.0000000E+00
 2.63925  0.0000000E+00
 2.66225  0.0000000E+00
 2.68525  0.0000000E+00
 2.70825  0.0000000E+00
 2.73125  0.0000000E+00
 2.75425  0.0000000E+00
 2.77725  0.0000000E+00
 2.80025  0.0000000E+00
 2.82325  34.751
 2.84625  35.1749
 2.86925  35.2178
 2.89225  34.8466
 2.91525  35.0286
 2.93825  34.8403
 2.96125  34.4545
 2.98425  34.4831
 3.00725  35.9216
 3.03025  35.8844
 3.05325  35.4531
 3.07625  34.8178
 3.09925  35.5382
 3.12225  36.0094
 3.14525  35.8659
 3.16825  35.391
 3.19125  35.1829
 3.21425  35.4051
 3.23725  35.6532
 3.26025  35.2698
 3.28325  34.3558
 3.30625  33.9483
 3.32925  34.0509
 3.35225  34.6397
 3.37525  34.5314
 3.39825  33.8665
 3.42125  34.0809
 3.44425  34.4778
 3.46725  34.2445
 3.49025  34.275
 3.51325  33.9453
 3.53625  34.0037
 3.55925  33.6513
 3.58225  33.2801
 3.60525  33.2794
 3.62825  33.3858
 3.65125  33.5801
 3.67425  33.7935
 3.69725  33.3575
 3.72025  32.9855
 3.74325  32.8056
 3.76625  32.9627
 3.78925  32.8361
 3.81225  32.7367
 3.83525  32.993
 3.85825  33.1628
 3.88125  33.1697
 3.90425  33.1352
 3.92725  32.8637
 3.95025  32.8471
 3.97325  32.8104
 3.99625  33.2019
 4.01925  33.2354
 4.04225  33.1114
 4.06525  32.6389
 4.08825  32.3389
 4.11125  32.0796
 4.13425  31.937
 4.15725  32.1249
 4.18025  32.2082
 4.20325  32.1665
 4.22625  32.0373
 4.24925  32.0076
 4.27225  32.1503
 4.29525  32.3995
 4.31825  32.4701
 4.34125  32.3655
 4.36425  32.1534
 4.38725  32.2103
 4.41025  32.5538
 4.43325  32.9193
 4.45625  32.834
 4.47925  32.8728
 4.50225  32.9785
 4.52525  33.21
 4.54825  33.044
 4.57125  32.8404
 4.59425  32.9446
 4.61725  32.9894
 4.64025  33.139
 4.66325  33.4029
 4.68625  33.3234
 4.70925  33.0667
 4.73225  32.9337
 4.75525  32.9027
 4.77825  32.9324
 4.80125  32.8883
 4.82425  32.8712
 4.84725  32.8932
 4.87025  33.1996
 4.89325  33.318
 4.91625  33.2218
 4.93925  33.1018
 4.96225  33.0355
 4.98525  33.0025
 5.00825  33.0217
 5.03125  32.9782
 5.05425  33.0494
 5.07725  33.1931
 5.10025  33.3324
 5.12325  33.5496
 5.14625  33.761
 5.16925  33.8571
 5.19225  33.8165
 5.21525  34.0062
 5.23825  34.2237
 5.26125  34.2731
 5.28425  34.3121
 5.30725  34.418
 5.33025  34.4496
 5.35325  34.3671
 5.37625  34.3468
 5.39925  34.5335
 5.42225  34.8553
 5.44525  34.9772
 5.46825  35.2251
 5.49125  35.1595
 5.51425  35.1015
 5.53725  35.0607
 5.56025  35.066
 5.58325  35.4203
 5.60625  35.6339
 5.62925  35.6849
 5.65225  35.7156
 5.67525  36.034
 5.69825  36.0626
 5.72125  36.1177
 5.74425  36.0926
 5.76725  36.1534
 5.79025  36.3595
 5.81325  36.5106
 5.83625  36.959
 5.85925  37.5992
 5.88225  38.1613
 5.90525  39.2766
 5.92825  42.9767
 5.95125  53.1754
 5.97425  71.7843
 5.99725  82.5633
 6.02025  74.6327
 6.04325  56.1157
 6.06625  42.9204
 6.08925  39.3401
 6.11225  38.2141
 6.13525  38.0086
 6.15825  38.055
 6.18125  38.0853
 6.20425  37.8913
 6.22725  37.7611
 6.25025  37.7554
 6.27325  37.9426
 6.29625  37.8217
 6.31925  37.9061
 6.34225  38.292
 6.36525  38.4017
 6.38825  38.5718
 6.41125  38.7349
 6.43425  38.7471
 6.45725  38.6776
 6.48025  38.9514
 6.50325  39.2976
 6.52625  39.4524
 6.54925  39.4114
 6.57225  39.4005
 6.59525  39.6277
 6.61825  39.8781
 6.64125  40.1049
 6.66425  40.245
 6.68725  40.3634
 6.71025  40.5079
 6.73325  40.6989
 6.75625  40.8546
 6.77925  41.1056
 6.80225  41.2303
 6.82525  41.4132
 6.84825  41.7014
 6.87125  41.8821
 6.89425  42.0818
 6.91725  42.1752
 6.94025  42.2392
 6.96325  42.4363
 6.98625  42.6519
 7.00925  42.7085
 7.03225  42.4957
 7.05525  42.4517
 7.07825  42.7401
 7.10125  42.9182
 7.12425  43.1444
 7.14725  43.4615
 7.17025  43.4378
 7.19325  43.5256
 7.21625  43.7646
 7.23925  43.8833
 7.26225  43.9272
 7.28525  43.9991
 7.30825  44.0318
 7.33125  44.0453
 7.35425  44.1234
 7.37725  44.1696
 7.40025  44.0656
 7.42325  44.1604
 7.44625  44.2876
 7.46925  44.2743
 7.49225  44.3984
 7.51525  44.457
 7.53825  44.4775
 7.56125  44.618
 7.58425  44.5276
 7.60725  44.5409
 7.63025  44.4868
 7.65325  44.3668
 7.67625  44.2513
 7.69925  44.25
 7.72225  44.2684
 7.74525  44.3333
 7.76825  44.4208
 7.79125  44.4887
 7.81425  44.4512
 7.83725  44.2756
 7.86025  44.1141
 7.88325  43.9064
 7.90625  43.9918
 7.92925  44.0853
 7.95225  43.8299
 7.97525  43.6069
 7.99825  43.6337
 8.02125  43.4739
 8.04425  43.4277
 8.06725  43.2537
 8.09025  43.0086
 8.11325  42.8509
 8.13625  42.7527
 8.15925  42.6031
 8.18225  42.419
 8.20525  42.1746
 8.22825  41.679
 8.25125  41.3609
 8.27425  41.0736
 8.29725  40.8499
 8.32025  40.5049
 8.34325  40.0716
 8.36625  39.8694
 8.38925  39.6876
 8.41225  39.2541
 8.43525  38.8155
 8.45825  38.5245
 8.48125  38.3733
 8.50425  38.1035
 8.52725  37.8089
 8.55025  37.4365
 8.57325  37.0198
 8.59625  36.4765
 8.61925  36.0746
 8.64225  35.7514
 8.66525  35.35
 8.68825  35.1545
 8.71125  34.7945
 8.73425  34.4481
 8.75725  34.0869
 8.78025  33.7207
 8.80325  33.5233
 8.82625  33.1477
 8.84925  32.779
 8.87225  32.4571
 8.89525  32.0174
 8.91825  31.6373
 8.94125  31.3804
 8.96425  31.2093
 8.98725  30.8593
 9.01025  30.5478
 9.03325  30.3206
 9.05625  30.0856
 9.07925  29.7833
 9.10225  29.6058
 9.12525  29.4514
 9.14825  29.2456
 9.17125  28.8687
 9.19425  28.5395
 9.21725  28.3189
 9.24025  28.1494
 9.26325  27.9664
 9.28625  27.8331
 9.30925  27.7091
 9.33225  27.6344
 9.35525  27.4999
 9.37825  27.3295
 9.40125  27.1781
 9.42425  26.8916
 9.44725  26.6281
 9.47025  26.5031
 9.49325  26.4014
 9.51625  26.1935
 9.53925  26.1201
 9.56225  25.9571
 9.58525  25.8279
 9.60825  25.8079
 9.63125  25.6196
 9.65425  25.4735
 9.67725  25.2855
 9.70025  25.0709
 9.72325  25.0261
 9.74625  24.9769
 9.76925  24.8264
 9.79225  24.8065
 9.81525  24.8396
 9.83825  24.628
 9.86125  24.4681
 9.88425  24.4207
 9.90725  24.5171
 9.93025  24.467
 9.95325  24.2628
 9.97625  24.2101
 9.99925  24.1745
 10.0222  24.0812
 10.0453  24.1384
 10.0683  24.1553
 10.0913  24.0968
 10.1143  23.8612
 10.1373  23.7721
 10.1603  23.8021
 10.1832  23.9468
 10.2063  23.9756
 10.2293  23.8645
 10.2523  23.7019
 10.2752  23.6366
 10.2982  23.6722
 10.3213  23.5962
 10.3443  23.49
 10.3673  23.4709
 10.3902  23.446
 10.4133  23.3536
 10.4363  23.279
 10.4593  23.1289
 10.4823  23.1216
 10.5053  23.1341
 10.5283  23.1617
 10.5512  23.1512
 10.5742  23.1101
 10.5973  22.9363
 10.6203  22.8471
 10.6433  22.8534
 10.6662  22.8526
 10.6893  22.8727
 10.7123  22.9471
 10.7353  22.9822
 10.7583  22.9869
 10.7813  22.978
 10.8043  22.8784
 10.8272  22.763
 10.8503  22.6874
 10.8733  22.7205
 10.8963  22.6872
 10.9192  22.7
 10.9422  22.6851
 10.9653  22.675
 10.9883  22.6403
 11.0113  22.6211
 11.0343  22.5438
 11.0573  22.5434
 11.0803  22.529
 11.1033  22.4642
 11.1263  22.48
 11.1493  22.5647
 11.1723  22.6137
 11.1953  22.5079
 11.2182  22.4336
 11.2413  22.4924
 11.2643  22.5274
 11.2873  22.4398
 11.3102  22.4582
 11.3333  22.5534
 11.3563  22.4772
 11.3793  22.5371
 11.4023  22.7279
 11.4253  22.7463
 11.4483  22.8127
 11.4713  22.8893
 11.4942  23.0121
 11.5173  23.3096
 11.5403  24.4589
 11.5633  26.8142
 11.5862  29.9528
 11.6093  30.4312
 11.6323  27.952
 11.6553  24.8208
 11.6783  23.4843
 11.7013  22.9148
 11.7243  22.615
 11.7473  22.514
 11.7703  22.5858
 11.7933  22.6559
 11.8163  22.7446
 11.8393  22.7368
 11.8622  22.6333
 11.8853  22.6406
 11.9083  22.7206
 11.9313  22.9215
 11.9543  23.2311
 11.9773  23.5897
 12.0003  23.6426
 12.0233  23.5867
 12.0463  23.9309
 12.0693  25.3577
 12.0923  27.8528
 12.1153  29.8726
 12.1382  29.0451
 12.1613  26.1526
 12.1843  23.923
 12.2073  23.0083
 12.2302  22.6823
 12.2533  22.5579
 12.2763  22.5492
 12.2993  22.6521
 12.3223  22.6364
 12.3453  22.5857
 12.3683  22.5575
 12.3913  22.4838
 12.4142  22.4842
 12.4373  22.5138
 12.4603  22.5761
 12.4833  22.7358
 12.5062  22.7842
 12.5292  22.7398
 12.5523  22.8321
 12.5753  22.9479
 12.5983  23.0418
 12.6212  23.0486
 12.6443  22.9254
 12.6673  22.8114
 12.6903  22.8772
 12.7133  22.9453
 12.7363  22.8839
 12.7593  23.0702
 12.7822  23.2058
 12.8052  23.277
 12.8283  23.3342
 12.8513  23.3208
 12.8742  23.369
 12.8972  23.4433
 12.9203  23.504
 12.9433  23.6877
 12.9663  23.7937
 12.9893  23.9141
 13.0123  23.9327
 13.0353  24.0447
 13.0582  24.1988
 13.0813  24.3728
 13.1043  24.736
 13.1273  25.1003
 13.1502  25.3149
 13.1732  25.553
 13.1963  25.8141
 13.2193  26.002
 13.2423  26.2853
 13.2652  26.5481
 13.2883  26.8289
 13.3113  27.1229
 13.3343  27.3568
 13.3573  27.6646
 13.3803  27.9886
 13.4033  28.3287
 13.4262  28.6178
 13.4492  28.7149
 13.4723  28.8216
 13.4953  29.1369
 13.5183  29.4369
 13.5412  29.6025
 13.5643  29.6902
 13.5873  29.7795
 13.6103  29.8041
 13.6333  29.677
 13.6563  29.6372
 13.6793  29.7505
 13.7022  29.6602
 13.7253  29.711
 13.7483  29.7426
 13.7713  29.559
 13.7942  29.3778
 13.8172  29.2652
 13.8403  29.2699
 13.8633  29.5288
 13.8863  30.3837
 13.9093  32.3459
 13.9323  34.9573
 13.9553  36.2185
 13.9783  34.9185
 14.0013  32.1372
 14.0243  29.836
 14.0473  28.52
 14.0703  27.8978
 14.0932  27.5642
 14.1163  27.4007
 14.1393  27.3306
 14.1623  27.1179
 14.1852  26.9909
 14.2083  26.9468
 14.2313  26.8188
 14.2543  26.6206
 14.2773  26.4392
 14.3003  26.2465
 14.3233  26.1405
 14.3463  26.0531
 14.3692  26.084
 14.3923  26.0887
 14.4153  26.106
 14.4383  26.067
 14.4612  25.7937
 14.4843  25.5529
 14.5073  25.4995
 14.5303  25.5558
 14.5533  25.5953
 14.5763  25.6145
 14.5993  25.541
 14.6223  25.4366
 14.6453  25.3077
 14.6683  25.2685
 14.6913  25.2676
 14.7143  25.2502
 14.7372  25.1351
 14.7603  25.0814
 14.7833  25.0694
 14.8063  25.0323
 14.8293  24.9755
 14.8523  24.9207
 14.8753  24.7769
 14.8983  24.8047
 14.9213  24.8833
 14.9443  24.8946
 14.9673  24.8573
 14.9903  24.9575
 15.0132  24.9413
 15.0363  24.8682
 15.0593  24.8194
 15.0823  24.8187
 15.1052  24.9575
 15.1283  25.1007
 15.1513  25.6262
 15.1743  26.3459
 15.1973  26.726
 15.2203  26.533
 15.2433  25.9259
 15.2663  25.2089
 15.2892  24.8265
 15.3123  24.7578
 15.3353  24.6316
 15.3583  24.5639
 15.3812  24.562
 15.4043  24.6399
 15.4273  24.6446
 15.4503  24.5359
 15.4733  24.5581
 15.4963  24.6528
 15.5193  24.6521
 15.5423  24.6422
 15.5653  24.6342
 15.5883  24.6259
 15.6113  24.5543
 15.6343  24.5758
 15.6572  24.5952
 15.6803  24.6476
 15.7033  24.5993
 15.7263  24.6963
 15.7492  24.7359
 15.7723  24.7643
 15.7953  24.7068
 15.8183  24.673
 15.8413  24.6485
 15.8643  24.6397
 15.8873  24.673
 15.9103  24.7289
 15.9332  24.7284
 15.9563  24.6563
 15.9793  24.6065
 16.0023  24.6303
 16.0253  24.6781
 16.0482  24.7059
 16.0713  24.7055
 16.0943  24.7937
 16.1172  24.8653
 16.1403  24.8687
 16.1633  24.9128
 16.1863  25.1674
 16.2093  25.7212
 16.2323  26.3172
 16.2553  26.6971
 16.2783  26.32
 16.3012  25.4648
 16.3243  25.0168
 16.3472  24.94
 16.3703  24.8564
 16.3933  24.8031
 16.4163  24.8062
 16.4393  24.8068
 16.4623  24.6983
 16.4853  24.6533
 16.5083  24.7237
 16.5312  24.6863
 16.5543  24.6342
 16.5773  24.5921
 16.6002  24.6261
 16.6233  24.6773
 16.6463  24.6443
 16.6693  24.6965
 16.6923  24.6628
 16.7153  24.6204
 16.7383  24.5727
 16.7613  24.6437
 16.7843  24.5731
 16.8073  24.4785
 16.8303  24.3915
 16.8533  24.3128
 16.8763  24.3918
 16.8992  24.4722
 16.9223  24.4705
 16.9453  24.3019
 16.9683  24.2507
 16.9913  24.316
 17.0143  24.3371
 17.0373  24.3153
 17.0603  24.1984
 17.0832  24.2285
 17.1063  24.218
 17.1293  24.3084
 17.1522  24.3167
 17.1753  24.2827
 17.1983  24.2073
 17.2213  24.1936
 17.2443  24.2354
 17.2673  24.2121
 17.2903  24.1597
 17.3133  24.0764
 17.3362  24.1303
 17.3593  24.0947
 17.3823  24.0738
 17.4053  23.9873
 17.4283  23.9794
 17.4513  23.9819
 17.4743  24.0042
 17.4973  23.9802
 17.5203  23.8958
 17.5433  23.9932
 17.5663  23.9465
 17.5893  23.8409
 17.6123  23.8164
 17.6352  23.81
 17.6583  23.7421
 17.6813  23.8022
 17.7042  23.8293
 17.7273  23.7834
 17.7503  23.7012
 17.7733  23.7681
 17.7963  23.7926
 17.8193  23.7876
 17.8423  23.8186
 17.8653  23.7715
 17.8882  23.8029
 17.9113  23.7944
 17.9343  23.8129
 17.9573  23.9568
 17.9803  24.1626
 18.0033  24.4553
 18.0263  24.8404
 18.0493  25.683
 18.0723  26.8107
 18.0953  27.7167
 18.1183  27.4688
 18.1413  26.5763
 18.1643  25.3775
 18.1872  24.4523
 18.2103  24.1329
 18.2333  24.1347
 18.2563  24.0159
 18.2793  23.8425
 18.3023  23.781
 18.3253  23.6966
 18.3483  23.6856
 18.3712  23.7082
 18.3943  23.7009
 18.4173  23.7115
 18.4402  23.683
 18.4633  23.6619
 18.4863  23.6063
 18.5093  23.56
 18.5323  23.5595
 18.5553  23.5165
 18.5783  23.5431
 18.6013  23.923
 18.6242  24.1107
 18.6473  23.866
 18.6703  23.6196
 18.6933  23.6853
 18.7163  23.6066
 18.7392  23.4942
 18.7623  23.4075
 18.7853  23.4187
 18.8083  23.4534
 18.8313  23.5113
 18.8543  23.4928
 18.8773  23.4357
 18.9003  23.4801
 18.9232  23.4926
 18.9463  23.4546
 18.9693  23.3849
 18.9922  23.4445
 19.0153  23.5308
 19.0383  23.6002
 19.0613  23.6107
 19.0843  23.6457
 19.1073  23.5669
 19.1303  23.5776
 19.1533  23.6482
 19.1762  23.7017
 19.1993  23.6966
 19.2223  23.679
 19.2453  23.6255
 19.2683  23.6234
 19.2913  23.6499
 19.3143  23.6783
 19.3373  23.6862
 19.3603  23.7367
 19.3833  23.7422
 19.4062  23.7095
 19.4293  23.7128
 19.4523  23.7468
 19.4752  23.7371
 19.4983  23.7981
 19.5213  23.8564
 19.5443  23.8936
 19.5673  23.9221
 19.5903  23.9828
 19.6133  24.1949
 19.6363  24.5154
 19.6593  25.267
 19.6823  26.8407
 19.7053  28.0787
 19.7283  27.7822
 19.7513  26.7641
 19.7742  26.0195
 19.7973  25.8632
 19.8203  27.0718
 19.8433  30.1663
 19.8663  33.0136
 19.8893  31.9381
 19.9123  28.6984
 19.9353  26.0611
 19.9582  24.7825
 19.9813  24.3413
 20.0043  24.1093
 20.0272  24.0069
 20.0503  23.9636
 20.0733  23.963
 20.0963  23.9028
 20.1193  23.8892
 20.1423  23.8074
 20.1653  23.6805
 20.1883  23.6959
 20.2112  23.7494
 20.2343  23.7221
 20.2573  23.7644
 20.2803  23.7922
 20.3033  23.778
 20.3263  23.7572
 20.3493  23.7771
 20.3723  23.7103
 20.3953  23.7478
 20.4183  23.8116
 20.4413  23.7824
 20.4643  23.6853
 20.4873  23.6935
 20.5102  23.684
 20.5333  23.6713
 20.5563  23.7397
 20.5792  23.8498
 20.6023  24.0243
 20.6253  24.0128
 20.6483  24.0654
 20.6713  24.2404
 20.6943  24.6727
 20.7173  25.3824
 20.7403  26.3951
 20.7632  27.0019
 20.7863  26.4225
 20.8093  25.3624
 20.8323  24.5797
 20.8553  24.1695
 20.8783  23.9542
 20.9013  23.9394
 20.9243  23.9512
 20.9473  23.918
 20.9703  24.0284
 20.9933  24.0383
 21.0163  23.8673
 21.0393  23.8129
 21.0622  23.8508
 21.0853  23.9338
 21.1083  23.9069
 21.1313  23.9997
 21.1543  23.9267
 21.1773  23.9481
 21.2003  23.911
 21.2233  23.8749
 21.2462  23.8643
 21.2693  23.955
 21.2923  23.9638
 21.3152  24.0036
 21.3383  24.0662
 21.3613  24.0892
 21.3843  24.1574
 21.4073  24.1147
 21.4303  24.0255
 21.4533  23.9815
 21.4763  23.963
 21.4992  23.9199
 21.5223  23.9177
 21.5453  23.9354
 21.5683  24.0028
 21.5913  24.0808
 21.6142  24.0913
 21.6373  24.1319
 21.6603  24.2078
 21.6833  24.13
 21.7063  24.1031
 21.7293  24.1058
 21.7523  24.1452
 21.7753  24.2258
 21.7982  24.3149
 21.8213  24.2832
 21.8443  24.2336
 21.8672  24.2195
 21.8903  24.2477
 21.9133  24.1551
 21.9363  24.1302
 21.9593  24.1561
 21.9823  24.1976
 22.0053  24.2012
 22.0283  24.2121
 22.0512  24.2608
 22.0743  24.3005
 22.0973  24.2961
 22.1203  24.309
 22.1433  24.3332
 22.1663  24.3193
 22.1893  24.3464
 22.2123  24.3917
 22.2353  24.4385
 22.2583  24.4128
 22.2813  24.4518
 22.3043  24.5275
 22.3273  24.6901
 22.3502  24.6303
 22.3733  24.6518
 22.3963  24.5995
 22.4193  24.4896
 22.4423  24.5752
 22.4653  24.6754
 22.4883  24.6564
 22.5113  24.729
 22.5343  24.8394
 22.5573  24.8519
 22.5803  24.8785
 22.6033  24.9214
 22.6263  25.0083
 22.6493  24.9848
 22.6723  25.0199
 22.6953  25.1492
 22.7183  25.2116
 22.7413  25.3214
 22.7643  25.3219
 22.7873  25.3163
 22.8103  25.3663
 22.8333  25.4864
 22.8563  25.5618
 22.8793  25.5704
 22.9022  25.6958
 22.9253  25.9289
 22.9483  26.0905
 22.9713  26.3152
 22.9943  26.518