File: test-data-xrd/xrd-map-34-ID-E/Data_0060.chi
F:\20151113_APS_34IDE\\Brian\Particle1\OCV\Data_0060.tif
2-Theta Angle (Degrees)
Intensity
       2000
 0.01725  0.0000000E+00
 0.04025  0.0000000E+00
 0.06325  0.0000000E+00
 0.08625  0.0000000E+00
 0.10925  0.0000000E+00
 0.13225  0.0000000E+00
 0.15525  0.0000000E+00
 0.17825  0.0000000E+00
 0.20125  0.0000000E+00
 0.22425  0.0000000E+00
 0.24725  0.0000000E+00
 0.27025  0.0000000E+00
 0.29325  0.0000000E+00
 0.31625  0.0000000E+00
 0.33925  0.0000000E+00
 0.36225  0.0000000E+00
 0.38525  0.0000000E+00
 0.40825  0.0000000E+00
 0.43125  0.0000000E+00
 0.45425  0.0000000E+00
 0.47725  0.0000000E+00
 0.50025  0.0000000E+00
 0.52325  0.0000000E+00
 0.54625  0.0000000E+00
 0.56925  0.0000000E+00
 0.59225  0.0000000E+00
 0.61525  0.0000000E+00
 0.63825  0.0000000E+00
 0.66125  0.0000000E+00
 0.68425  0.0000000E+00
 0.70725  0.0000000E+00
 0.73025  0.0000000E+00
 0.75325  0.0000000E+00
 0.77625  0.0000000E+00
 0.79925  0.0000000E+00
 0.82225  0.0000000E+00
 0.84525  0.0000000E+00
 0.86825  0.0000000E+00
 0.89125  0.0000000E+00
 0.91425  0.0000000E+00
 0.93725  0.0000000E+00
 0.96025  0.0000000E+00
 0.98325  0.0000000E+00
 1.00625  0.0000000E+00
 1.02925  0.0000000E+00
 1.05225  0.0000000E+00
 1.07525  0.0000000E+00
 1.09825  0.0000000E+00
 1.12125  0.0000000E+00
 1.14425  0.0000000E+00
 1.16725  0.0000000E+00
 1.19025  0.0000000E+00
 1.21325  0.0000000E+00
 1.23625  0.0000000E+00
 1.25925  0.0000000E+00
 1.28225  0.0000000E+00
 1.30525  0.0000000E+00
 1.32825  0.0000000E+00
 1.35125  0.0000000E+00
 1.37425  0.0000000E+00
 1.39725  0.0000000E+00
 1.42025  0.0000000E+00
 1.44325  0.0000000E+00
 1.46625  0.0000000E+00
 1.48925  0.0000000E+00
 1.51225  0.0000000E+00
 1.53525  0.0000000E+00
 1.55825  0.0000000E+00
 1.58125  0.0000000E+00
 1.60425  0.0000000E+00
 1.62725  0.0000000E+00
 1.65025  0.0000000E+00
 1.67325  0.0000000E+00
 1.69625  0.0000000E+00
 1.71925  0.0000000E+00
 1.74225  0.0000000E+00
 1.76525  0.0000000E+00
 1.78825  0.0000000E+00
 1.81125  0.0000000E+00
 1.83425  0.0000000E+00
 1.85725  0.0000000E+00
 1.88025  0.0000000E+00
 1.90325  0.0000000E+00
 1.92625  0.0000000E+00
 1.94925  0.0000000E+00
 1.97225  0.0000000E+00
 1.99525  0.0000000E+00
 2.01825  0.0000000E+00
 2.04125  0.0000000E+00
 2.06425  0.0000000E+00
 2.08725  0.0000000E+00
 2.11025  0.0000000E+00
 2.13325  0.0000000E+00
 2.15625  0.0000000E+00
 2.17925  0.0000000E+00
 2.20225  0.0000000E+00
 2.22525  0.0000000E+00
 2.24825  0.0000000E+00
 2.27125  0.0000000E+00
 2.29425  0.0000000E+00
 2.31725  0.0000000E+00
 2.34025  0.0000000E+00
 2.36325  0.0000000E+00
 2.38625  0.0000000E+00
 2.40925  0.0000000E+00
 2.43225  0.0000000E+00
 2.45525  0.0000000E+00
 2.47825  0.0000000E+00
 2.50125  0.0000000E+00
 2.52425  0.0000000E+00
 2.54725  0.0000000E+00
 2.57025  0.0000000E+00
 2.59325  0.0000000E+00
 2.61625  0.0000000E+00
 2.63925  0.0000000E+00
 2.66225  0.0000000E+00
 2.68525  0.0000000E+00
 2.70825  0.0000000E+00
 2.73125  0.0000000E+00
 2.75425  0.0000000E+00
 2.77725  0.0000000E+00
 2.80025  0.0000000E+00
 2.82325  38.321
 2.84625  33.7075
 2.86925  33.768
 2.89225  34.5467
 2.91525  33.9184
 2.93825  34.6902
 2.96125  34.8978
 2.98425  34.4146
 3.00725  34.3423
 3.03025  34.4718
 3.05325  34.8371
 3.07625  35.0095
 3.09925  34.5814
 3.12225  34.4958
 3.14525  34.9608
 3.16825  35.2229
 3.19125  35.3646
 3.21425  35.255
 3.23725  35.0932
 3.26025  34.3284
 3.28325  33.7077
 3.30625  34.1233
 3.32925  34.2707
 3.35225  33.7169
 3.37525  33.8993
 3.39825  34.1558
 3.42125  34.1915
 3.44425  34.2918
 3.46725  34.3071
 3.49025  34.0505
 3.51325  33.663
 3.53625  33.5054
 3.55925  33.1808
 3.58225  32.8713
 3.60525  32.5425
 3.62825  32.5254
 3.65125  32.5959
 3.67425  32.5035
 3.69725  32.715
 3.72025  32.5582
 3.74325  32.3797
 3.76625  32.5669
 3.78925  32.7357
 3.81225  32.3944
 3.83525  32.0698
 3.85825  31.8911
 3.88125  32.1456
 3.90425  32.2049
 3.92725  32.2239
 3.95025  32.3184
 3.97325  32.3054
 3.99625  32.4037
 4.01925  32.3604
 4.04225  31.9372
 4.06525  31.8005
 4.08825  31.8818
 4.11125  32.1514
 4.13425  32.0757
 4.15725  32.3403
 4.18025  32.1977
 4.20325  31.9946
 4.22625  31.4679
 4.24925  31.4228
 4.27225  31.7881
 4.29525  32.0586
 4.31825  31.9745
 4.34125  31.7609
 4.36425  31.6557
 4.38725  31.7633
 4.41025  32.0818
 4.43325  31.8651
 4.45625  31.7428
 4.47925  32.0982
 4.50225  32.2524
 4.52525  32.4032
 4.54825  32.6283
 4.57125  32.6413
 4.59425  32.5815
 4.61725  32.3009
 4.64025  32.2009
 4.66325  32.5794
 4.68625  32.7793
 4.70925  32.9317
 4.73225  32.7062
 4.75525  32.2391
 4.77825  32.3504
 4.80125  32.4755
 4.82425  32.3896
 4.84725  32.4047
 4.87025  32.5616
 4.89325  32.5111
 4.91625  32.3625
 4.93925  32.392
 4.96225  32.4519
 4.98525  32.7244
 5.00825  32.9535
 5.03125  32.9381
 5.05425  32.9371
 5.07725  32.9248
 5.10025  33.2088
 5.12325  33.2461
 5.14625  33.409
 5.16925  33.3384
 5.19225  33.4778
 5.21525  33.7176
 5.23825  33.6922
 5.26125  33.6083
 5.28425  33.7948
 5.30725  34.0092
 5.33025  34.0697
 5.35325  34.0854
 5.37625  34.283
 5.39925  34.4771
 5.42225  34.5021
 5.44525  34.4954
 5.46825  34.7047
 5.49125  34.6368
 5.51425  34.5626
 5.53725  34.7553
 5.56025  34.8657
 5.58325  34.9945
 5.60625  35.2461
 5.62925  35.0593
 5.65225  35.1641
 5.67525  35.7102
 5.69825  35.8604
 5.72125  35.7728
 5.74425  35.9105
 5.76725  36.0639
 5.79025  36.3932
 5.81325  36.7205
 5.83625  36.9569
 5.85925  37.3377
 5.88225  38.1467
 5.90525  40.3334
 5.92825  46.7064
 5.95125  61.616
 5.97425  84.3894
 5.99725  99.1462
 6.02025  84.2406
 6.04325  59.808
 6.06625  43.6474
 6.08925  39.593
 6.11225  38.1896
 6.13525  37.69
 6.15825  37.6383
 6.18125  37.5978
 6.20425  37.572
 6.22725  37.6703
 6.25025  37.5422
 6.27325  37.5397
 6.29625  37.6404
 6.31925  37.7583
 6.34225  37.9489
 6.36525  38.0319
 6.38825  38.101
 6.41125  38.1092
 6.43425  38.1784
 6.45725  38.2594
 6.48025  38.4942
 6.50325  38.9037
 6.52625  39.0735
 6.54925  39.1693
 6.57225  39.3625
 6.59525  39.396
 6.61825  39.6559
 6.64125  39.8718
 6.66425  39.8767
 6.68725  39.7223
 6.71025  39.7966
 6.73325  40.1261
 6.75625  40.4216
 6.77925  40.6358
 6.80225  40.7464
 6.82525  41.0217
 6.84825  41.2412
 6.87125  41.3421
 6.89425  41.5005
 6.91725  41.5974
 6.94025  41.7345
 6.96325  42.1219
 6.98625  42.2207
 7.00925  42.1634
 7.03225  42.3117
 7.05525  42.4326
 7.07825  42.6252
 7.10125  42.6801
 7.12425  42.821
 7.14725  42.9271
 7.17025  43.0635
 7.19325  43.0384
 7.21625  43.1249
 7.23925  43.0932
 7.26225  43.1014
 7.28525  43.1791
 7.30825  43.3222
 7.33125  43.5681
 7.35425  43.7711
 7.37725  43.7894
 7.40025  43.7864
 7.42325  43.7587
 7.44625  43.7237
 7.46925  43.7058
 7.49225  43.643
 7.51525  43.5132
 7.53825  43.5586
 7.56125  43.7576
 7.58425  43.9001
 7.60725  43.917
 7.63025  44.1399
 7.65325  44.1749
 7.67625  44.0055
 7.69925  44.0003
 7.72225  44.4696
 7.74525  45.5658
 7.76825  45.4542
 7.79125  44.4381
 7.81425  44.0648
 7.83725  43.9097
 7.86025  43.7395
 7.88325  43.4125
 7.90625  43.4133
 7.92925  43.5198
 7.95225  43.4984
 7.97525  43.2499
 7.99825  43.1213
 8.02125  42.8746
 8.04425  42.8233
 8.06725  42.9459
 8.09025  42.9196
 8.11325  42.5657
 8.13625  42.1663
 8.15925  41.9334
 8.18225  41.6978
 8.20525  41.5976
 8.22825  41.47
 8.25125  41.1775
 8.27425  40.9106
 8.29725  40.6287
 8.32025  40.3893
 8.34325  40.0591
 8.36625  39.8014
 8.38925  39.4228
 8.41225  39.0786
 8.43525  38.5614
 8.45825  38.129
 8.48125  37.7844
 8.50425  37.5743
 8.52725  37.4266
 8.55025  37.0676
 8.57325  36.4965
 8.59625  36.0363
 8.61925  35.7397
 8.64225  35.4834
 8.66525  35.0069
 8.68825  34.692
 8.71125  34.3981
 8.73425  33.9931
 8.75725  33.4652
 8.78025  33.2293
 8.80325  33.0581
 8.82625  32.814
 8.84925  32.6734
 8.87225  32.509
 8.89525  32.1776
 8.91825  31.7067
 8.94125  31.3356
 8.96425  31.1301
 8.98725  30.6989
 9.01025  30.3343
 9.03325  30.1989
 9.05625  30.0829
 9.07925  29.8897
 9.10225  29.5575
 9.12525  29.2797
 9.14825  29.0065
 9.17125  28.8533
 9.19425  28.684
 9.21725  28.5152
 9.24025  28.3056
 9.26325  28.0452
 9.28625  27.7939
 9.30925  27.5524
 9.33225  27.376
 9.35525  27.222
 9.37825  27.0165
 9.40125  26.8381
 9.42425  26.6849
 9.44725  26.5703
 9.47025  26.4687
 9.49325  26.4248
 9.51625  26.2849
 9.53925  26.188
 9.56225  26.0791
 9.58525  25.9902
 9.60825  25.893
 9.63125  25.6566
 9.65425  25.398
 9.67725  25.308
 9.70025  25.2218
 9.72325  25.3416
 9.74625  25.3194
 9.76925  25.1705
 9.79225  25.0513
 9.81525  24.9835
 9.83825  24.9114
 9.86125  24.7538
 9.88425  24.5663
 9.90725  24.4808
 9.93025  24.5885
 9.95325  24.6008
 9.97625  24.5162
 9.99925  24.2969
 10.0222  24.1651
 10.0453  24.0932
 10.0683  24.0392
 10.0913  23.9248
 10.1143  23.8266
 10.1373  23.8345
 10.1603  23.9923
 10.1832  24.0092
 10.2063  23.8114
 10.2293  23.688
 10.2523  23.5386
 10.2752  23.5025
 10.2982  23.5341
 10.3213  23.5405
 10.3443  23.5992
 10.3673  23.6233
 10.3902  23.5156
 10.4133  23.4074
 10.4363  23.3512
 10.4593  23.3245
 10.4823  23.3325
 10.5053  23.3899
 10.5283  23.2547
 10.5512  23.0952
 10.5742  22.9729
 10.5973  22.8932
 10.6203  22.8759
 10.6433  22.9399
 10.6662  23.0709
 10.6893  23.0132
 10.7123  22.9916
 10.7353  22.9174
 10.7583  22.8834
 10.7813  22.9072
 10.8043  22.8437
 10.8272  22.7756
 10.8503  22.7395
 10.8733  22.8266
 10.8963  22.8973
 10.9192  22.9136
 10.9422  22.8263
 10.9653  22.7121
 10.9883  22.6638
 11.0113  22.7042
 11.0343  22.7634
 11.0573  22.7461
 11.0803  22.7115
 11.1033  22.5929
 11.1263  22.6477
 11.1493  22.6373
 11.1723  22.5051
 11.1953  22.4282
 11.2182  22.4449
 11.2413  22.495
 11.2643  22.4806
 11.2873  22.4834
 11.3102  22.4905
 11.3333  22.4856
 11.3563  22.5155
 11.3793  22.6675
 11.4023  22.8331
 11.4253  22.8893
 11.4483  22.8761
 11.4713  22.9843
 11.4942  23.0082
 11.5173  23.2691
 11.5403  24.1971
 11.5633  26.086
 11.5862  28.898
 11.6093  30.4777
 11.6323  28.4275
 11.6553  25.225
 11.6783  23.4387
 11.7013  22.9124
 11.7243  22.8577
 11.7473  22.8574
 11.7703  22.8218
 11.7933  22.8106
 11.8163  22.885
 11.8393  23.0484
 11.8622  23.0835
 11.8853  23.1718
 11.9083  23.4782
 11.9313  24.5743
 11.9543  27.4025
 11.9773  31.7253
 12.0003  33.9469
 12.0233  31.0542
 12.0463  28.1371
 12.0693  29.824
 12.0923  41.7727
 12.1153  59.0182
 12.1382  65.5526
 12.1613  49.5889
 12.1843  33.4019
 12.2073  26.3665
 12.2302  24.1116
 12.2533  23.6411
 12.2763  23.4567
 12.2993  23.3428
 12.3223  23.2069
 12.3453  23.0854
 12.3683  22.9245
 12.3913  22.833
 12.4142  22.9153
 12.4373  22.9339
 12.4603  22.885
 12.4833  22.9804
 12.5062  22.84
 12.5292  22.8516
 12.5523  22.9501
 12.5753  22.9061
 12.5983  22.9323
 12.6212  22.9314
 12.6443  22.9026
 12.6673  22.8981
 12.6903  22.904
 12.7133  22.9827
 12.7363  23.0559
 12.7593  23.1634
 12.7822  23.1964
 12.8052  23.1717
 12.8283  23.3159
 12.8513  23.4346
 12.8742  23.5029
 12.8972  23.4974
 12.9203  23.5898
 12.9433  23.6296
 12.9663  23.6596
 12.9893  23.7783
 13.0123  23.9869
 13.0353  24.2539
 13.0582  24.3859
 13.0813  24.4567
 13.1043  24.7252
 13.1273  25.0903
 13.1502  25.2781
 13.1732  25.4565
 13.1963  25.6442
 13.2193  25.9648
 13.2423  26.3161
 13.2652  26.5707
 13.2883  26.8117
 13.3113  26.9426
 13.3343  27.2314
 13.3573  27.5934
 13.3803  27.8443
 13.4033  28.0889
 13.4262  28.3282
 13.4492  28.6748
 13.4723  28.8614
 13.4953  29.0575
 13.5183  29.328
 13.5412  29.4888
 13.5643  29.5461
 13.5873  29.6187
 13.6103  29.7272
 13.6333  29.7426
 13.6563  29.7325
 13.6793  29.6932
 13.7022  29.5608
 13.7253  29.6284
 13.7483  29.611
 13.7713  29.5624
 13.7942  29.4511
 13.8172  29.4139
 13.8403  29.4645
 13.8633  29.8175
 13.8863  31.0216
 13.9093  34.3455
 13.9323  39.1483
 13.9553  42.9793
 13.9783  40.6415
 14.0013  34.9114
 14.0243  30.6203
 14.0473  28.7466
 14.0703  28.0794
 14.0932  27.6918
 14.1163  27.5434
 14.1393  27.3805
 14.1623  27.1199
 14.1852  26.9005
 14.2083  26.8055
 14.2313  26.7258
 14.2543  26.6485
 14.2773  26.5347
 14.3003  26.37
 14.3233  26.3652
 14.3463  26.2781
 14.3692  26.047
 14.3923  26.0231
 14.4153  26.0449
 14.4383  25.9829
 14.4612  25.8967
 14.4843  25.7576
 14.5073  25.6453
 14.5303  25.6197
 14.5533  25.637
 14.5763  25.5666
 14.5993  25.457
 14.6223  25.3413
 14.6453  25.3022
 14.6683  25.1572
 14.6913  25.2115
 14.7143  25.2837
 14.7372  25.1876
 14.7603  25.0475
 14.7833  25.0511
 14.8063  25.0647
 14.8293  25.0294
 14.8523  25.0201
 14.8753  24.9386
 14.8983  24.994
 14.9213  24.9812
 14.9443  24.8929
 14.9673  24.8264
 14.9903  24.7963
 15.0132  24.8815
 15.0363  24.8893
 15.0593  24.8762
 15.0823  24.9588
 15.1052  25.2086
 15.1283  25.6559
 15.1513  26.9428
 15.1743  28.753
 15.1973  29.4325
 15.2203  28.6939
 15.2433  27.051
 15.2663  25.6922
 15.2892  25.1055
 15.3123  24.8581
 15.3353  24.8126
 15.3583  24.83
 15.3812  24.7743
 15.4043  24.5944
 15.4273  24.4606
 15.4503  24.4978
 15.4733  24.6159
 15.4963  24.6283
 15.5193  24.617
 15.5423  24.594
 15.5653  24.5482
 15.5883  24.4921
 15.6113  24.4393
 15.6343  24.3814
 15.6572  24.5782
 15.6803  24.7321
 15.7033  24.7571
 15.7263  24.7112
 15.7492  24.5241
 15.7723  24.6432
 15.7953  24.6877
 15.8183  24.7142
 15.8413  24.6853
 15.8643  24.6054
 15.8873  24.6076
 15.9103  24.6949
 15.9332  24.7386
 15.9563  24.6459
 15.9793  24.5933
 16.0023  24.6243
 16.0253  24.7064
 16.0482  24.8034
 16.0713  24.7177
 16.0943  24.6539
 16.1172  24.7939
 16.1403  24.8855
 16.1633  24.9778
 16.1863  25.1035
 16.2093  25.4354
 16.2323  25.9209
 16.2553  26.327
 16.2783  26.1989
 16.3012  25.5185
 16.3243  25.07
 16.3472  24.976
 16.3703  24.8767
 16.3933  24.8322
 16.4163  24.6909
 16.4393  24.6416
 16.4623  24.6606
 16.4853  24.7258
 16.5083  24.7053
 16.5312  24.6935
 16.5543  24.7216
 16.5773  24.6959
 16.6002  24.632
 16.6233  24.5297
 16.6463  24.5156
 16.6693  24.5596
 16.6923  24.5624
 16.7153  24.5691
 16.7383  24.6117
 16.7613  24.5983
 16.7843  24.5398
 16.8073  24.4825
 16.8303  24.4015
 16.8533  24.3237
 16.8763  24.3153
 16.8992  24.2672
 16.9223  24.3797
 16.9453  24.4106
 16.9683  24.4023
 16.9913  24.4387
 17.0143  24.4148
 17.0373  24.3594
 17.0603  24.241
 17.0832  24.2565
 17.1063  24.2704
 17.1293  24.2602
 17.1522  24.2197
 17.1753  24.1881
 17.1983  24.1387
 17.2213  24.1246
 17.2443  24.1789
 17.2673  24.1075
 17.2903  24.1187
 17.3133  24.1024
 17.3362  24.055
 17.3593  24.064
 17.3823  24.0356
 17.4053  23.9979
 17.4283  24.1109
 17.4513  24.2026
 17.4743  24.1578
 17.4973  24.012
 17.5203  23.966
 17.5433  23.9761
 17.5663  23.989
 17.5893  23.9347
 17.6123  23.9544
 17.6352  23.9407
 17.6583  23.8766
 17.6813  23.8421
 17.7042  23.888
 17.7273  23.9392
 17.7503  23.8626
 17.7733  23.8507
 17.7963  23.9349
 17.8193  23.9346
 17.8423  23.9381
 17.8653  23.9782
 17.8882  23.9582
 17.9113  23.9961
 17.9343  24.0468
 17.9573  24.1331
 17.9803  24.5688
 18.0033  25.485
 18.0263  26.1954
 18.0493  26.5258
 18.0723  27.0845
 18.0953  28.1927
 18.1183  28.876
 18.1413  28.2762
 18.1643  26.2857
 18.1872  24.7992
 18.2103  24.2972
 18.2333  24.0533
 18.2563  23.9323
 18.2793  23.8034
 18.3023  23.7726
 18.3253  23.782
 18.3483  23.8482
 18.3712  23.8191
 18.3943  23.8993
 18.4173  23.8967
 18.4402  23.7909
 18.4633  23.7266
 18.4863  23.8102
 18.5093  23.8637
 18.5323  23.7667
 18.5553  23.7103
 18.5783  23.7679
 18.6013  23.7582
 18.6242  23.6995
 18.6473  23.6851
 18.6703  23.6087
 18.6933  23.6766
 18.7163  23.692
 18.7392  23.6154
 18.7623  23.5575
 18.7853  23.5128
 18.8083  23.5404
 18.8313  23.5404
 18.8543  23.5702
 18.8773  23.5848
 18.9003  23.5807
 18.9232  23.6175
 18.9463  23.681
 18.9693  23.6775
 18.9922  23.6609
 19.0153  23.6344
 19.0383  23.6221
 19.0613  23.602
 19.0843  23.536
 19.1073  23.5311
 19.1303  23.6191
 19.1533  23.7367
 19.1762  23.6628
 19.1993  23.6324
 19.2223  23.5998
 19.2453  23.6435
 19.2683  23.6741
 19.2913  23.5857
 19.3143  23.6672
 19.3373  23.6791
 19.3603  23.7255
 19.3833  23.7713
 19.4062  23.8568
 19.4293  23.9059
 19.4523  23.8858
 19.4752  23.9061
 19.4983  23.8741
 19.5213  23.9224
 19.5443  23.9651
 19.5673  23.9612
 19.5903  24.0907
 19.6133  24.3591
 19.6363  24.9139
 19.6593  26.3268
 19.6823  29.105
 19.7053  31.5282
 19.7283  30.5141
 19.7513  28.0484
 19.7742  26.6386
 19.7973  26.4556
 19.8203  27.4044
 19.8433  28.8143
 19.8663  29.1137
 19.8893  27.492
 19.9123  26.4317
 19.9353  25.3605
 19.9582  24.5545
 19.9813  24.207
 20.0043  24.0938
 20.0272  24.0636
 20.0503  24.0353
 20.0733  23.9429
 20.0963  23.9447
 20.1193  23.9504
 20.1423  23.9427
 20.1653  23.9206
 20.1883  23.8436
 20.2112  23.816
 20.2343  23.832
 20.2573  23.886
 20.2803  23.8518
 20.3033  23.8384
 20.3263  23.8023
 20.3493  23.7453
 20.3723  23.7323
 20.3953  23.7473
 20.4183  23.9675
 20.4413  24.0808
 20.4643  24.0673
 20.4873  23.9518
 20.5102  23.8592
 20.5333  23.9184
 20.5563  23.9587
 20.5792  23.9198
 20.6023  23.913
 20.6253  24.0677
 20.6483  24.1492
 20.6713  24.2283
 20.6943  24.5876
 20.7173  25.3291
 20.7403  26.2068
 20.7632  26.7205
 20.7863  26.5002
 20.8093  25.626
 20.8323  24.7603
 20.8553  24.4052
 20.8783  24.2521
 20.9013  24.1424
 20.9243  24.0538
 20.9473  24.0826
 20.9703  24.0234
 20.9933  24.2112
 21.0163  24.2929
 21.0393  24.2708
 21.0622  23.9881
 21.0853  23.9725
 21.1083  23.9271
 21.1313  24.0686
 21.1543  23.9732
 21.1773  23.9228
 21.2003  24.0069
 21.2233  24.0323
 21.2462  24.0725
 21.2693  24.0606
 21.2923  24.058
 21.3152  23.9654
 21.3383  23.9843
 21.3613  24.0977
 21.3843  24.1026
 21.4073  23.967
 21.4303  23.9286
 21.4533  23.9732
 21.4763  24.013
 21.4992  24.0314
 21.5223  24.1087
 21.5453  24.1859
 21.5683  24.0687
 21.5913  24.0556
 21.6142  24.1312
 21.6373  24.162
 21.6603  24.1736
 21.6833  24.189
 21.7063  24.1767
 21.7293  24.1931
 21.7523  24.157
 21.7753  24.0999
 21.7982  24.1378
 21.8213  24.2724
 21.8443  24.3267
 21.8672  24.3235
 21.8903  24.2661
 21.9133  24.3133
 21.9363  24.3368
 21.9593  24.2732
 21.9823  24.2803
 22.0053  24.3356
 22.0283  24.3459
 22.0512  24.3282
 22.0743  24.3675
 22.0973  24.3537
 22.1203  24.5415
 22.1433  24.6387
 22.1663  24.5584
 22.1893  24.5497
 22.2123  24.5012
 22.2353  24.5038
 22.2583  24.5467
 22.2813  24.5333
 22.3043  24.6051
 22.3273  24.6009
 22.3502  24.6641
 22.3733  24.6606
 22.3963  24.6024
 22.4193  24.5903
 22.4423  24.7452
 22.4653  24.7488
 22.4883  24.7015
 22.5113  24.7901
 22.5343  24.847
 22.5573  24.8562
 22.5803  24.8177
 22.6033  24.7873
 22.6263  24.8808
 22.6493  24.9107
 22.6723  25.0519
 22.6953  25.1284
 22.7183  25.196
 22.7413  25.2643
 22.7643  25.3031
 22.7873  25.3312
 22.8103  25.4255
 22.8333  25.5046
 22.8563  25.514
 22.8793  25.6299
 22.9022  25.7837
 22.9253  25.9848
 22.9483  26.0715
 22.9713  26.2593
 22.9943  26.4598