File: test-data-xrd/xrd-map-34-ID-E/Data_0124.chi
F:\20151113_APS_34IDE\\Brian\Particle1\OCV\Data_0124.tif
2-Theta Angle (Degrees)
Intensity
       2000
 0.01725  0.0000000E+00
 0.04025  0.0000000E+00
 0.06325  0.0000000E+00
 0.08625  0.0000000E+00
 0.10925  0.0000000E+00
 0.13225  0.0000000E+00
 0.15525  0.0000000E+00
 0.17825  0.0000000E+00
 0.20125  0.0000000E+00
 0.22425  0.0000000E+00
 0.24725  0.0000000E+00
 0.27025  0.0000000E+00
 0.29325  0.0000000E+00
 0.31625  0.0000000E+00
 0.33925  0.0000000E+00
 0.36225  0.0000000E+00
 0.38525  0.0000000E+00
 0.40825  0.0000000E+00
 0.43125  0.0000000E+00
 0.45425  0.0000000E+00
 0.47725  0.0000000E+00
 0.50025  0.0000000E+00
 0.52325  0.0000000E+00
 0.54625  0.0000000E+00
 0.56925  0.0000000E+00
 0.59225  0.0000000E+00
 0.61525  0.0000000E+00
 0.63825  0.0000000E+00
 0.66125  0.0000000E+00
 0.68425  0.0000000E+00
 0.70725  0.0000000E+00
 0.73025  0.0000000E+00
 0.75325  0.0000000E+00
 0.77625  0.0000000E+00
 0.79925  0.0000000E+00
 0.82225  0.0000000E+00
 0.84525  0.0000000E+00
 0.86825  0.0000000E+00
 0.89125  0.0000000E+00
 0.91425  0.0000000E+00
 0.93725  0.0000000E+00
 0.96025  0.0000000E+00
 0.98325  0.0000000E+00
 1.00625  0.0000000E+00
 1.02925  0.0000000E+00
 1.05225  0.0000000E+00
 1.07525  0.0000000E+00
 1.09825  0.0000000E+00
 1.12125  0.0000000E+00
 1.14425  0.0000000E+00
 1.16725  0.0000000E+00
 1.19025  0.0000000E+00
 1.21325  0.0000000E+00
 1.23625  0.0000000E+00
 1.25925  0.0000000E+00
 1.28225  0.0000000E+00
 1.30525  0.0000000E+00
 1.32825  0.0000000E+00
 1.35125  0.0000000E+00
 1.37425  0.0000000E+00
 1.39725  0.0000000E+00
 1.42025  0.0000000E+00
 1.44325  0.0000000E+00
 1.46625  0.0000000E+00
 1.48925  0.0000000E+00
 1.51225  0.0000000E+00
 1.53525  0.0000000E+00
 1.55825  0.0000000E+00
 1.58125  0.0000000E+00
 1.60425  0.0000000E+00
 1.62725  0.0000000E+00
 1.65025  0.0000000E+00
 1.67325  0.0000000E+00
 1.69625  0.0000000E+00
 1.71925  0.0000000E+00
 1.74225  0.0000000E+00
 1.76525  0.0000000E+00
 1.78825  0.0000000E+00
 1.81125  0.0000000E+00
 1.83425  0.0000000E+00
 1.85725  0.0000000E+00
 1.88025  0.0000000E+00
 1.90325  0.0000000E+00
 1.92625  0.0000000E+00
 1.94925  0.0000000E+00
 1.97225  0.0000000E+00
 1.99525  0.0000000E+00
 2.01825  0.0000000E+00
 2.04125  0.0000000E+00
 2.06425  0.0000000E+00
 2.08725  0.0000000E+00
 2.11025  0.0000000E+00
 2.13325  0.0000000E+00
 2.15625  0.0000000E+00
 2.17925  0.0000000E+00
 2.20225  0.0000000E+00
 2.22525  0.0000000E+00
 2.24825  0.0000000E+00
 2.27125  0.0000000E+00
 2.29425  0.0000000E+00
 2.31725  0.0000000E+00
 2.34025  0.0000000E+00
 2.36325  0.0000000E+00
 2.38625  0.0000000E+00
 2.40925  0.0000000E+00
 2.43225  0.0000000E+00
 2.45525  0.0000000E+00
 2.47825  0.0000000E+00
 2.50125  0.0000000E+00
 2.52425  0.0000000E+00
 2.54725  0.0000000E+00
 2.57025  0.0000000E+00
 2.59325  0.0000000E+00
 2.61625  0.0000000E+00
 2.63925  0.0000000E+00
 2.66225  0.0000000E+00
 2.68525  0.0000000E+00
 2.70825  0.0000000E+00
 2.73125  0.0000000E+00
 2.75425  0.0000000E+00
 2.77725  0.0000000E+00
 2.80025  0.0000000E+00
 2.82325  35.6471
 2.84625  33.5428
 2.86925  34.0968
 2.89225  35.0959
 2.91525  34.6916
 2.93825  34.2221
 2.96125  34.4013
 2.98425  34.8541
 3.00725  35.2698
 3.03025  35.7026
 3.05325  36.2216
 3.07625  35.8329
 3.09925  35.2165
 3.12225  35.7988
 3.14525  36.9183
 3.16825  37.3412
 3.19125  36.7091
 3.21425  35.4992
 3.23725  34.6534
 3.26025  34.6265
 3.28325  34.872
 3.30625  34.9842
 3.32925  35.3414
 3.35225  35.2572
 3.37525  35.0475
 3.39825  35.1283
 3.42125  35.0858
 3.44425  34.1384
 3.46725  33.67
 3.49025  33.8942
 3.51325  33.8595
 3.53625  34.2193
 3.55925  33.8732
 3.58225  33.2966
 3.60525  33.2029
 3.62825  33.3183
 3.65125  33.2017
 3.67425  33.409
 3.69725  33.5068
 3.72025  33.5355
 3.74325  33.5222
 3.76625  33.4494
 3.78925  33.1542
 3.81225  32.7042
 3.83525  32.5231
 3.85825  32.7392
 3.88125  33.0717
 3.90425  33.2467
 3.92725  32.9219
 3.95025  32.9617
 3.97325  32.8741
 3.99625  32.8076
 4.01925  32.5756
 4.04225  32.3807
 4.06525  32.4896
 4.08825  32.3608
 4.11125  32.2511
 4.13425  32.2411
 4.15725  32.4009
 4.18025  32.3694
 4.20325  32.6217
 4.22625  32.3844
 4.24925  32.154
 4.27225  31.9519
 4.29525  31.8592
 4.31825  32.0475
 4.34125  32.3012
 4.36425  32.437
 4.38725  32.2681
 4.41025  32.2057
 4.43325  32.31
 4.45625  32.4678
 4.47925  32.592
 4.50225  32.5054
 4.52525  32.4841
 4.54825  32.3489
 4.57125  32.1133
 4.59425  32.3264
 4.61725  32.7608
 4.64025  32.9164
 4.66325  32.9716
 4.68625  32.8942
 4.70925  32.8284
 4.73225  32.7815
 4.75525  32.646
 4.77825  32.5869
 4.80125  32.5592
 4.82425  32.7495
 4.84725  32.8958
 4.87025  33.005
 4.89325  33.126
 4.91625  33.1726
 4.93925  33.0557
 4.96225  32.8702
 4.98525  33.0316
 5.00825  33.2023
 5.03125  33.3895
 5.05425  33.3125
 5.07725  33.1002
 5.10025  33.0087
 5.12325  33.0699
 5.14625  33.5571
 5.16925  33.991
 5.19225  33.9916
 5.21525  33.9996
 5.23825  33.8406
 5.26125  33.7767
 5.28425  33.8963
 5.30725  34.0935
 5.33025  34.4587
 5.35325  34.5941
 5.37625  34.5191
 5.39925  34.5581
 5.42225  34.5754
 5.44525  34.6903
 5.46825  34.8269
 5.49125  34.8746
 5.51425  34.8948
 5.53725  34.9032
 5.56025  34.8942
 5.58325  34.9279
 5.60625  34.892
 5.62925  35.0738
 5.65225  35.0962
 5.67525  35.4341
 5.69825  35.6288
 5.72125  35.8098
 5.74425  35.8018
 5.76725  35.7559
 5.79025  35.7707
 5.81325  35.8963
 5.83625  36.09
 5.85925  36.2674
 5.88225  36.5612
 5.90525  37.1514
 5.92825  38.6335
 5.95125  42.9265
 5.97425  49.8178
 5.99725  52.3799
 6.02025  47.6242
 6.04325  41.0738
 6.06625  38.0669
 6.08925  37.3874
 6.11225  37.1476
 6.13525  37.2238
 6.15825  37.1933
 6.18125  37.2545
 6.20425  37.0496
 6.22725  36.9021
 6.25025  37.0126
 6.27325  37.3793
 6.29625  37.6917
 6.31925  37.6645
 6.34225  37.8052
 6.36525  38.0881
 6.38825  38.282
 6.41125  38.4001
 6.43425  38.4342
 6.45725  38.3523
 6.48025  38.4667
 6.50325  38.7947
 6.52625  39.2658
 6.54925  39.4858
 6.57225  39.7019
 6.59525  39.7451
 6.61825  39.7481
 6.64125  39.9867
 6.66425  40.3301
 6.68725  40.5887
 6.71025  40.83
 6.73325  40.874
 6.75625  40.9922
 6.77925  41.0306
 6.80225  41.1513
 6.82525  41.3993
 6.84825  41.5968
 6.87125  41.9163
 6.89425  42.1309
 6.91725  42.1932
 6.94025  42.1825
 6.96325  42.0424
 6.98625  42.1963
 7.00925  42.52
 7.03225  42.6659
 7.05525  42.9222
 7.07825  42.9402
 7.10125  42.7688
 7.12425  42.8829
 7.14725  42.9916
 7.17025  43.0226
 7.19325  43.1234
 7.21625  43.5723
 7.23925  43.7862
 7.26225  43.888
 7.28525  43.8155
 7.30825  43.9983
 7.33125  44.0755
 7.35425  43.9277
 7.37725  43.8132
 7.40025  43.9015
 7.42325  44.0268
 7.44625  44.2866
 7.46925  44.4024
 7.49225  44.3739
 7.51525  44.344
 7.53825  44.3084
 7.56125  44.3764
 7.58425  44.3907
 7.60725  44.4022
 7.63025  44.4439
 7.65325  44.5167
 7.67625  44.331
 7.69925  44.3301
 7.72225  44.3389
 7.74525  44.1872
 7.76825  44.09
 7.79125  44.2013
 7.81425  44.2429
 7.83725  44.2906
 7.86025  44.1965
 7.88325  43.9714
 7.90625  43.8281
 7.92925  43.8132
 7.95225  43.7531
 7.97525  43.5133
 7.99825  43.3172
 8.02125  43.1518
 8.04425  43.0345
 8.06725  42.7973
 8.09025  42.748
 8.11325  42.9474
 8.13625  42.8471
 8.15925  42.4876
 8.18225  42.0615
 8.20525  41.9497
 8.22825  41.7748
 8.25125  41.7548
 8.27425  41.4808
 8.29725  40.9703
 8.32025  40.7712
 8.34325  40.4785
 8.36625  40.1877
 8.38925  39.9168
 8.41225  39.4739
 8.43525  39.0381
 8.45825  38.7703
 8.48125  38.4248
 8.50425  37.86
 8.52725  37.5651
 8.55025  37.2221
 8.57325  36.9049
 8.59625  36.4826
 8.61925  36.0593
 8.64225  35.7353
 8.66525  35.3213
 8.68825  35.0956
 8.71125  34.8908
 8.73425  34.4817
 8.75725  33.8104
 8.78025  33.5772
 8.80325  33.3973
 8.82625  33.1204
 8.84925  32.7171
 8.87225  32.3179
 8.89525  31.9591
 8.91825  31.6855
 8.94125  31.3145
 8.96425  31.1657
 8.98725  31.0187
 9.01025  30.7278
 9.03325  30.4385
 9.05625  30.1199
 9.07925  29.8666
 9.10225  29.6756
 9.12525  29.5181
 9.14825  29.2293
 9.17125  28.9885
 9.19425  28.8126
 9.21725  28.6418
 9.24025  28.2894
 9.26325  28.0619
 9.28625  27.8568
 9.30925  27.6535
 9.33225  27.3152
 9.35525  27.2628
 9.37825  27.2306
 9.40125  27.0917
 9.42425  26.8911
 9.44725  26.7427
 9.47025  26.5173
 9.49325  26.4137
 9.51625  26.284
 9.53925  26.2004
 9.56225  26.0867
 9.58525  25.7448
 9.60825  25.4874
 9.63125  25.3134
 9.65425  25.2089
 9.67725  25.0884
 9.70025  24.982
 9.72325  25.0579
 9.74625  25.2163
 9.76925  25.1493
 9.79225  24.9951
 9.81525  24.8744
 9.83825  24.7822
 9.86125  24.7314
 9.88425  24.5114
 9.90725  24.4104
 9.93025  24.3041
 9.95325  24.2273
 9.97625  24.2539
 9.99925  24.1183
 10.0222  24.0065
 10.0453  24.066
 10.0683  24.1131
 10.0913  24.0617
 10.1143  23.9241
 10.1373  23.8504
 10.1603  23.7656
 10.1832  23.7155
 10.2063  23.6402
 10.2293  23.6806
 10.2523  23.5961
 10.2752  23.5075
 10.2982  23.3882
 10.3213  23.3074
 10.3443  23.2839
 10.3673  23.2637
 10.3902  23.3109
 10.4133  23.3469
 10.4363  23.3049
 10.4593  23.2227
 10.4823  23.1798
 10.5053  23.1099
 10.5283  23.0599
 10.5512  22.9708
 10.5742  22.9497
 10.5973  22.8794
 10.6203  22.9567
 10.6433  22.9775
 10.6662  22.9862
 10.6893  22.8936
 10.7123  22.933
 10.7353  22.9162
 10.7583  22.8611
 10.7813  22.8853
 10.8043  22.8359
 10.8272  22.8343
 10.8503  22.7262
 10.8733  22.6254
 10.8963  22.6157
 10.9192  22.7216
 10.9422  22.7912
 10.9653  22.7023
 10.9883  22.6168
 11.0113  22.5061
 11.0343  22.4308
 11.0573  22.3522
 11.0803  22.407
 11.1033  22.4029
 11.1263  22.4839
 11.1493  22.5413
 11.1723  22.5178
 11.1953  22.4171
 11.2182  22.2948
 11.2413  22.3084
 11.2643  22.3501
 11.2873  22.3348
 11.3102  22.2871
 11.3333  22.2603
 11.3563  22.2805
 11.3793  22.466
 11.4023  22.695
 11.4253  22.7691
 11.4483  22.7434
 11.4713  22.8179
 11.4942  23.0488
 11.5173  23.6629
 11.5403  26.2018
 11.5633  31.0517
 11.5862  33.9698
 11.6093  30.8441
 11.6323  26.6837
 11.6553  24.3434
 11.6783  23.1661
 11.7013  22.7184
 11.7243  22.6258
 11.7473  22.5396
 11.7703  22.5006
 11.7933  22.4539
 11.8163  22.4795
 11.8393  22.4291
 11.8622  22.3962
 11.8853  22.4424
 11.9083  22.5244
 11.9313  22.5192
 11.9543  22.6374
 11.9773  22.7409
 12.0003  22.7776
 12.0233  22.7871
 12.0463  23.0108
 12.0693  23.5102
 12.0923  24.143
 12.1153  24.1658
 12.1382  23.5757
 12.1613  22.8242
 12.1843  22.5239
 12.2073  22.5039
 12.2302  22.4585
 12.2533  22.4516
 12.2763  22.3906
 12.2993  22.4198
 12.3223  22.4579
 12.3453  22.4334
 12.3683  22.397
 12.3913  22.4113
 12.4142  22.3756
 12.4373  22.3638
 12.4603  22.3871
 12.4833  22.4712
 12.5062  22.4097
 12.5292  22.4545
 12.5523  22.5239
 12.5753  22.6658
 12.5983  22.7163
 12.6212  22.7231
 12.6443  22.7236
 12.6673  22.7302
 12.6903  22.7588
 12.7133  22.7307
 12.7363  22.6842
 12.7593  22.8262
 12.7822  22.9196
 12.8052  22.9123
 12.8283  23.0278
 12.8513  23.1593
 12.8742  23.2345
 12.8972  23.2974
 12.9203  23.4297
 12.9433  23.5207
 12.9663  23.724
 12.9893  23.8121
 13.0123  23.9134
 13.0353  24.0144
 13.0582  24.1775
 13.0813  24.3731
 13.1043  24.6493
 13.1273  24.8321
 13.1502  25.0356
 13.1732  25.2897
 13.1963  25.6194
 13.2193  25.8351
 13.2423  26.0979
 13.2652  26.3205
 13.2883  26.5315
 13.3113  26.7487
 13.3343  27.1313
 13.3573  27.4808
 13.3803  27.7375
 13.4033  28.0336
 13.4262  28.309
 13.4492  28.4747
 13.4723  28.7998
 13.4953  29.0245
 13.5183  29.1986
 13.5412  29.3018
 13.5643  29.3995
 13.5873  29.5276
 13.6103  29.6186
 13.6333  29.6108
 13.6563  29.5407
 13.6793  29.5707
 13.7022  29.5806
 13.7253  29.5047
 13.7483  29.6267
 13.7713  29.384
 13.7942  29.1639
 13.8172  29.1291
 13.8403  29.1745
 13.8633  29.2284
 13.8863  29.6839
 13.9093  30.5582
 13.9323  31.4808
 13.9553  31.7989
 13.9783  31.3356
 14.0013  30.1035
 14.0243  28.8459
 14.0473  27.9476
 14.0703  27.6429
 14.0932  27.3991
 14.1163  27.2188
 14.1393  27.0096
 14.1623  26.869
 14.1852  26.7029
 14.2083  26.5615
 14.2313  26.3464
 14.2543  26.1965
 14.2773  26.1645
 14.3003  26.1005
 14.3233  26.0078
 14.3463  25.9638
 14.3692  25.9838
 14.3923  25.8866
 14.4153  25.7371
 14.4383  25.6797
 14.4612  25.6238
 14.4843  25.4894
 14.5073  25.5153
 14.5303  25.5362
 14.5533  25.4775
 14.5763  25.3487
 14.5993  25.2296
 14.6223  25.2021
 14.6453  25.2327
 14.6683  25.144
 14.6913  25.0929
 14.7143  25.0799
 14.7372  25.0425
 14.7603  25.0142
 14.7833  25.0041
 14.8063  24.9691
 14.8293  24.8715
 14.8523  24.7644
 14.8753  24.7477
 14.8983  24.8196
 14.9213  24.8204
 14.9443  24.683
 14.9673  24.6368
 14.9903  24.6702
 15.0132  24.6454
 15.0363  24.761
 15.0593  24.7719
 15.0823  24.7184
 15.1052  24.7964
 15.1283  24.9416
 15.1513  25.3046
 15.1743  25.6677
 15.1973  25.5788
 15.2203  25.2385
 15.2433  24.8409
 15.2663  24.599
 15.2892  24.4746
 15.3123  24.5331
 15.3353  24.5587
 15.3583  24.5384
 15.3812  24.4951
 15.4043  24.4536
 15.4273  24.3758
 15.4503  24.4423
 15.4733  24.4989
 15.4963  24.5016
 15.5193  24.4117
 15.5423  24.3757
 15.5653  24.4094
 15.5883  24.4891
 15.6113  24.4591
 15.6343  24.3436
 15.6572  24.3311
 15.6803  24.2851
 15.7033  24.2943
 15.7263  24.292
 15.7492  24.2072
 15.7723  24.2775
 15.7953  24.3526
 15.8183  24.4703
 15.8413  24.3938
 15.8643  24.3333
 15.8873  24.3842
 15.9103  24.4931
 15.9332  24.5688
 15.9563  24.4951
 15.9793  24.5359
 16.0023  24.4662
 16.0253  24.4108
 16.0482  24.4602
 16.0713  24.4785
 16.0943  24.4235
 16.1172  24.4801
 16.1403  24.6249
 16.1633  24.8545
 16.1863  25.1294
 16.2093  25.6905
 16.2323  26.62
 16.2553  27.4373
 16.2783  26.9343
 16.3012  25.6194
 16.3243  24.9005
 16.3472  24.7196
 16.3703  24.6388
 16.3933  24.732
 16.4163  24.8537
 16.4393  24.7799
 16.4623  24.6231
 16.4853  24.565
 16.5083  24.4716
 16.5312  24.3869
 16.5543  24.4824
 16.5773  24.5859
 16.6002  24.5361
 16.6233  24.5036
 16.6463  24.4507
 16.6693  24.509
 16.6923  24.5597
 16.7153  24.519
 16.7383  24.4021
 16.7613  24.3528
 16.7843  24.3546
 16.8073  24.42
 16.8303  24.3996
 16.8533  24.3463
 16.8763  24.3514
 16.8992  24.3396
 16.9223  24.3164
 16.9453  24.1812
 16.9683  24.1942
 16.9913  24.1835
 17.0143  24.2477
 17.0373  24.2202
 17.0603  24.074
 17.0832  24.1091
 17.1063  24.0612
 17.1293  24.0704
 17.1522  24.044
 17.1753  24.0299
 17.1983  23.995
 17.2213  23.9731
 17.2443  23.9238
 17.2673  23.8513
 17.2903  23.8881
 17.3133  23.9218
 17.3362  23.9597
 17.3593  23.9356
 17.3823  23.9423
 17.4053  23.8958
 17.4283  23.8451
 17.4513  23.7984
 17.4743  23.7645
 17.4973  23.7692
 17.5203  23.7746
 17.5433  23.8422
 17.5663  23.7767
 17.5893  23.7062
 17.6123  23.691
 17.6352  23.6544
 17.6583  23.6041
 17.6813  23.696
 17.7042  23.812
 17.7273  23.7316
 17.7503  23.5766
 17.7733  23.5992
 17.7963  23.6655
 17.8193  23.6595
 17.8423  23.5782
 17.8653  23.5377
 17.8882  23.5931
 17.9113  23.7339
 17.9343  23.799
 17.9573  23.7032
 17.9803  23.6256
 18.0033  23.685
 18.0263  23.7615
 18.0493  23.8994
 18.0723  24.0687
 18.0953  24.3457
 18.1183  24.5401
 18.1413  24.3461
 18.1643  24.0023
 18.1872  23.6439
 18.2103  23.5101
 18.2333  23.4351
 18.2563  23.4115
 18.2793  23.3999
 18.3023  23.4049
 18.3253  23.4255
 18.3483  23.4874
 18.3712  23.4589
 18.3943  23.4659
 18.4173  23.4808
 18.4402  23.4511
 18.4633  23.4469
 18.4863  23.3093
 18.5093  23.2383
 18.5323  23.1958
 18.5553  23.2026
 18.5783  23.2787
 18.6013  23.4442
 18.6242  23.435
 18.6473  23.4268
 18.6703  23.4112
 18.6933  23.4402
 18.7163  23.3793
 18.7392  23.3398
 18.7623  23.3587
 18.7853  23.3985
 18.8083  23.3365
 18.8313  23.3076
 18.8543  23.3136
 18.8773  23.3346
 18.9003  23.2982
 18.9232  23.3586
 18.9463  23.4649
 18.9693  23.3987
 18.9922  23.2437
 19.0153  23.3231
 19.0383  23.4
 19.0613  23.3952
 19.0843  23.3596
 19.1073  23.2108
 19.1303  23.1621
 19.1533  23.2635
 19.1762  23.3248
 19.1993  23.3651
 19.2223  23.4007
 19.2453  23.3768
 19.2683  23.41
 19.2913  23.3876
 19.3143  23.4025
 19.3373  23.3911
 19.3603  23.3864
 19.3833  23.4378
 19.4062  23.5203
 19.4293  23.476
 19.4523  23.4988
 19.4752  23.5471
 19.4983  23.5327
 19.5213  23.5066
 19.5443  23.4453
 19.5673  23.4763
 19.5903  23.597
 19.6133  23.6333
 19.6363  23.7167
 19.6593  24.0627
 19.6823  24.3631
 19.7053  24.7809
 19.7283  25.1043
 19.7513  24.9791
 19.7742  24.6454
 19.7973  24.4679
 19.8203  24.5916
 19.8433  24.871
 19.8663  24.8429
 19.8893  24.6981
 19.9123  24.4602
 19.9353  24.0487
 19.9582  23.7369
 19.9813  23.6842
 20.0043  23.6064
 20.0272  23.6423
 20.0503  23.6926
 20.0733  23.5943
 20.0963  23.5287
 20.1193  23.549
 20.1423  23.5241
 20.1653  23.4501
 20.1883  23.4864
 20.2112  23.4415
 20.2343  23.4899
 20.2573  23.4643
 20.2803  23.5454
 20.3033  23.5734
 20.3263  23.6015
 20.3493  23.5898
 20.3723  23.4843
 20.3953  23.4895
 20.4183  23.5387
 20.4413  23.5522
 20.4643  23.5696
 20.4873  23.59
 20.5102  23.5596
 20.5333  23.5771
 20.5563  23.6397
 20.5792  23.6793
 20.6023  23.7055
 20.6253  23.709
 20.6483  23.7166
 20.6713  23.7797
 20.6943  23.9335
 20.7173  24.2608
 20.7403  24.4821
 20.7632  24.6049
 20.7863  24.4054
 20.8093  24.1836
 20.8323  23.9683
 20.8553  23.8103
 20.8783  23.7479
 20.9013  23.8099
 20.9243  23.8554
 20.9473  23.8116
 20.9703  23.6821
 20.9933  23.5925
 21.0163  23.5718
 21.0393  23.6441
 21.0622  23.6716
 21.0853  23.6781
 21.1083  23.6747
 21.1313  23.6917
 21.1543  23.612
 21.1773  23.6862
 21.2003  23.7381
 21.2233  23.7105
 21.2462  23.7037
 21.2693  23.7572
 21.2923  23.7843
 21.3152  23.6385
 21.3383  23.625
 21.3613  23.7576
 21.3843  23.7981
 21.4073  23.7882
 21.4303  23.7644
 21.4533  23.7458
 21.4763  23.7122
 21.4992  23.7593
 21.5223  23.8291
 21.5453  23.8316
 21.5683  23.7973
 21.5913  23.872
 21.6142  23.9045
 21.6373  23.8913
 21.6603  23.8281
 21.6833  23.8555
 21.7063  23.936
 21.7293  23.9919
 21.7523  23.9153
 21.7753  23.9484
 21.7982  23.9161
 21.8213  23.9739
 21.8443  23.8865
 21.8672  23.9624
 21.8903  24.0032
 21.9133  23.8932
 21.9363  23.9186
 21.9593  23.9732
 21.9823  24.0388
 22.0053  24.0878
 22.0283  24.1758
 22.0512  24.1364
 22.0743  24.1039
 22.0973  23.9717
 22.1203  24.0235
 22.1433  24.1263
 22.1663  24.2043
 22.1893  24.143
 22.2123  24.1568
 22.2353  24.2203
 22.2583  24.2462
 22.2813  24.2434
 22.3043  24.3709
 22.3273  24.3598
 22.3502  24.3608
 22.3733  24.3472
 22.3963  24.3762
 22.4193  24.3549
 22.4423  24.434
 22.4653  24.4319
 22.4883  24.4697
 22.5113  24.5713
 22.5343  24.5934
 22.5573  24.6441
 22.5803  24.6329
 22.6033  24.642
 22.6263  24.8051
 22.6493  24.8364
 22.6723  24.8773
 22.6953  25.0116
 22.7183  25.0427
 22.7413  25.0931
 22.7643  25.0862
 22.7873  25.0635
 22.8103  25.1999
 22.8333  25.2744
 22.8563  25.3849
 22.8793  25.4572
 22.9022  25.6339
 22.9253  25.7584
 22.9483  25.8593
 22.9713  26.0705
 22.9943  26.2139