File: test-data-xrd/xrd-map-34-ID-E/Data_0104.chi
F:\20151113_APS_34IDE\\Brian\Particle1\OCV\Data_0104.tif
2-Theta Angle (Degrees)
Intensity
       2000
 0.01725  0.0000000E+00
 0.04025  0.0000000E+00
 0.06325  0.0000000E+00
 0.08625  0.0000000E+00
 0.10925  0.0000000E+00
 0.13225  0.0000000E+00
 0.15525  0.0000000E+00
 0.17825  0.0000000E+00
 0.20125  0.0000000E+00
 0.22425  0.0000000E+00
 0.24725  0.0000000E+00
 0.27025  0.0000000E+00
 0.29325  0.0000000E+00
 0.31625  0.0000000E+00
 0.33925  0.0000000E+00
 0.36225  0.0000000E+00
 0.38525  0.0000000E+00
 0.40825  0.0000000E+00
 0.43125  0.0000000E+00
 0.45425  0.0000000E+00
 0.47725  0.0000000E+00
 0.50025  0.0000000E+00
 0.52325  0.0000000E+00
 0.54625  0.0000000E+00
 0.56925  0.0000000E+00
 0.59225  0.0000000E+00
 0.61525  0.0000000E+00
 0.63825  0.0000000E+00
 0.66125  0.0000000E+00
 0.68425  0.0000000E+00
 0.70725  0.0000000E+00
 0.73025  0.0000000E+00
 0.75325  0.0000000E+00
 0.77625  0.0000000E+00
 0.79925  0.0000000E+00
 0.82225  0.0000000E+00
 0.84525  0.0000000E+00
 0.86825  0.0000000E+00
 0.89125  0.0000000E+00
 0.91425  0.0000000E+00
 0.93725  0.0000000E+00
 0.96025  0.0000000E+00
 0.98325  0.0000000E+00
 1.00625  0.0000000E+00
 1.02925  0.0000000E+00
 1.05225  0.0000000E+00
 1.07525  0.0000000E+00
 1.09825  0.0000000E+00
 1.12125  0.0000000E+00
 1.14425  0.0000000E+00
 1.16725  0.0000000E+00
 1.19025  0.0000000E+00
 1.21325  0.0000000E+00
 1.23625  0.0000000E+00
 1.25925  0.0000000E+00
 1.28225  0.0000000E+00
 1.30525  0.0000000E+00
 1.32825  0.0000000E+00
 1.35125  0.0000000E+00
 1.37425  0.0000000E+00
 1.39725  0.0000000E+00
 1.42025  0.0000000E+00
 1.44325  0.0000000E+00
 1.46625  0.0000000E+00
 1.48925  0.0000000E+00
 1.51225  0.0000000E+00
 1.53525  0.0000000E+00
 1.55825  0.0000000E+00
 1.58125  0.0000000E+00
 1.60425  0.0000000E+00
 1.62725  0.0000000E+00
 1.65025  0.0000000E+00
 1.67325  0.0000000E+00
 1.69625  0.0000000E+00
 1.71925  0.0000000E+00
 1.74225  0.0000000E+00
 1.76525  0.0000000E+00
 1.78825  0.0000000E+00
 1.81125  0.0000000E+00
 1.83425  0.0000000E+00
 1.85725  0.0000000E+00
 1.88025  0.0000000E+00
 1.90325  0.0000000E+00
 1.92625  0.0000000E+00
 1.94925  0.0000000E+00
 1.97225  0.0000000E+00
 1.99525  0.0000000E+00
 2.01825  0.0000000E+00
 2.04125  0.0000000E+00
 2.06425  0.0000000E+00
 2.08725  0.0000000E+00
 2.11025  0.0000000E+00
 2.13325  0.0000000E+00
 2.15625  0.0000000E+00
 2.17925  0.0000000E+00
 2.20225  0.0000000E+00
 2.22525  0.0000000E+00
 2.24825  0.0000000E+00
 2.27125  0.0000000E+00
 2.29425  0.0000000E+00
 2.31725  0.0000000E+00
 2.34025  0.0000000E+00
 2.36325  0.0000000E+00
 2.38625  0.0000000E+00
 2.40925  0.0000000E+00
 2.43225  0.0000000E+00
 2.45525  0.0000000E+00
 2.47825  0.0000000E+00
 2.50125  0.0000000E+00
 2.52425  0.0000000E+00
 2.54725  0.0000000E+00
 2.57025  0.0000000E+00
 2.59325  0.0000000E+00
 2.61625  0.0000000E+00
 2.63925  0.0000000E+00
 2.66225  0.0000000E+00
 2.68525  0.0000000E+00
 2.70825  0.0000000E+00
 2.73125  0.0000000E+00
 2.75425  0.0000000E+00
 2.77725  0.0000000E+00
 2.80025  0.0000000E+00
 2.82325  31.9747
 2.84625  33.8901
 2.86925  34.4027
 2.89225  35.3644
 2.91525  35.5768
 2.93825  35.5214
 2.96125  34.3918
 2.98425  34.1845
 3.00725  34.9981
 3.03025  34.9846
 3.05325  34.8423
 3.07625  34.3387
 3.09925  34.159
 3.12225  34.3258
 3.14525  34.6437
 3.16825  34.7419
 3.19125  34.51
 3.21425  34.3541
 3.23725  34.4151
 3.26025  34.8809
 3.28325  35.1643
 3.30625  35.1642
 3.32925  35.0682
 3.35225  35.2732
 3.37525  34.9603
 3.39825  34.6862
 3.42125  34.5812
 3.44425  34.2558
 3.46725  34.4192
 3.49025  34.5296
 3.51325  33.9139
 3.53625  33.9158
 3.55925  33.7626
 3.58225  33.701
 3.60525  33.3089
 3.62825  32.7918
 3.65125  32.7332
 3.67425  32.7746
 3.69725  32.6243
 3.72025  32.6291
 3.74325  33.3392
 3.76625  33.6589
 3.78925  33.0725
 3.81225  32.6862
 3.83525  32.6301
 3.85825  32.7412
 3.88125  32.8637
 3.90425  32.8025
 3.92725  32.6292
 3.95025  32.4961
 3.97325  32.4926
 3.99625  32.8377
 4.01925  32.7337
 4.04225  32.7555
 4.06525  32.9614
 4.08825  32.7836
 4.11125  32.5994
 4.13425  32.4424
 4.15725  32.1495
 4.18025  31.9172
 4.20325  32.042
 4.22625  32.307
 4.24925  32.1803
 4.27225  32.2162
 4.29525  32.3658
 4.31825  32.5031
 4.34125  32.5532
 4.36425  32.4
 4.38725  32.5367
 4.41025  32.5629
 4.43325  32.7418
 4.45625  32.711
 4.47925  32.7716
 4.50225  32.581
 4.52525  32.4621
 4.54825  32.4407
 4.57125  32.5246
 4.59425  32.5293
 4.61725  32.6267
 4.64025  32.8245
 4.66325  32.9719
 4.68625  32.9916
 4.70925  32.9135
 4.73225  32.6334
 4.75525  32.5922
 4.77825  32.661
 4.80125  32.5937
 4.82425  32.6615
 4.84725  32.662
 4.87025  32.8599
 4.89325  32.694
 4.91625  32.5083
 4.93925  32.3871
 4.96225  32.5079
 4.98525  32.6726
 5.00825  33.038
 5.03125  33.3439
 5.05425  33.3286
 5.07725  33.3205
 5.10025  33.5314
 5.12325  33.6029
 5.14625  33.6863
 5.16925  33.8341
 5.19225  33.8912
 5.21525  33.9744
 5.23825  34.087
 5.26125  34.3593
 5.28425  34.2089
 5.30725  34.1307
 5.33025  34.2581
 5.35325  34.3632
 5.37625  34.4343
 5.39925  34.6954
 5.42225  34.7394
 5.44525  34.6962
 5.46825  34.7898
 5.49125  34.9641
 5.51425  35.0236
 5.53725  35.1755
 5.56025  35.3241
 5.58325  35.4036
 5.60625  35.5359
 5.62925  35.6195
 5.65225  35.783
 5.67525  36.1242
 5.69825  35.9645
 5.72125  35.7882
 5.74425  35.7584
 5.76725  35.7695
 5.79025  35.9739
 5.81325  36.1898
 5.83625  36.3419
 5.85925  36.5176
 5.88225  37.0232
 5.90525  37.8105
 5.92825  40.2331
 5.95125  46.3363
 5.97425  50.8633
 5.99725  53.759
 6.02025  46.9002
 6.04325  42.3421
 6.06625  38.5606
 6.08925  37.5226
 6.11225  37.2348
 6.13525  37.0264
 6.15825  36.9581
 6.18125  37.1433
 6.20425  37.3676
 6.22725  37.5247
 6.25025  37.5175
 6.27325  37.5765
 6.29625  37.8436
 6.31925  37.8507
 6.34225  37.9682
 6.36525  38.1829
 6.38825  38.4042
 6.41125  38.5649
 6.43425  38.6236
 6.45725  38.6074
 6.48025  38.6614
 6.50325  38.9136
 6.52625  39.1543
 6.54925  39.2182
 6.57225  39.5217
 6.59525  39.6633
 6.61825  39.7787
 6.64125  39.8246
 6.66425  40.071
 6.68725  40.2981
 6.71025  40.5671
 6.73325  40.8109
 6.75625  41.0515
 6.77925  41.356
 6.80225  41.4422
 6.82525  41.4406
 6.84825  41.537
 6.87125  41.704
 6.89425  41.8112
 6.91725  41.8893
 6.94025  42.0358
 6.96325  42.2095
 6.98625  42.3811
 7.00925  42.5122
 7.03225  42.556
 7.05525  42.5423
 7.07825  42.5498
 7.10125  42.8065
 7.12425  43.1935
 7.14725  43.3696
 7.17025  43.2907
 7.19325  43.3496
 7.21625  43.405
 7.23925  43.3413
 7.26225  43.3178
 7.28525  43.4475
 7.30825  43.6384
 7.33125  44.0491
 7.35425  44.2023
 7.37725  43.9591
 7.40025  43.7385
 7.42325  43.8563
 7.44625  44.026
 7.46925  44.1516
 7.49225  44.324
 7.51525  44.5442
 7.53825  44.4917
 7.56125  44.2632
 7.58425  44.1667
 7.60725  44.2623
 7.63025  44.3448
 7.65325  44.3641
 7.67625  44.1315
 7.69925  44.151
 7.72225  44.2983
 7.74525  44.3453
 7.76825  44.2357
 7.79125  44.1839
 7.81425  44.022
 7.83725  43.9868
 7.86025  43.9572
 7.88325  43.8226
 7.90625  43.8696
 7.92925  43.9404
 7.95225  43.8572
 7.97525  43.6212
 7.99825  43.4715
 8.02125  43.3395
 8.04425  43.2209
 8.06725  43.0932
 8.09025  42.887
 8.11325  42.7735
 8.13625  42.6373
 8.15925  42.4393
 8.18225  42.0799
 8.20525  41.6487
 8.22825  41.3344
 8.25125  41.1919
 8.27425  41.0846
 8.29725  40.8341
 8.32025  40.442
 8.34325  40.0449
 8.36625  39.9655
 8.38925  39.7813
 8.41225  39.3925
 8.43525  39.067
 8.45825  38.6984
 8.48125  38.3599
 8.50425  37.8685
 8.52725  37.5773
 8.55025  37.2204
 8.57325  36.9904
 8.59625  36.5158
 8.61925  36.1797
 8.64225  35.8971
 8.66525  35.6034
 8.68825  35.2461
 8.71125  34.8024
 8.73425  34.3923
 8.75725  34.0638
 8.78025  33.7714
 8.80325  33.5493
 8.82625  33.2679
 8.84925  32.9778
 8.87225  32.5949
 8.89525  32.2025
 8.91825  31.8617
 8.94125  31.5746
 8.96425  31.4492
 8.98725  31.2197
 9.01025  30.8315
 9.03325  30.3379
 9.05625  29.9629
 9.07925  29.8192
 9.10225  29.5506
 9.12525  29.3829
 9.14825  29.1344
 9.17125  28.9393
 9.19425  28.6849
 9.21725  28.4285
 9.24025  28.1848
 9.26325  27.9533
 9.28625  27.6364
 9.30925  27.4178
 9.33225  27.3183
 9.35525  27.1713
 9.37825  27.0202
 9.40125  26.9431
 9.42425  26.8715
 9.44725  26.5931
 9.47025  26.413
 9.49325  26.4108
 9.51625  26.4678
 9.53925  26.3741
 9.56225  26.0837
 9.58525  25.8363
 9.60825  25.7835
 9.63125  25.7377
 9.65425  25.5862
 9.67725  25.2891
 9.70025  25.0429
 9.72325  25.0227
 9.74625  25.0178
 9.76925  25.0609
 9.79225  25.0114
 9.81525  24.9337
 9.83825  24.8077
 9.86125  24.7301
 9.88425  24.644
 9.90725  24.4881
 9.93025  24.3719
 9.95325  24.4081
 9.97625  24.375
 9.99925  24.2857
 10.0222  24.161
 10.0453  24.1466
 10.0683  24.0738
 10.0913  24.0048
 10.1143  23.9359
 10.1373  23.9146
 10.1603  23.8872
 10.1832  23.7551
 10.2063  23.6787
 10.2293  23.7712
 10.2523  23.7271
 10.2752  23.6275
 10.2982  23.6267
 10.3213  23.6174
 10.3443  23.5904
 10.3673  23.4776
 10.3902  23.3927
 10.4133  23.3988
 10.4363  23.2765
 10.4593  23.2482
 10.4823  23.173
 10.5053  23.1867
 10.5283  23.1685
 10.5512  23.0194
 10.5742  22.9111
 10.5973  22.8048
 10.6203  22.8654
 10.6433  22.9035
 10.6662  22.9159
 10.6893  22.8445
 10.7123  22.7998
 10.7353  22.7804
 10.7583  22.8134
 10.7813  22.8645
 10.8043  22.8573
 10.8272  22.8131
 10.8503  22.7287
 10.8733  22.6937
 10.8963  22.6814
 10.9192  22.6813
 10.9422  22.5858
 10.9653  22.5258
 10.9883  22.4746
 11.0113  22.5515
 11.0343  22.5716
 11.0573  22.498
 11.0803  22.4754
 11.1033  22.6328
 11.1263  22.6443
 11.1493  22.5978
 11.1723  22.5608
 11.1953  22.466
 11.2182  22.4829
 11.2413  22.4133
 11.2643  22.3295
 11.2873  22.4079
 11.3102  22.5212
 11.3333  22.5917
 11.3563  22.5614
 11.3793  22.5963
 11.4023  22.6895
 11.4253  22.6548
 11.4483  22.7234
 11.4713  22.8697
 11.4942  23.0538
 11.5173  23.4728
 11.5403  24.4985
 11.5633  26.5589
 11.5862  29.4762
 11.6093  31.6842
 11.6323  29.6183
 11.6553  26.1147
 11.6783  23.6855
 11.7013  23.0069
 11.7243  22.8125
 11.7473  22.7562
 11.7703  22.6366
 11.7933  22.519
 11.8163  22.5684
 11.8393  22.6481
 11.8622  22.5842
 11.8853  22.57
 11.9083  22.6667
 11.9313  23.0797
 11.9543  23.9488
 11.9773  24.5377
 12.0003  24.6966
 12.0233  24.0979
 12.0463  23.9124
 12.0693  24.6093
 12.0923  25.6794
 12.1153  25.8935
 12.1382  24.8056
 12.1613  23.7999
 12.1843  23.1569
 12.2073  22.8633
 12.2302  22.6357
 12.2533  22.4924
 12.2763  22.5359
 12.2993  22.5656
 12.3223  22.5944
 12.3453  22.5987
 12.3683  22.6577
 12.3913  22.6465
 12.4142  22.618
 12.4373  22.6608
 12.4603  22.6711
 12.4833  22.7104
 12.5062  22.6441
 12.5292  22.5589
 12.5523  22.7116
 12.5753  22.7928
 12.5983  22.8044
 12.6212  22.8884
 12.6443  22.8301
 12.6673  22.8349
 12.6903  22.8928
 12.7133  22.9314
 12.7363  22.969
 12.7593  23.0549
 12.7822  23.1189
 12.8052  23.2257
 12.8283  23.2449
 12.8513  23.246
 12.8742  23.4244
 12.8972  23.5481
 12.9203  23.6423
 12.9433  23.7884
 12.9663  23.8074
 12.9893  23.8332
 13.0123  23.9936
 13.0353  24.2017
 13.0582  24.3711
 13.0813  24.5249
 13.1043  24.8603
 13.1273  25.1573
 13.1502  25.2941
 13.1732  25.5431
 13.1963  25.7968
 13.2193  26.0036
 13.2423  26.2887
 13.2652  26.6076
 13.2883  26.8677
 13.3113  27.1273
 13.3343  27.482
 13.3573  27.8271
 13.3803  28.0538
 13.4033  28.3739
 13.4262  28.5663
 13.4492  28.675
 13.4723  28.814
 13.4953  29.0395
 13.5183  29.2732
 13.5412  29.5686
 13.5643  29.6871
 13.5873  29.6441
 13.6103  29.7309
 13.6333  29.8176
 13.6563  29.9133
 13.6793  30.0053
 13.7022  29.9858
 13.7253  29.9896
 13.7483  30.0468
 13.7713  30.101
 13.7942  30.2145
 13.8172  30.4792
 13.8403  31.031
 13.8633  32.5114
 13.8863  36.0939
 13.9093  45.6908
 13.9323  61.654
 13.9553  66.5095
 13.9783  58.8249
 14.0013  43.6037
 14.0243  35.0741
 14.0473  31.01
 14.0703  29.3164
 14.0932  28.6334
 14.1163  28.1386
 14.1393  27.7639
 14.1623  27.5291
 14.1852  27.2662
 14.2083  26.935
 14.2313  26.667
 14.2543  26.524
 14.2773  26.4772
 14.3003  26.3598
 14.3233  26.2679
 14.3463  26.2628
 14.3692  26.175
 14.3923  26.1051
 14.4153  25.9766
 14.4383  25.8902
 14.4612  25.8245
 14.4843  25.6778
 14.5073  25.6323
 14.5303  25.5304
 14.5533  25.5076
 14.5763  25.5
 14.5993  25.3559
 14.6223  25.3673
 14.6453  25.3511
 14.6683  25.2176
 14.6913  25.1826
 14.7143  25.1889
 14.7372  25.1099
 14.7603  25.0019
 14.7833  24.9966
 14.8063  25.0164
 14.8293  24.8583
 14.8523  24.7244
 14.8753  24.6758
 14.8983  24.7712
 14.9213  24.9695
 14.9443  24.9291
 14.9673  24.8677
 14.9903  24.8107
 15.0132  24.893
 15.0363  24.9373
 15.0593  24.8275
 15.0823  24.7758
 15.1052  24.8916
 15.1283  25.2306
 15.1513  25.8547
 15.1743  27.1389
 15.1973  27.9697
 15.2203  27.8171
 15.2433  26.6424
 15.2663  25.4088
 15.2892  24.9105
 15.3123  24.755
 15.3353  24.6976
 15.3583  24.6812
 15.3812  24.7336
 15.4043  24.7737
 15.4273  24.7147
 15.4503  24.6881
 15.4733  24.5201
 15.4963  24.5006
 15.5193  24.5196
 15.5423  24.5187
 15.5653  24.5729
 15.5883  24.701
 15.6113  24.7358
 15.6343  24.7726
 15.6572  24.7576
 15.6803  24.7441
 15.7033  24.7412
 15.7263  24.6722
 15.7492  24.5338
 15.7723  24.5259
 15.7953  24.5575
 15.8183  24.582
 15.8413  24.4792
 15.8643  24.4883
 15.8873  24.506
 15.9103  24.5687
 15.9332  24.5556
 15.9563  24.5542
 15.9793  24.602
 16.0023  24.5488
 16.0253  24.5225
 16.0482  24.6184
 16.0713  24.7095
 16.0943  24.7731
 16.1172  24.817
 16.1403  24.828
 16.1633  24.9499
 16.1863  25.1135
 16.2093  25.4514
 16.2323  25.9404
 16.2553  26.3454
 16.2783  26.234
 16.3012  25.5769
 16.3243  25.0481
 16.3472  24.842
 16.3703  24.714
 16.3933  24.7174
 16.4163  24.79
 16.4393  24.7271
 16.4623  24.6036
 16.4853  24.5946
 16.5083  24.6263
 16.5312  24.6023
 16.5543  24.5901
 16.5773  24.5906
 16.6002  24.6209
 16.6233  24.6091
 16.6463  24.6166
 16.6693  24.6779
 16.6923  24.6615
 16.7153  24.5612
 16.7383  24.5808
 16.7613  24.5744
 16.7843  24.6117
 16.8073  24.4941
 16.8303  24.3487
 16.8533  24.2648
 16.8763  24.3397
 16.8992  24.3073
 16.9223  24.3086
 16.9453  24.3589
 16.9683  24.3898
 16.9913  24.35
 17.0143  24.3244
 17.0373  24.261
 17.0603  24.133
 17.0832  24.2102
 17.1063  24.201
 17.1293  24.1675
 17.1522  24.1064
 17.1753  24.0567
 17.1983  24.1159
 17.2213  24.1345
 17.2443  24.194
 17.2673  24.1039
 17.2903  24.0647
 17.3133  24.1432
 17.3362  24.053
 17.3593  24.0013
 17.3823  23.972
 17.4053  23.8977
 17.4283  24.0048
 17.4513  24.0867
 17.4743  24.0781
 17.4973  24.1062
 17.5203  23.9998
 17.5433  23.9274
 17.5663  23.9138
 17.5893  23.8768
 17.6123  23.9177
 17.6352  23.8961
 17.6583  23.7891
 17.6813  23.7325
 17.7042  23.7351
 17.7273  23.6524
 17.7503  23.6879
 17.7733  23.7901
 17.7963  23.7923
 17.8193  23.8367
 17.8423  23.8816
 17.8653  23.8157
 17.8882  23.774
 17.9113  23.7858
 17.9343  23.8719
 17.9573  23.8746
 17.9803  24.0678
 18.0033  24.4871
 18.0263  24.7019
 18.0493  25.2381
 18.0723  26.2905
 18.0953  27.6236
 18.1183  28.2438
 18.1413  27.2811
 18.1643  25.6471
 18.1872  24.5366
 18.2103  24.0339
 18.2333  23.8645
 18.2563  23.676
 18.2793  23.6312
 18.3023  23.5964
 18.3253  23.5985
 18.3483  23.6829
 18.3712  23.6388
 18.3943  23.671
 18.4173  23.6545
 18.4402  23.5477
 18.4633  23.7388
 18.4863  23.8082
 18.5093  23.7403
 18.5323  23.5241
 18.5553  23.5002
 18.5783  23.5453
 18.6013  23.6119
 18.6242  23.5213
 18.6473  23.4702
 18.6703  23.4453
 18.6933  23.5177
 18.7163  23.4951
 18.7392  23.482
 18.7623  23.4352
 18.7853  23.3958
 18.8083  23.446
 18.8313  23.5475
 18.8543  23.5838
 18.8773  23.4997
 18.9003  23.4873
 18.9232  23.5736
 18.9463  23.701
 18.9693  23.5592
 18.9922  23.4638
 19.0153  23.5022
 19.0383  23.6523
 19.0613  23.6173
 19.0843  23.564
 19.1073  23.5575
 19.1303  23.5778
 19.1533  23.5541
 19.1762  23.4277
 19.1993  23.4341
 19.2223  23.471
 19.2453  23.4499
 19.2683  23.6038
 19.2913  23.5344
 19.3143  23.5501
 19.3373  23.6342
 19.3603  23.6361
 19.3833  23.6554
 19.4062  23.7254
 19.4293  23.6813
 19.4523  23.5932
 19.4752  23.536
 19.4983  23.5253
 19.5213  23.5741
 19.5443  23.7274
 19.5673  23.8156
 19.5903  23.9609
 19.6133  24.1453
 19.6363  24.4896
 19.6593  25.2008
 19.6823  26.8318
 19.7053  29.4566
 19.7283  31.7071
 19.7513  30.9893
 19.7742  28.5067
 19.7973  26.72
 19.8203  26.6864
 19.8433  27.9893
 19.8663  29.4164
 19.8893  29.2377
 19.9123  27.5156
 19.9353  25.5006
 19.9582  24.4282
 19.9813  24.0914
 20.0043  23.8976
 20.0272  23.7796
 20.0503  23.7626
 20.0733  23.7357
 20.0963  23.7665
 20.1193  23.8062
 20.1423  23.7677
 20.1653  23.7456
 20.1883  23.6532
 20.2112  23.6419
 20.2343  23.756
 20.2573  23.8056
 20.2803  23.8364
 20.3033  23.7101
 20.3263  23.7247
 20.3493  23.772
 20.3723  23.7924
 20.3953  23.7289
 20.4183  23.7502
 20.4413  23.7948
 20.4643  23.8527
 20.4873  23.7786
 20.5102  23.6804
 20.5333  23.6327
 20.5563  23.7377
 20.5792  23.7494
 20.6023  23.8922
 20.6253  23.9795
 20.6483  24.0024
 20.6713  24.2289
 20.6943  24.8244
 20.7173  26.0084
 20.7403  27.1244
 20.7632  27.2327
 20.7863  26.3549
 20.8093  25.2806
 20.8323  24.5659
 20.8553  24.2178
 20.8783  24.0503
 20.9013  24.0368
 20.9243  24.0035
 20.9473  24.0018
 20.9703  24.1675
 20.9933  24.2847
 21.0163  24.1433
 21.0393  23.8839
 21.0622  23.8481
 21.0853  23.8455
 21.1083  23.8679
 21.1313  23.8865
 21.1543  23.8038
 21.1773  23.8216
 21.2003  23.8926
 21.2233  23.8531
 21.2462  23.7994
 21.2693  23.8874
 21.2923  23.9492
 21.3152  23.9018
 21.3383  23.9249
 21.3613  24.0212
 21.3843  24.0526
 21.4073  23.909
 21.4303  23.8708
 21.4533  23.8549
 21.4763  23.8999
 21.4992  23.9346
 21.5223  23.9979
 21.5453  24.0939
 21.5683  24.0803
 21.5913  24.1351
 21.6142  24.1472
 21.6373  24.0997
 21.6603  24.1545
 21.6833  24.1718
 21.7063  24.1194
 21.7293  24.1055
 21.7523  24.0391
 21.7753  23.9825
 21.7982  24.1
 21.8213  24.178
 21.8443  24.2278
 21.8672  24.1587
 21.8903  24.0971
 21.9133  24.136
 21.9363  24.1661
 21.9593  24.2188
 21.9823  24.2723
 22.0053  24.2864
 22.0283  24.3029
 22.0512  24.3347
 22.0743  24.4048
 22.0973  24.3005
 22.1203  24.4118
 22.1433  24.4258
 22.1663  24.2972
 22.1893  24.2917
 22.2123  24.3555
 22.2353  24.3552
 22.2583  24.3392
 22.2813  24.2939
 22.3043  24.4651
 22.3273  24.4729
 22.3502  24.5347
 22.3733  24.5921
 22.3963  24.477
 22.4193  24.3803
 22.4423  24.5
 22.4653  24.5048
 22.4883  24.5031
 22.5113  24.5939
 22.5343  24.7553
 22.5573  24.7907
 22.5803  24.8057
 22.6033  24.922
 22.6263  24.9322
 22.6493  25.0066
 22.6723  24.9791
 22.6953  25.1117
 22.7183  25.1524
 22.7413  25.1837
 22.7643  25.2884
 22.7873  25.3527
 22.8103  25.4079
 22.8333  25.5151
 22.8563  25.6015
 22.8793  25.63
 22.9022  25.6924
 22.9253  25.8994
 22.9483  26.0214
 22.9713  26.3732
 22.9943  26.7356