File: test-data-xrd/xrd-map-34-ID-E/Data_0115.chi
F:\20151113_APS_34IDE\\Brian\Particle1\OCV\Data_0115.tif
2-Theta Angle (Degrees)
Intensity
       2000
 0.01725  0.0000000E+00
 0.04025  0.0000000E+00
 0.06325  0.0000000E+00
 0.08625  0.0000000E+00
 0.10925  0.0000000E+00
 0.13225  0.0000000E+00
 0.15525  0.0000000E+00
 0.17825  0.0000000E+00
 0.20125  0.0000000E+00
 0.22425  0.0000000E+00
 0.24725  0.0000000E+00
 0.27025  0.0000000E+00
 0.29325  0.0000000E+00
 0.31625  0.0000000E+00
 0.33925  0.0000000E+00
 0.36225  0.0000000E+00
 0.38525  0.0000000E+00
 0.40825  0.0000000E+00
 0.43125  0.0000000E+00
 0.45425  0.0000000E+00
 0.47725  0.0000000E+00
 0.50025  0.0000000E+00
 0.52325  0.0000000E+00
 0.54625  0.0000000E+00
 0.56925  0.0000000E+00
 0.59225  0.0000000E+00
 0.61525  0.0000000E+00
 0.63825  0.0000000E+00
 0.66125  0.0000000E+00
 0.68425  0.0000000E+00
 0.70725  0.0000000E+00
 0.73025  0.0000000E+00
 0.75325  0.0000000E+00
 0.77625  0.0000000E+00
 0.79925  0.0000000E+00
 0.82225  0.0000000E+00
 0.84525  0.0000000E+00
 0.86825  0.0000000E+00
 0.89125  0.0000000E+00
 0.91425  0.0000000E+00
 0.93725  0.0000000E+00
 0.96025  0.0000000E+00
 0.98325  0.0000000E+00
 1.00625  0.0000000E+00
 1.02925  0.0000000E+00
 1.05225  0.0000000E+00
 1.07525  0.0000000E+00
 1.09825  0.0000000E+00
 1.12125  0.0000000E+00
 1.14425  0.0000000E+00
 1.16725  0.0000000E+00
 1.19025  0.0000000E+00
 1.21325  0.0000000E+00
 1.23625  0.0000000E+00
 1.25925  0.0000000E+00
 1.28225  0.0000000E+00
 1.30525  0.0000000E+00
 1.32825  0.0000000E+00
 1.35125  0.0000000E+00
 1.37425  0.0000000E+00
 1.39725  0.0000000E+00
 1.42025  0.0000000E+00
 1.44325  0.0000000E+00
 1.46625  0.0000000E+00
 1.48925  0.0000000E+00
 1.51225  0.0000000E+00
 1.53525  0.0000000E+00
 1.55825  0.0000000E+00
 1.58125  0.0000000E+00
 1.60425  0.0000000E+00
 1.62725  0.0000000E+00
 1.65025  0.0000000E+00
 1.67325  0.0000000E+00
 1.69625  0.0000000E+00
 1.71925  0.0000000E+00
 1.74225  0.0000000E+00
 1.76525  0.0000000E+00
 1.78825  0.0000000E+00
 1.81125  0.0000000E+00
 1.83425  0.0000000E+00
 1.85725  0.0000000E+00
 1.88025  0.0000000E+00
 1.90325  0.0000000E+00
 1.92625  0.0000000E+00
 1.94925  0.0000000E+00
 1.97225  0.0000000E+00
 1.99525  0.0000000E+00
 2.01825  0.0000000E+00
 2.04125  0.0000000E+00
 2.06425  0.0000000E+00
 2.08725  0.0000000E+00
 2.11025  0.0000000E+00
 2.13325  0.0000000E+00
 2.15625  0.0000000E+00
 2.17925  0.0000000E+00
 2.20225  0.0000000E+00
 2.22525  0.0000000E+00
 2.24825  0.0000000E+00
 2.27125  0.0000000E+00
 2.29425  0.0000000E+00
 2.31725  0.0000000E+00
 2.34025  0.0000000E+00
 2.36325  0.0000000E+00
 2.38625  0.0000000E+00
 2.40925  0.0000000E+00
 2.43225  0.0000000E+00
 2.45525  0.0000000E+00
 2.47825  0.0000000E+00
 2.50125  0.0000000E+00
 2.52425  0.0000000E+00
 2.54725  0.0000000E+00
 2.57025  0.0000000E+00
 2.59325  0.0000000E+00
 2.61625  0.0000000E+00
 2.63925  0.0000000E+00
 2.66225  0.0000000E+00
 2.68525  0.0000000E+00
 2.70825  0.0000000E+00
 2.73125  0.0000000E+00
 2.75425  0.0000000E+00
 2.77725  0.0000000E+00
 2.80025  0.0000000E+00
 2.82325  33.7435
 2.84625  31.3057
 2.86925  31.5479
 2.89225  34.0614
 2.91525  35.8762
 2.93825  35.965
 2.96125  35.2933
 2.98425  34.985
 3.00725  35.6887
 3.03025  35.6532
 3.05325  35.2731
 3.07625  34.8605
 3.09925  34.8619
 3.12225  34.7745
 3.14525  34.1575
 3.16825  33.7881
 3.19125  33.7158
 3.21425  34.143
 3.23725  34.3461
 3.26025  34.3356
 3.28325  34.526
 3.30625  34.9276
 3.32925  34.7264
 3.35225  34.5999
 3.37525  34.6876
 3.39825  34.5142
 3.42125  34.2901
 3.44425  33.7729
 3.46725  33.5771
 3.49025  33.9771
 3.51325  33.9892
 3.53625  33.799
 3.55925  33.6654
 3.58225  33.6182
 3.60525  33.3556
 3.62825  33.0441
 3.65125  33.0023
 3.67425  32.8932
 3.69725  32.5662
 3.72025  32.2415
 3.74325  31.9886
 3.76625  32.0893
 3.78925  32.0333
 3.81225  31.8298
 3.83525  31.9547
 3.85825  32.115
 3.88125  32.1289
 3.90425  31.6723
 3.92725  31.6181
 3.95025  31.8333
 3.97325  32.0691
 3.99625  32.1798
 4.01925  32.2876
 4.04225  32.329
 4.06525  32.2976
 4.08825  31.9875
 4.11125  31.756
 4.13425  31.8559
 4.15725  31.8482
 4.18025  31.6686
 4.20325  31.794
 4.22625  32.006
 4.24925  31.8302
 4.27225  31.8013
 4.29525  31.8682
 4.31825  31.7586
 4.34125  31.747
 4.36425  31.9424
 4.38725  32.1766
 4.41025  32.6914
 4.43325  32.5014
 4.45625  32.0303
 4.47925  32.041
 4.50225  32.0465
 4.52525  32.0557
 4.54825  32.0859
 4.57125  31.9942
 4.59425  32.2724
 4.61725  32.2914
 4.64025  32.3663
 4.66325  32.3728
 4.68625  32.335
 4.70925  32.3457
 4.73225  32.3624
 4.75525  32.3933
 4.77825  32.3375
 4.80125  32.1556
 4.82425  32.0751
 4.84725  32.167
 4.87025  32.3915
 4.89325  32.3047
 4.91625  32.3183
 4.93925  32.272
 4.96225  32.2855
 4.98525  32.3281
 5.00825  32.644
 5.03125  32.8081
 5.05425  32.7611
 5.07725  32.7308
 5.10025  32.9599
 5.12325  32.9409
 5.14625  32.9194
 5.16925  32.9734
 5.19225  33.2447
 5.21525  33.3615
 5.23825  33.5532
 5.26125  33.4266
 5.28425  33.2751
 5.30725  33.4936
 5.33025  33.5087
 5.35325  33.402
 5.37625  33.6179
 5.39925  33.9499
 5.42225  34.0168
 5.44525  34.0667
 5.46825  34.172
 5.49125  34.2252
 5.51425  34.4271
 5.53725  34.8231
 5.56025  34.9198
 5.58325  34.8056
 5.60625  34.8625
 5.62925  34.7644
 5.65225  34.822
 5.67525  35.102
 5.69825  35.4974
 5.72125  35.7057
 5.74425  35.8584
 5.76725  36.1161
 5.79025  36.2471
 5.81325  36.3973
 5.83625  37.0545
 5.85925  38.249
 5.88225  39.0495
 5.90525  40.9971
 5.92825  55.5538
 5.95125  87.5697
 5.97425  98.0914
 5.99725  115.259
 6.02025  73.4252
 6.04325  61.6531
 6.06625  42.3514
 6.08925  38.8107
 6.11225  38.2792
 6.13525  37.7996
 6.15825  37.3126
 6.18125  37.2497
 6.20425  37.2845
 6.22725  37.1336
 6.25025  36.8645
 6.27325  37.0524
 6.29625  37.3396
 6.31925  37.3466
 6.34225  37.439
 6.36525  37.6423
 6.38825  37.8236
 6.41125  37.9129
 6.43425  38.0581
 6.45725  38.2351
 6.48025  38.3439
 6.50325  38.4614
 6.52625  38.5349
 6.54925  38.546
 6.57225  38.6599
 6.59525  38.775
 6.61825  38.822
 6.64125  39.0534
 6.66425  39.3724
 6.68725  39.5436
 6.71025  39.7791
 6.73325  39.9606
 6.75625  39.9413
 6.77925  40.0791
 6.80225  40.4301
 6.82525  40.704
 6.84825  40.8478
 6.87125  40.8679
 6.89425  41.1354
 6.91725  41.0814
 6.94025  41.0765
 6.96325  41.151
 6.98625  41.2046
 7.00925  41.3815
 7.03225  41.6939
 7.05525  41.9664
 7.07825  42.1435
 7.10125  42.129
 7.12425  42.1572
 7.14725  42.1513
 7.17025  42.0859
 7.19325  42.2771
 7.21625  42.5053
 7.23925  42.8131
 7.26225  42.7189
 7.28525  42.5478
 7.30825  42.5407
 7.33125  42.8221
 7.35425  43.0256
 7.37725  42.9946
 7.40025  42.7892
 7.42325  42.9778
 7.44625  43.0878
 7.46925  43.237
 7.49225  43.3065
 7.51525  43.352
 7.53825  43.3166
 7.56125  43.3743
 7.58425  43.5069
 7.60725  43.4737
 7.63025  43.6266
 7.65325  43.6293
 7.67625  43.5822
 7.69925  43.4124
 7.72225  43.3395
 7.74525  43.3535
 7.76825  43.3366
 7.79125  43.3494
 7.81425  43.1676
 7.83725  43.1086
 7.86025  43.0124
 7.88325  42.892
 7.90625  42.7332
 7.92925  42.694
 7.95225  42.4209
 7.97525  42.3173
 7.99825  42.3218
 8.02125  42.2299
 8.04425  42.0395
 8.06725  41.9749
 8.09025  41.8049
 8.11325  41.841
 8.13625  41.5666
 8.15925  41.3379
 8.18225  41.0704
 8.20525  40.8385
 8.22825  40.6182
 8.25125  40.3938
 8.27425  40.1136
 8.29725  39.8127
 8.32025  39.5309
 8.34325  39.3389
 8.36625  39.0719
 8.38925  38.6914
 8.41225  38.417
 8.43525  38.0417
 8.45825  37.6094
 8.48125  37.3207
 8.50425  37.0117
 8.52725  36.7969
 8.55025  36.4455
 8.57325  36.1064
 8.59625  35.6334
 8.61925  35.2461
 8.64225  35.0663
 8.66525  34.8487
 8.68825  34.5685
 8.71125  34.2751
 8.73425  33.8311
 8.75725  33.4983
 8.78025  33.2292
 8.80325  32.8071
 8.82625  32.4839
 8.84925  32.2763
 8.87225  31.9344
 8.89525  31.5011
 8.91825  31.1383
 8.94125  30.8011
 8.96425  30.6033
 8.98725  30.275
 9.01025  29.9015
 9.03325  29.6509
 9.05625  29.5487
 9.07925  29.4014
 9.10225  29.1737
 9.12525  28.9591
 9.14825  28.7378
 9.17125  28.3987
 9.19425  28.1028
 9.21725  27.8814
 9.24025  27.6555
 9.26325  27.325
 9.28625  27.1598
 9.30925  27.0219
 9.33225  26.8599
 9.35525  26.8122
 9.37825  26.9579
 9.40125  26.9182
 9.42425  26.6803
 9.44725  26.4748
 9.47025  26.272
 9.49325  26.1268
 9.51625  25.9618
 9.53925  25.7935
 9.56225  25.6822
 9.58525  25.4857
 9.60825  25.4569
 9.63125  25.3443
 9.65425  25.1456
 9.67725  24.9418
 9.70025  24.7273
 9.72325  24.7009
 9.74625  24.6823
 9.76925  24.6363
 9.79225  24.637
 9.81525  24.6581
 9.83825  24.4952
 9.86125  24.3335
 9.88425  24.1509
 9.90725  24.1362
 9.93025  24.1838
 9.95325  24.0954
 9.97625  23.9946
 9.99925  23.8385
 10.0222  23.7804
 10.0453  23.812
 10.0683  23.7797
 10.0913  23.7849
 10.1143  23.8344
 10.1373  23.8307
 10.1603  23.7659
 10.1832  23.6955
 10.2063  23.5629
 10.2293  23.389
 10.2523  23.2644
 10.2752  23.244
 10.2982  23.1782
 10.3213  23.0819
 10.3443  23.0566
 10.3673  23.0204
 10.3902  23.0126
 10.4133  22.9995
 10.4363  22.9365
 10.4593  22.8892
 10.4823  22.8498
 10.5053  22.9467
 10.5283  22.8985
 10.5512  22.7885
 10.5742  22.7713
 10.5973  22.6623
 10.6203  22.6335
 10.6433  22.6672
 10.6662  22.6633
 10.6893  22.5873
 10.7123  22.5181
 10.7353  22.5563
 10.7583  22.5141
 10.7813  22.5184
 10.8043  22.5505
 10.8272  22.4732
 10.8503  22.4028
 10.8733  22.3629
 10.8963  22.2638
 10.9192  22.3093
 10.9422  22.3204
 10.9653  22.1967
 10.9883  22.189
 11.0113  22.1732
 11.0343  22.2018
 11.0573  22.1482
 11.0803  22.122
 11.1033  22.197
 11.1263  22.228
 11.1493  22.1969
 11.1723  22.1919
 11.1953  22.1204
 11.2182  22.0847
 11.2413  22.0485
 11.2643  22.0658
 11.2873  22.0433
 11.3102  22.1675
 11.3333  22.1937
 11.3563  22.2485
 11.3793  22.3003
 11.4023  22.4595
 11.4253  22.4729
 11.4483  22.4748
 11.4713  22.5758
 11.4942  22.766
 11.5173  23.2758
 11.5403  25.0743
 11.5633  27.9645
 11.5862  30.6343
 11.6093  31.7131
 11.6323  29.086
 11.6553  25.8788
 11.6783  23.6765
 11.7013  22.7226
 11.7243  22.4453
 11.7473  22.3316
 11.7703  22.1786
 11.7933  22.0882
 11.8163  22.1349
 11.8393  22.2165
 11.8622  22.1983
 11.8853  22.2329
 11.9083  22.3544
 11.9313  22.5277
 11.9543  22.7272
 11.9773  22.8485
 12.0003  23.0443
 12.0233  22.9447
 12.0463  23.1695
 12.0693  24.2238
 12.0923  25.7066
 12.1153  25.8638
 12.1382  24.4844
 12.1613  23.3239
 12.1843  22.6084
 12.2073  22.357
 12.2302  22.2678
 12.2533  22.1823
 12.2763  22.2139
 12.2993  22.2988
 12.3223  22.3719
 12.3453  22.3092
 12.3683  22.2413
 12.3913  22.3379
 12.4142  22.3332
 12.4373  22.3173
 12.4603  22.2256
 12.4833  22.2294
 12.5062  22.2785
 12.5292  22.3307
 12.5523  22.3439
 12.5753  22.3238
 12.5983  22.187
 12.6212  22.2502
 12.6443  22.345
 12.6673  22.4987
 12.6903  22.5721
 12.7133  22.6443
 12.7363  22.6598
 12.7593  22.6857
 12.7822  22.7738
 12.8052  22.8758
 12.8283  22.9394
 12.8513  23.0203
 12.8742  23.0486
 12.8972  23.0935
 12.9203  23.2909
 12.9433  23.3852
 12.9663  23.4347
 12.9893  23.6028
 13.0123  23.663
 13.0353  23.7382
 13.0582  23.9406
 13.0813  23.9914
 13.1043  24.3106
 13.1273  24.6298
 13.1502  24.7925
 13.1732  24.972
 13.1963  25.1398
 13.2193  25.3889
 13.2423  25.8629
 13.2652  26.1074
 13.2883  26.3098
 13.3113  26.548
 13.3343  26.9288
 13.3573  27.1882
 13.3803  27.4826
 13.4033  27.8185
 13.4262  28.0059
 13.4492  28.2559
 13.4723  28.5503
 13.4953  28.8115
 13.5183  28.9335
 13.5412  29.0467
 13.5643  29.1943
 13.5873  29.3144
 13.6103  29.3251
 13.6333  29.2886
 13.6563  29.2025
 13.6793  29.2684
 13.7022  29.1661
 13.7253  29.1251
 13.7483  29.0562
 13.7713  29.0338
 13.7942  29.017
 13.8172  29.0298
 13.8403  29.2978
 13.8633  30.19
 13.8863  31.9779
 13.9093  36.4741
 13.9323  41.9708
 13.9553  42.6141
 13.9783  39.2887
 14.0013  34.2575
 14.0243  30.5102
 14.0473  28.7003
 14.0703  27.8784
 14.0932  27.4143
 14.1163  27.1055
 14.1393  26.9601
 14.1623  26.7406
 14.1852  26.4771
 14.2083  26.2881
 14.2313  26.0657
 14.2543  25.9668
 14.2773  25.936
 14.3003  25.8477
 14.3233  25.7636
 14.3463  25.7177
 14.3692  25.6079
 14.3923  25.5297
 14.4153  25.5359
 14.4383  25.4746
 14.4612  25.3126
 14.4843  25.2699
 14.5073  25.2705
 14.5303  25.2397
 14.5533  25.2211
 14.5763  25.1758
 14.5993  25.1764
 14.6223  25.2166
 14.6453  25.0388
 14.6683  24.8487
 14.6913  24.8677
 14.7143  24.8444
 14.7372  24.6609
 14.7603  24.5732
 14.7833  24.5564
 14.8063  24.4286
 14.8293  24.4611
 14.8523  24.6013
 14.8753  24.4967
 14.8983  24.5268
 14.9213  24.5359
 14.9443  24.4177
 14.9673  24.3549
 14.9903  24.3812
 15.0132  24.3705
 15.0363  24.438
 15.0593  24.4875
 15.0823  24.458
 15.1052  24.4723
 15.1283  24.663
 15.1513  25.0649
 15.1743  25.478
 15.1973  25.6078
 15.2203  25.4746
 15.2433  24.9846
 15.2663  24.525
 15.2892  24.3037
 15.3123  24.3498
 15.3353  24.2223
 15.3583  24.2011
 15.3812  24.1902
 15.4043  24.1495
 15.4273  24.0587
 15.4503  24.1376
 15.4733  24.2462
 15.4963  24.24
 15.5193  24.1028
 15.5423  24.0242
 15.5653  24.1372
 15.5883  24.2123
 15.6113  24.2037
 15.6343  24.1669
 15.6572  24.226
 15.6803  24.2739
 15.7033  24.269
 15.7263  24.3131
 15.7492  24.2556
 15.7723  24.3104
 15.7953  24.2796
 15.8183  24.1953
 15.8413  24.1502
 15.8643  24.2527
 15.8873  24.2204
 15.9103  24.2714
 15.9332  24.2711
 15.9563  24.1853
 15.9793  24.1638
 16.0023  24.2673
 16.0253  24.3796
 16.0482  24.4693
 16.0713  24.4077
 16.0943  24.4378
 16.1172  24.5268
 16.1403  24.4853
 16.1633  24.5537
 16.1863  24.654
 16.2093  25.0342
 16.2323  25.5453
 16.2553  26.1333
 16.2783  25.9352
 16.3012  25.2554
 16.3243  24.7678
 16.3472  24.5181
 16.3703  24.4026
 16.3933  24.5364
 16.4163  24.8084
 16.4393  24.6298
 16.4623  24.3409
 16.4853  24.2527
 16.5083  24.2242
 16.5312  24.2394
 16.5543  24.2484
 16.5773  24.2251
 16.6002  24.238
 16.6233  24.2523
 16.6463  24.1504
 16.6693  24.1404
 16.6923  24.1718
 16.7153  24.1146
 16.7383  24.0441
 16.7613  24.0506
 16.7843  24.0659
 16.8073  24.1392
 16.8303  24.0419
 16.8533  23.9899
 16.8763  24.117
 16.8992  24.0631
 16.9223  23.969
 16.9453  23.9381
 16.9683  23.8924
 16.9913  23.9168
 17.0143  23.916
 17.0373  23.9617
 17.0603  23.8254
 17.0832  23.7825
 17.1063  23.7408
 17.1293  23.7851
 17.1522  23.81
 17.1753  23.8378
 17.1983  23.8824
 17.2213  23.9593
 17.2443  23.9578
 17.2673  23.8544
 17.2903  23.8247
 17.3133  23.9426
 17.3362  23.9399
 17.3593  23.8041
 17.3823  23.6934
 17.4053  23.5968
 17.4283  23.6372
 17.4513  23.6843
 17.4743  23.6956
 17.4973  23.7069
 17.5203  23.5541
 17.5433  23.5235
 17.5663  23.534
 17.5893  23.571
 17.6123  23.5564
 17.6352  23.4575
 17.6583  23.3875
 17.6813  23.4657
 17.7042  23.5551
 17.7273  23.4508
 17.7503  23.5334
 17.7733  23.6455
 17.7963  23.6531
 17.8193  23.5417
 17.8423  23.4877
 17.8653  23.4767
 17.8882  23.4509
 17.9113  23.4567
 17.9343  23.5556
 17.9573  23.6772
 17.9803  23.9333
 18.0033  24.1618
 18.0263  24.3746
 18.0493  24.8564
 18.0723  26.007
 18.0953  27.8359
 18.1183  28.786
 18.1413  28.1387
 18.1643  26.2272
 18.1872  24.6623
 18.2103  23.9875
 18.2333  23.6437
 18.2563  23.432
 18.2793  23.4079
 18.3023  23.3394
 18.3253  23.239
 18.3483  23.3192
 18.3712  23.4003
 18.3943  23.3534
 18.4173  23.3486
 18.4402  23.2342
 18.4633  23.1751
 18.4863  23.2291
 18.5093  23.2924
 18.5323  23.2494
 18.5553  23.1847
 18.5783  23.2232
 18.6013  23.2633
 18.6242  23.2007
 18.6473  23.2364
 18.6703  23.1515
 18.6933  23.1711
 18.7163  23.1989
 18.7392  23.1296
 18.7623  23.0911
 18.7853  23.0912
 18.8083  23.1516
 18.8313  23.136
 18.8543  23.0902
 18.8773  23.1296
 18.9003  23.2197
 18.9232  23.2276
 18.9463  23.259
 18.9693  23.1821
 18.9922  23.1345
 19.0153  23.1781
 19.0383  23.2591
 19.0613  23.2661
 19.0843  23.3094
 19.1073  23.3108
 19.1303  23.4496
 19.1533  23.5647
 19.1762  23.4348
 19.1993  23.3042
 19.2223  23.2248
 19.2453  23.2239
 19.2683  23.2621
 19.2913  23.1942
 19.3143  23.2636
 19.3373  23.38
 19.3603  23.4645
 19.3833  23.465
 19.4062  23.5687
 19.4293  23.6364
 19.4523  23.4362
 19.4752  23.3956
 19.4983  23.5305
 19.5213  23.6545
 19.5443  23.6413
 19.5673  23.5612
 19.5903  23.6001
 19.6133  23.6916
 19.6363  23.962
 19.6593  24.4737
 19.6823  25.4806
 19.7053  26.9962
 19.7283  27.6941
 19.7513  27.4747
 19.7742  26.365
 19.7973  25.5152
 19.8203  25.7053
 19.8433  26.7222
 19.8663  27.8272
 19.8893  27.7558
 19.9123  26.3252
 19.9353  24.7158
 19.9582  23.9486
 19.9813  23.6786
 20.0043  23.6305
 20.0272  23.6427
 20.0503  23.6133
 20.0733  23.5185
 20.0963  23.4948
 20.1193  23.4886
 20.1423  23.4272
 20.1653  23.4598
 20.1883  23.4577
 20.2112  23.3514
 20.2343  23.3162
 20.2573  23.3107
 20.2803  23.2974
 20.3033  23.3812
 20.3263  23.4
 20.3493  23.4129
 20.3723  23.4218
 20.3953  23.3792
 20.4183  23.4435
 20.4413  23.481
 20.4643  23.3991
 20.4873  23.4484
 20.5102  23.5116
 20.5333  23.4255
 20.5563  23.4793
 20.5792  23.569
 20.6023  23.6634
 20.6253  23.7632
 20.6483  23.8934
 20.6713  24.1575
 20.6943  24.9248
 20.7173  26.361
 20.7403  27.1268
 20.7632  26.2506
 20.7863  25.2237
 20.8093  24.5623
 20.8323  24.0861
 20.8553  23.765
 20.8783  23.6702
 20.9013  23.6818
 20.9243  23.7445
 20.9473  23.7107
 20.9703  23.5699
 20.9933  23.5804
 21.0163  23.6301
 21.0393  23.5939
 21.0622  23.5912
 21.0853  23.6221
 21.1083  23.5903
 21.1313  23.6563
 21.1543  23.588
 21.1773  23.586
 21.2003  23.6185
 21.2233  23.6386
 21.2462  23.6711
 21.2693  23.6916
 21.2923  23.6509
 21.3152  23.5368
 21.3383  23.5767
 21.3613  23.5783
 21.3843  23.6405
 21.4073  23.6001
 21.4303  23.6113
 21.4533  23.5933
 21.4763  23.597
 21.4992  23.7284
 21.5223  23.8071
 21.5453  23.7565
 21.5683  23.735
 21.5913  23.7302
 21.6142  23.6989
 21.6373  23.7522
 21.6603  23.7887
 21.6833  23.8086
 21.7063  23.7505
 21.7293  23.7435
 21.7523  23.7048
 21.7753  23.7404
 21.7982  23.8645
 21.8213  23.889
 21.8443  23.8855
 21.8672  23.9551
 21.8903  23.9191
 21.9133  23.8618
 21.9363  23.8206
 21.9593  23.7892
 21.9823  23.8101
 22.0053  23.9092
 22.0283  24.0309
 22.0512  24.0985
 22.0743  24.0506
 22.0973  23.9698
 22.1203  24.0501
 22.1433  24.0302
 22.1663  23.9929
 22.1893  23.9659
 22.2123  24.0055
 22.2353  24.0536
 22.2583  24.0929
 22.2813  24.087
 22.3043  24.1996
 22.3273  24.2322
 22.3502  24.2308
 22.3733  24.2561
 22.3963  24.2313
 22.4193  24.2308
 22.4423  24.3067
 22.4653  24.3948
 22.4883  24.3908
 22.5113  24.458
 22.5343  24.4843
 22.5573  24.4865
 22.5803  24.5336
 22.6033  24.5691
 22.6263  24.6296
 22.6493  24.6452
 22.6723  24.6036
 22.6953  24.7383
 22.7183  24.8151
 22.7413  24.8506
 22.7643  24.9463
 22.7873  25.0002
 22.8103  25.1484
 22.8333  25.1639
 22.8563  25.2317
 22.8793  25.3035
 22.9022  25.3919
 22.9253  25.583
 22.9483  25.7483
 22.9713  26.028
 22.9943  26.3067