File: test-data-xrd/xrd-map-34-ID-E/Data_0107.chi
F:\20151113_APS_34IDE\\Brian\Particle1\OCV\Data_0107.tif
2-Theta Angle (Degrees)
Intensity
       2000
 0.01725  0.0000000E+00
 0.04025  0.0000000E+00
 0.06325  0.0000000E+00
 0.08625  0.0000000E+00
 0.10925  0.0000000E+00
 0.13225  0.0000000E+00
 0.15525  0.0000000E+00
 0.17825  0.0000000E+00
 0.20125  0.0000000E+00
 0.22425  0.0000000E+00
 0.24725  0.0000000E+00
 0.27025  0.0000000E+00
 0.29325  0.0000000E+00
 0.31625  0.0000000E+00
 0.33925  0.0000000E+00
 0.36225  0.0000000E+00
 0.38525  0.0000000E+00
 0.40825  0.0000000E+00
 0.43125  0.0000000E+00
 0.45425  0.0000000E+00
 0.47725  0.0000000E+00
 0.50025  0.0000000E+00
 0.52325  0.0000000E+00
 0.54625  0.0000000E+00
 0.56925  0.0000000E+00
 0.59225  0.0000000E+00
 0.61525  0.0000000E+00
 0.63825  0.0000000E+00
 0.66125  0.0000000E+00
 0.68425  0.0000000E+00
 0.70725  0.0000000E+00
 0.73025  0.0000000E+00
 0.75325  0.0000000E+00
 0.77625  0.0000000E+00
 0.79925  0.0000000E+00
 0.82225  0.0000000E+00
 0.84525  0.0000000E+00
 0.86825  0.0000000E+00
 0.89125  0.0000000E+00
 0.91425  0.0000000E+00
 0.93725  0.0000000E+00
 0.96025  0.0000000E+00
 0.98325  0.0000000E+00
 1.00625  0.0000000E+00
 1.02925  0.0000000E+00
 1.05225  0.0000000E+00
 1.07525  0.0000000E+00
 1.09825  0.0000000E+00
 1.12125  0.0000000E+00
 1.14425  0.0000000E+00
 1.16725  0.0000000E+00
 1.19025  0.0000000E+00
 1.21325  0.0000000E+00
 1.23625  0.0000000E+00
 1.25925  0.0000000E+00
 1.28225  0.0000000E+00
 1.30525  0.0000000E+00
 1.32825  0.0000000E+00
 1.35125  0.0000000E+00
 1.37425  0.0000000E+00
 1.39725  0.0000000E+00
 1.42025  0.0000000E+00
 1.44325  0.0000000E+00
 1.46625  0.0000000E+00
 1.48925  0.0000000E+00
 1.51225  0.0000000E+00
 1.53525  0.0000000E+00
 1.55825  0.0000000E+00
 1.58125  0.0000000E+00
 1.60425  0.0000000E+00
 1.62725  0.0000000E+00
 1.65025  0.0000000E+00
 1.67325  0.0000000E+00
 1.69625  0.0000000E+00
 1.71925  0.0000000E+00
 1.74225  0.0000000E+00
 1.76525  0.0000000E+00
 1.78825  0.0000000E+00
 1.81125  0.0000000E+00
 1.83425  0.0000000E+00
 1.85725  0.0000000E+00
 1.88025  0.0000000E+00
 1.90325  0.0000000E+00
 1.92625  0.0000000E+00
 1.94925  0.0000000E+00
 1.97225  0.0000000E+00
 1.99525  0.0000000E+00
 2.01825  0.0000000E+00
 2.04125  0.0000000E+00
 2.06425  0.0000000E+00
 2.08725  0.0000000E+00
 2.11025  0.0000000E+00
 2.13325  0.0000000E+00
 2.15625  0.0000000E+00
 2.17925  0.0000000E+00
 2.20225  0.0000000E+00
 2.22525  0.0000000E+00
 2.24825  0.0000000E+00
 2.27125  0.0000000E+00
 2.29425  0.0000000E+00
 2.31725  0.0000000E+00
 2.34025  0.0000000E+00
 2.36325  0.0000000E+00
 2.38625  0.0000000E+00
 2.40925  0.0000000E+00
 2.43225  0.0000000E+00
 2.45525  0.0000000E+00
 2.47825  0.0000000E+00
 2.50125  0.0000000E+00
 2.52425  0.0000000E+00
 2.54725  0.0000000E+00
 2.57025  0.0000000E+00
 2.59325  0.0000000E+00
 2.61625  0.0000000E+00
 2.63925  0.0000000E+00
 2.66225  0.0000000E+00
 2.68525  0.0000000E+00
 2.70825  0.0000000E+00
 2.73125  0.0000000E+00
 2.75425  0.0000000E+00
 2.77725  0.0000000E+00
 2.80025  0.0000000E+00
 2.82325  30.8074
 2.84625  32.2954
 2.86925  33.0881
 2.89225  33.8902
 2.91525  34.8973
 2.93825  35.3407
 2.96125  34.9989
 2.98425  34.6093
 3.00725  35.623
 3.03025  35.9657
 3.05325  36.0978
 3.07625  35.462
 3.09925  34.8659
 3.12225  34.6734
 3.14525  34.4984
 3.16825  34.7097
 3.19125  35.5049
 3.21425  35.5174
 3.23725  34.7152
 3.26025  34.1977
 3.28325  34.0555
 3.30625  34.2056
 3.32925  34.2388
 3.35225  34.6874
 3.37525  34.8491
 3.39825  34.64
 3.42125  34.0836
 3.44425  33.8908
 3.46725  34.206
 3.49025  34.7713
 3.51325  34.7876
 3.53625  34.6579
 3.55925  34.3645
 3.58225  33.9329
 3.60525  33.5005
 3.62825  33.2673
 3.65125  33.0964
 3.67425  33.0836
 3.69725  33.0649
 3.72025  32.7952
 3.74325  32.8272
 3.76625  33.0893
 3.78925  32.857
 3.81225  32.59
 3.83525  33.0507
 3.85825  33.3497
 3.88125  33.1931
 3.90425  32.6745
 3.92725  32.7444
 3.95025  32.9197
 3.97325  33.1565
 3.99625  33.3864
 4.01925  33.1722
 4.04225  32.7062
 4.06525  32.3324
 4.08825  32.3629
 4.11125  32.7514
 4.13425  32.5574
 4.15725  32.2447
 4.18025  32.0465
 4.20325  32.1424
 4.22625  32.3259
 4.24925  32.2483
 4.27225  32.1936
 4.29525  32.0531
 4.31825  32.2704
 4.34125  32.4971
 4.36425  32.4403
 4.38725  32.3302
 4.41025  32.3744
 4.43325  32.4411
 4.45625  32.3147
 4.47925  32.4645
 4.50225  32.4612
 4.52525  32.3242
 4.54825  32.2475
 4.57125  32.0942
 4.59425  32.1807
 4.61725  32.2912
 4.64025  32.5129
 4.66325  32.6784
 4.68625  32.865
 4.70925  33.0635
 4.73225  33.0735
 4.75525  32.6801
 4.77825  32.5782
 4.80125  32.6179
 4.82425  32.8043
 4.84725  32.8633
 4.87025  32.8134
 4.89325  32.7684
 4.91625  32.8774
 4.93925  33.0059
 4.96225  32.897
 4.98525  32.7596
 5.00825  32.9851
 5.03125  33.2153
 5.05425  33.4312
 5.07725  33.2926
 5.10025  33.264
 5.12325  33.3274
 5.14625  33.5826
 5.16925  33.7725
 5.19225  33.8891
 5.21525  33.9502
 5.23825  33.9582
 5.26125  34.0569
 5.28425  33.9981
 5.30725  33.9938
 5.33025  34.1638
 5.35325  34.2015
 5.37625  34.1571
 5.39925  34.3488
 5.42225  34.3607
 5.44525  34.3923
 5.46825  34.5584
 5.49125  34.5639
 5.51425  34.6098
 5.53725  34.883
 5.56025  35.1038
 5.58325  35.2074
 5.60625  35.4902
 5.62925  35.4761
 5.65225  35.2849
 5.67525  35.507
 5.69825  35.453
 5.72125  35.5514
 5.74425  35.6904
 5.76725  35.6947
 5.79025  35.9166
 5.81325  36.2706
 5.83625  36.7358
 5.85925  37.1367
 5.88225  37.9174
 5.90525  39.3007
 5.92825  43.5762
 5.95125  58.3195
 5.97425  80.6535
 5.99725  86.9431
 6.02025  71.1021
 6.04325  51.7435
 6.06625  41.7002
 6.08925  38.5129
 6.11225  37.6093
 6.13525  37.0975
 6.15825  37.0187
 6.18125  37.1519
 6.20425  37.5336
 6.22725  37.6961
 6.25025  37.6719
 6.27325  37.8196
 6.29625  37.8518
 6.31925  37.8648
 6.34225  37.9253
 6.36525  38.0468
 6.38825  38.1231
 6.41125  38.5183
 6.43425  38.7627
 6.45725  38.8511
 6.48025  38.8355
 6.50325  38.8972
 6.52625  39.1435
 6.54925  39.3003
 6.57225  39.4476
 6.59525  39.6303
 6.61825  39.8098
 6.64125  39.8677
 6.66425  39.9395
 6.68725  40.0399
 6.71025  40.1464
 6.73325  40.3384
 6.75625  40.5581
 6.77925  40.7204
 6.80225  40.8286
 6.82525  41.045
 6.84825  41.3024
 6.87125  41.6877
 6.89425  41.8041
 6.91725  41.8669
 6.94025  41.9844
 6.96325  41.918
 6.98625  41.924
 7.00925  41.9524
 7.03225  42.3118
 7.05525  42.4047
 7.07825  42.398
 7.10125  42.5412
 7.12425  42.8029
 7.14725  43.0937
 7.17025  43.241
 7.19325  43.3126
 7.21625  43.4115
 7.23925  43.414
 7.26225  43.3434
 7.28525  43.472
 7.30825  43.529
 7.33125  43.6746
 7.35425  43.7027
 7.37725  43.7412
 7.40025  43.7757
 7.42325  43.7357
 7.44625  43.739
 7.46925  43.7839
 7.49225  43.7834
 7.51525  43.8116
 7.53825  43.7493
 7.56125  43.8906
 7.58425  43.8857
 7.60725  43.8231
 7.63025  43.8664
 7.65325  43.8744
 7.67625  43.8959
 7.69925  43.9492
 7.72225  44.0499
 7.74525  44.1461
 7.76825  44.1826
 7.79125  44.0476
 7.81425  43.9469
 7.83725  43.9184
 7.86025  43.6856
 7.88325  43.385
 7.90625  43.3431
 7.92925  43.4186
 7.95225  43.4008
 7.97525  43.1254
 7.99825  42.9032
 8.02125  42.8881
 8.04425  42.7904
 8.06725  42.5997
 8.09025  42.4967
 8.11325  42.4928
 8.13625  42.2597
 8.15925  41.76
 8.18225  41.463
 8.20525  41.3875
 8.22825  41.2244
 8.25125  41.0448
 8.27425  40.7352
 8.29725  40.4851
 8.32025  40.2005
 8.34325  39.8619
 8.36625  39.6071
 8.38925  39.4244
 8.41225  39.0692
 8.43525  38.7168
 8.45825  38.3831
 8.48125  38.1423
 8.50425  37.6752
 8.52725  37.4379
 8.55025  37.0144
 8.57325  36.7174
 8.59625  36.2995
 8.61925  35.9916
 8.64225  35.672
 8.66525  35.2328
 8.68825  34.8584
 8.71125  34.4836
 8.73425  34.1406
 8.75725  33.7674
 8.78025  33.5295
 8.80325  33.0982
 8.82625  32.8408
 8.84925  32.6048
 8.87225  32.3783
 8.89525  31.9839
 8.91825  31.5993
 8.94125  31.3204
 8.96425  31.1313
 8.98725  30.7131
 9.01025  30.3543
 9.03325  30.0848
 9.05625  29.8441
 9.07925  29.6073
 9.10225  29.3281
 9.12525  29.0669
 9.14825  28.9431
 9.17125  28.7361
 9.19425  28.4459
 9.21725  28.1505
 9.24025  27.8896
 9.26325  27.758
 9.28625  27.7143
 9.30925  27.5893
 9.33225  27.3052
 9.35525  27.0238
 9.37825  26.8328
 9.40125  26.7053
 9.42425  26.5317
 9.44725  26.4569
 9.47025  26.3256
 9.49325  26.221
 9.51625  26.0733
 9.53925  25.9564
 9.56225  25.9162
 9.58525  25.7739
 9.60825  25.6084
 9.63125  25.5267
 9.65425  25.2937
 9.67725  25.1142
 9.70025  24.944
 9.72325  24.8495
 9.74625  24.7925
 9.76925  24.6747
 9.79225  24.5969
 9.81525  24.5551
 9.83825  24.4557
 9.86125  24.4855
 9.88425  24.4406
 9.90725  24.2735
 9.93025  24.2651
 9.95325  24.2357
 9.97625  24.0513
 9.99925  23.9168
 10.0222  23.8057
 10.0453  23.8716
 10.0683  23.8415
 10.0913  23.6971
 10.1143  23.5948
 10.1373  23.6085
 10.1603  23.6382
 10.1832  23.5918
 10.2063  23.4532
 10.2293  23.3979
 10.2523  23.3108
 10.2752  23.2484
 10.2982  23.2907
 10.3213  23.3753
 10.3443  23.3663
 10.3673  23.3048
 10.3902  23.2972
 10.4133  23.2161
 10.4363  22.9977
 10.4593  23.0004
 10.4823  23.072
 10.5053  23.0614
 10.5283  22.9815
 10.5512  22.9933
 10.5742  23.085
 10.5973  22.981
 10.6203  22.8806
 10.6433  22.809
 10.6662  22.6763
 10.6893  22.581
 10.7123  22.6866
 10.7353  22.6891
 10.7583  22.5387
 10.7813  22.4439
 10.8043  22.4522
 10.8272  22.5174
 10.8503  22.5767
 10.8733  22.5686
 10.8963  22.4774
 10.9192  22.4104
 10.9422  22.485
 10.9653  22.4362
 10.9883  22.4571
 11.0113  22.297
 11.0343  22.2474
 11.0573  22.2635
 11.0803  22.2507
 11.1033  22.3262
 11.1263  22.3866
 11.1493  22.3135
 11.1723  22.2913
 11.1953  22.2855
 11.2182  22.2464
 11.2413  22.2604
 11.2643  22.2405
 11.2873  22.1633
 11.3102  22.2426
 11.3333  22.2868
 11.3563  22.3322
 11.3793  22.4232
 11.4023  22.5866
 11.4253  22.6403
 11.4483  22.5839
 11.4713  22.5733
 11.4942  22.6554
 11.5173  23.0142
 11.5403  23.9205
 11.5633  25.2569
 11.5862  26.4904
 11.6093  25.9829
 11.6323  24.7248
 11.6553  23.515
 11.6783  22.6294
 11.7013  22.3166
 11.7243  22.2916
 11.7473  22.3411
 11.7703  22.2603
 11.7933  22.127
 11.8163  22.176
 11.8393  22.2041
 11.8622  22.1091
 11.8853  22.1874
 11.9083  22.2887
 11.9313  22.4193
 11.9543  22.5106
 11.9773  22.7083
 12.0003  22.8098
 12.0233  22.8039
 12.0463  22.8833
 12.0693  23.1161
 12.0923  23.3431
 12.1153  23.373
 12.1382  23.0273
 12.1613  22.6721
 12.1843  22.4905
 12.2073  22.261
 12.2302  22.1911
 12.2533  22.3683
 12.2763  22.3752
 12.2993  22.3286
 12.3223  22.4094
 12.3453  22.3891
 12.3683  22.339
 12.3913  22.2374
 12.4142  22.217
 12.4373  22.318
 12.4603  22.3923
 12.4833  22.5404
 12.5062  22.5524
 12.5292  22.5259
 12.5523  22.528
 12.5753  22.4899
 12.5983  22.5434
 12.6212  22.6356
 12.6443  22.6428
 12.6673  22.6958
 12.6903  22.7326
 12.7133  22.8198
 12.7363  22.8349
 12.7593  22.7983
 12.7822  22.8326
 12.8052  22.8818
 12.8283  23.0788
 12.8513  23.1817
 12.8742  23.237
 12.8972  23.2234
 12.9203  23.2902
 12.9433  23.4649
 12.9663  23.6272
 12.9893  23.6834
 13.0123  23.6346
 13.0353  23.7843
 13.0582  24.0332
 13.0813  24.1494
 13.1043  24.383
 13.1273  24.7061
 13.1502  24.9838
 13.1732  25.2358
 13.1963  25.5546
 13.2193  25.9025
 13.2423  26.2035
 13.2652  26.3801
 13.2883  26.5387
 13.3113  26.7645
 13.3343  27.1249
 13.3573  27.4745
 13.3803  27.6868
 13.4033  27.9039
 13.4262  28.1092
 13.4492  28.3889
 13.4723  28.5533
 13.4953  28.7953
 13.5183  29.1122
 13.5412  29.29
 13.5643  29.4587
 13.5873  29.4737
 13.6103  29.529
 13.6333  29.5664
 13.6563  29.4911
 13.6793  29.5699
 13.7022  29.5556
 13.7253  29.4643
 13.7483  29.5127
 13.7713  29.6315
 13.7942  29.6907
 13.8172  29.7821
 13.8403  30.0862
 13.8633  31.2328
 13.8863  33.7894
 13.9093  39.2023
 13.9323  45.3486
 13.9553  50.2171
 13.9783  49.8941
 14.0013  43.8804
 14.0243  36.088
 14.0473  30.7619
 14.0703  28.9494
 14.0932  28.2547
 14.1163  27.772
 14.1393  27.4296
 14.1623  27.1711
 14.1852  26.9587
 14.2083  26.7646
 14.2313  26.6311
 14.2543  26.5019
 14.2773  26.3664
 14.3003  26.2338
 14.3233  26.1406
 14.3463  26.1319
 14.3692  26.0603
 14.3923  25.8393
 14.4153  25.6939
 14.4383  25.6326
 14.4612  25.5954
 14.4843  25.4874
 14.5073  25.4374
 14.5303  25.3864
 14.5533  25.402
 14.5763  25.2985
 14.5993  25.1764
 14.6223  25.1432
 14.6453  25.0586
 14.6683  25.0153
 14.6913  25.0236
 14.7143  25.0329
 14.7372  24.926
 14.7603  24.924
 14.7833  24.9031
 14.8063  24.9134
 14.8293  24.8005
 14.8523  24.7229
 14.8753  24.5921
 14.8983  24.6055
 14.9213  24.5868
 14.9443  24.5726
 14.9673  24.5988
 14.9903  24.68
 15.0132  24.7551
 15.0363  24.7832
 15.0593  24.7126
 15.0823  24.7492
 15.1052  24.943
 15.1283  25.2546
 15.1513  26.0965
 15.1743  27.2732
 15.1973  27.8827
 15.2203  27.6182
 15.2433  26.5662
 15.2663  25.5576
 15.2892  24.9908
 15.3123  24.6929
 15.3353  24.5453
 15.3583  24.5375
 15.3812  24.5559
 15.4043  24.4852
 15.4273  24.3293
 15.4503  24.3384
 15.4733  24.4229
 15.4963  24.42
 15.5193  24.429
 15.5423  24.3686
 15.5653  24.365
 15.5883  24.3419
 15.6113  24.3172
 15.6343  24.2992
 15.6572  24.3635
 15.6803  24.4652
 15.7033  24.5084
 15.7263  24.4856
 15.7492  24.4048
 15.7723  24.3318
 15.7953  24.3018
 15.8183  24.354
 15.8413  24.3422
 15.8643  24.4148
 15.8873  24.3943
 15.9103  24.3987
 15.9332  24.4741
 15.9563  24.4487
 15.9793  24.433
 16.0023  24.4759
 16.0253  24.392
 16.0482  24.5275
 16.0713  24.562
 16.0943  24.5398
 16.1172  24.6235
 16.1403  24.7145
 16.1633  24.7489
 16.1863  24.8126
 16.2093  25.0267
 16.2323  25.2193
 16.2553  25.4184
 16.2783  25.3666
 16.3012  25.0426
 16.3243  24.7255
 16.3472  24.552
 16.3703  24.4184
 16.3933  24.3973
 16.4163  24.5352
 16.4393  24.4751
 16.4623  24.4027
 16.4853  24.3719
 16.5083  24.3447
 16.5312  24.5279
 16.5543  25.0811
 16.5773  24.769
 16.6002  24.3883
 16.6233  24.2764
 16.6463  24.3043
 16.6693  24.3431
 16.6923  24.3101
 16.7153  24.3101
 16.7383  24.3149
 16.7613  24.2612
 16.7843  24.1905
 16.8073  24.2012
 16.8303  24.1895
 16.8533  24.1562
 16.8763  24.1325
 16.8992  24.1121
 16.9223  24.0893
 16.9453  24.0797
 16.9683  24.0355
 16.9913  24.0502
 17.0143  24.084
 17.0373  24.0306
 17.0603  23.9111
 17.0832  23.8772
 17.1063  23.8549
 17.1293  23.9276
 17.1522  23.9317
 17.1753  23.9488
 17.1983  24.026
 17.2213  23.9995
 17.2443  23.8992
 17.2673  23.8469
 17.2903  23.8647
 17.3133  23.9166
 17.3362  23.8368
 17.3593  23.8004
 17.3823  23.8173
 17.4053  23.7463
 17.4283  23.6517
 17.4513  23.7337
 17.4743  23.8397
 17.4973  23.895
 17.5203  23.7929
 17.5433  23.7928
 17.5663  23.7177
 17.5893  23.6353
 17.6123  23.6875
 17.6352  23.7488
 17.6583  23.7087
 17.6813  23.71
 17.7042  23.6765
 17.7273  23.5434
 17.7503  23.5407
 17.7733  23.5869
 17.7963  23.6358
 17.8193  23.6061
 17.8423  23.6381
 17.8653  23.661
 17.8882  23.546
 17.9113  23.5115
 17.9343  23.5704
 17.9573  23.658
 17.9803  23.6267
 18.0033  23.6931
 18.0263  23.8186
 18.0493  23.8501
 18.0723  23.9409
 18.0953  24.1224
 18.1183  24.1454
 18.1413  24.0582
 18.1643  23.8814
 18.1872  23.6532
 18.2103  23.5661
 18.2333  23.5148
 18.2563  23.4602
 18.2793  23.4965
 18.3023  23.5572
 18.3253  23.5987
 18.3483  23.6592
 18.3712  23.6167
 18.3943  23.6202
 18.4173  23.5561
 18.4402  23.503
 18.4633  23.5115
 18.4863  23.5011
 18.5093  23.4975
 18.5323  23.4713
 18.5553  23.3621
 18.5783  23.3813
 18.6013  23.4407
 18.6242  23.3518
 18.6473  23.2457
 18.6703  23.2394
 18.6933  23.2493
 18.7163  23.3003
 18.7392  23.2697
 18.7623  23.2758
 18.7853  23.334
 18.8083  23.3719
 18.8313  23.3443
 18.8543  23.2788
 18.8773  23.2774
 18.9003  23.2577
 18.9232  23.3392
 18.9463  23.4408
 18.9693  23.4201
 18.9922  23.4003
 19.0153  23.3986
 19.0383  23.3041
 19.0613  23.2606
 19.0843  23.3134
 19.1073  23.2464
 19.1303  23.2096
 19.1533  23.3165
 19.1762  23.3502
 19.1993  23.2978
 19.2223  23.279
 19.2453  23.3154
 19.2683  23.3326
 19.2913  23.295
 19.3143  23.3669
 19.3373  23.3973
 19.3603  23.3959
 19.3833  23.464
 19.4062  23.4876
 19.4293  23.5451
 19.4523  23.5362
 19.4752  23.4245
 19.4983  23.496
 19.5213  23.5384
 19.5443  23.6279
 19.5673  23.603
 19.5903  23.666
 19.6133  23.7913
 19.6363  23.9153
 19.6593  24.2233
 19.6823  24.7629
 19.7053  25.7194
 19.7283  26.545
 19.7513  26.6583
 19.7742  26.16
 19.7973  26.3847
 19.8203  28.2502
 19.8433  30.2984
 19.8663  30.9193
 19.8893  28.9152
 19.9123  26.3408
 19.9353  24.6503
 19.9582  24.0185
 19.9813  23.8455
 20.0043  23.7586
 20.0272  23.6784
 20.0503  23.6974
 20.0733  23.671
 20.0963  23.5817
 20.1193  23.5874
 20.1423  23.6254
 20.1653  23.6201
 20.1883  23.5862
 20.2112  23.5611
 20.2343  23.5585
 20.2573  23.5426
 20.2803  23.5561
 20.3033  23.5609
 20.3263  23.4367
 20.3493  23.525
 20.3723  23.5402
 20.3953  23.4845
 20.4183  23.5587
 20.4413  23.5334
 20.4643  23.4335
 20.4873  23.4471
 20.5102  23.4663
 20.5333  23.4388
 20.5563  23.4638
 20.5792  23.5435
 20.6023  23.6146
 20.6253  23.6935
 20.6483  23.7833
 20.6713  23.9555
 20.6943  24.317
 20.7173  25.0611
 20.7403  26.0237
 20.7632  26.681
 20.7863  26.4172
 20.8093  25.3903
 20.8323  24.4485
 20.8553  24.0687
 20.8783  23.909
 20.9013  23.8276
 20.9243  23.7762
 20.9473  23.7405
 20.9703  23.6432
 20.9933  23.6294
 21.0163  23.6072
 21.0393  23.6384
 21.0622  23.5779
 21.0853  23.5948
 21.1083  23.6269
 21.1313  23.6528
 21.1543  23.6249
 21.1773  23.6338
 21.2003  23.7079
 21.2233  23.6423
 21.2462  23.6352
 21.2693  23.6523
 21.2923  23.6504
 21.3152  23.6637
 21.3383  23.6474
 21.3613  23.6853
 21.3843  23.7806
 21.4073  23.745
 21.4303  23.7318
 21.4533  23.6503
 21.4763  23.5355
 21.4992  23.657
 21.5223  23.697
 21.5453  23.6985
 21.5683  23.6662
 21.5913  23.7621
 21.6142  23.8053
 21.6373  23.8157
 21.6603  23.8621
 21.6833  23.8997
 21.7063  23.94
 21.7293  23.9379
 21.7523  23.8691
 21.7753  23.8445
 21.7982  23.9527
 21.8213  23.9974
 21.8443  23.9208
 21.8672  23.9243
 21.8903  23.9039
 21.9133  23.9224
 21.9363  23.9827
 21.9593  24.0132
 21.9823  24.0341
 22.0053  23.9907
 22.0283  23.9496
 22.0512  23.9386
 22.0743  23.972
 22.0973  24.0452
 22.1203  24.0728
 22.1433  24.13
 22.1663  24.1114
 22.1893  24.0247
 22.2123  24.079
 22.2353  24.0655
 22.2583  24.0964
 22.2813  24.0976
 22.3043  24.2091
 22.3273  24.2681
 22.3502  24.299
 22.3733  24.3286
 22.3963  24.2686
 22.4193  24.2311
 22.4423  24.3287
 22.4653  24.4954
 22.4883  24.5563
 22.5113  24.4718
 22.5343  24.5552
 22.5573  24.5655
 22.5803  24.5335
 22.6033  24.5666
 22.6263  24.6845
 22.6493  24.7366
 22.6723  24.8411
 22.6953  24.8998
 22.7183  24.9553
 22.7413  25.0031
 22.7643  25.0077
 22.7873  24.982
 22.8103  25.125
 22.8333  25.2532
 22.8563  25.2434
 22.8793  25.3128
 22.9022  25.4604
 22.9253  25.6508
 22.9483  25.7522
 22.9713  25.9596
 22.9943  26.1956