File: test-data-xrd/xrd-map-34-ID-E/Data_0093.chi
F:\20151113_APS_34IDE\\Brian\Particle1\OCV\Data_0093.tif
2-Theta Angle (Degrees)
Intensity
       2000
 0.01725  0.0000000E+00
 0.04025  0.0000000E+00
 0.06325  0.0000000E+00
 0.08625  0.0000000E+00
 0.10925  0.0000000E+00
 0.13225  0.0000000E+00
 0.15525  0.0000000E+00
 0.17825  0.0000000E+00
 0.20125  0.0000000E+00
 0.22425  0.0000000E+00
 0.24725  0.0000000E+00
 0.27025  0.0000000E+00
 0.29325  0.0000000E+00
 0.31625  0.0000000E+00
 0.33925  0.0000000E+00
 0.36225  0.0000000E+00
 0.38525  0.0000000E+00
 0.40825  0.0000000E+00
 0.43125  0.0000000E+00
 0.45425  0.0000000E+00
 0.47725  0.0000000E+00
 0.50025  0.0000000E+00
 0.52325  0.0000000E+00
 0.54625  0.0000000E+00
 0.56925  0.0000000E+00
 0.59225  0.0000000E+00
 0.61525  0.0000000E+00
 0.63825  0.0000000E+00
 0.66125  0.0000000E+00
 0.68425  0.0000000E+00
 0.70725  0.0000000E+00
 0.73025  0.0000000E+00
 0.75325  0.0000000E+00
 0.77625  0.0000000E+00
 0.79925  0.0000000E+00
 0.82225  0.0000000E+00
 0.84525  0.0000000E+00
 0.86825  0.0000000E+00
 0.89125  0.0000000E+00
 0.91425  0.0000000E+00
 0.93725  0.0000000E+00
 0.96025  0.0000000E+00
 0.98325  0.0000000E+00
 1.00625  0.0000000E+00
 1.02925  0.0000000E+00
 1.05225  0.0000000E+00
 1.07525  0.0000000E+00
 1.09825  0.0000000E+00
 1.12125  0.0000000E+00
 1.14425  0.0000000E+00
 1.16725  0.0000000E+00
 1.19025  0.0000000E+00
 1.21325  0.0000000E+00
 1.23625  0.0000000E+00
 1.25925  0.0000000E+00
 1.28225  0.0000000E+00
 1.30525  0.0000000E+00
 1.32825  0.0000000E+00
 1.35125  0.0000000E+00
 1.37425  0.0000000E+00
 1.39725  0.0000000E+00
 1.42025  0.0000000E+00
 1.44325  0.0000000E+00
 1.46625  0.0000000E+00
 1.48925  0.0000000E+00
 1.51225  0.0000000E+00
 1.53525  0.0000000E+00
 1.55825  0.0000000E+00
 1.58125  0.0000000E+00
 1.60425  0.0000000E+00
 1.62725  0.0000000E+00
 1.65025  0.0000000E+00
 1.67325  0.0000000E+00
 1.69625  0.0000000E+00
 1.71925  0.0000000E+00
 1.74225  0.0000000E+00
 1.76525  0.0000000E+00
 1.78825  0.0000000E+00
 1.81125  0.0000000E+00
 1.83425  0.0000000E+00
 1.85725  0.0000000E+00
 1.88025  0.0000000E+00
 1.90325  0.0000000E+00
 1.92625  0.0000000E+00
 1.94925  0.0000000E+00
 1.97225  0.0000000E+00
 1.99525  0.0000000E+00
 2.01825  0.0000000E+00
 2.04125  0.0000000E+00
 2.06425  0.0000000E+00
 2.08725  0.0000000E+00
 2.11025  0.0000000E+00
 2.13325  0.0000000E+00
 2.15625  0.0000000E+00
 2.17925  0.0000000E+00
 2.20225  0.0000000E+00
 2.22525  0.0000000E+00
 2.24825  0.0000000E+00
 2.27125  0.0000000E+00
 2.29425  0.0000000E+00
 2.31725  0.0000000E+00
 2.34025  0.0000000E+00
 2.36325  0.0000000E+00
 2.38625  0.0000000E+00
 2.40925  0.0000000E+00
 2.43225  0.0000000E+00
 2.45525  0.0000000E+00
 2.47825  0.0000000E+00
 2.50125  0.0000000E+00
 2.52425  0.0000000E+00
 2.54725  0.0000000E+00
 2.57025  0.0000000E+00
 2.59325  0.0000000E+00
 2.61625  0.0000000E+00
 2.63925  0.0000000E+00
 2.66225  0.0000000E+00
 2.68525  0.0000000E+00
 2.70825  0.0000000E+00
 2.73125  0.0000000E+00
 2.75425  0.0000000E+00
 2.77725  0.0000000E+00
 2.80025  0.0000000E+00
 2.82325  29.5233
 2.84625  33.1057
 2.86925  33.6518
 2.89225  34.0152
 2.91525  34.4638
 2.93825  34.6018
 2.96125  35.3521
 2.98425  36.1109
 3.00725  37.3702
 3.03025  37.4818
 3.05325  36.4631
 3.07625  35.4749
 3.09925  35.3532
 3.12225  35.1368
 3.14525  35.1259
 3.16825  35.5071
 3.19125  35.5106
 3.21425  35.038
 3.23725  34.7599
 3.26025  34.452
 3.28325  34.7944
 3.30625  34.9811
 3.32925  34.9507
 3.35225  34.8182
 3.37525  34.5339
 3.39825  34.382
 3.42125  34.1458
 3.44425  33.9317
 3.46725  33.85
 3.49025  34.37
 3.51325  34.264
 3.53625  33.9515
 3.55925  33.6111
 3.58225  33.2142
 3.60525  32.825
 3.62825  32.6907
 3.65125  33.0466
 3.67425  33.2547
 3.69725  33.5218
 3.72025  33.3942
 3.74325  33.1524
 3.76625  33.1349
 3.78925  33.0972
 3.81225  33.0194
 3.83525  32.6603
 3.85825  32.8006
 3.88125  32.9627
 3.90425  32.8681
 3.92725  32.6858
 3.95025  32.7096
 3.97325  32.7224
 3.99625  32.8191
 4.01925  32.6659
 4.04225  32.3185
 4.06525  32.1615
 4.08825  32.1388
 4.11125  32.1357
 4.13425  32.5523
 4.15725  32.7314
 4.18025  32.2613
 4.20325  31.9188
 4.22625  32.0104
 4.24925  32.1392
 4.27225  32.1541
 4.29525  32.3747
 4.31825  32.4371
 4.34125  32.4544
 4.36425  32.5298
 4.38725  32.2563
 4.41025  31.8875
 4.43325  32.1213
 4.45625  32.1115
 4.47925  31.9657
 4.50225  32.188
 4.52525  32.3991
 4.54825  32.4536
 4.57125  32.5646
 4.59425  32.5137
 4.61725  32.6098
 4.64025  32.746
 4.66325  32.8951
 4.68625  32.9418
 4.70925  32.7677
 4.73225  32.5217
 4.75525  32.6226
 4.77825  32.7307
 4.80125  32.6957
 4.82425  32.6674
 4.84725  32.7055
 4.87025  32.7881
 4.89325  32.8053
 4.91625  33.0181
 4.93925  33.1105
 4.96225  33.1185
 4.98525  33.0868
 5.00825  33.0739
 5.03125  33.2966
 5.05425  33.327
 5.07725  33.2858
 5.10025  33.3522
 5.12325  33.4473
 5.14625  33.6562
 5.16925  33.9018
 5.19225  34.1672
 5.21525  34.1447
 5.23825  33.9804
 5.26125  33.6647
 5.28425  33.7189
 5.30725  33.9858
 5.33025  34.1548
 5.35325  34.3021
 5.37625  34.5041
 5.39925  34.7639
 5.42225  34.8063
 5.44525  34.6456
 5.46825  34.7017
 5.49125  34.7351
 5.51425  34.771
 5.53725  34.8643
 5.56025  34.9875
 5.58325  35.161
 5.60625  35.2268
 5.62925  35.2117
 5.65225  35.257
 5.67525  35.3792
 5.69825  35.4313
 5.72125  35.5562
 5.74425  35.9239
 5.76725  36.003
 5.79025  36.0171
 5.81325  35.9063
 5.83625  35.9487
 5.85925  36.2397
 5.88225  36.7505
 5.90525  38.0474
 5.92825  41.6964
 5.95125  49.8602
 5.97425  56.9285
 5.99725  58.0393
 6.02025  50.2886
 6.04325  43.8091
 6.06625  39.6028
 6.08925  38.2079
 6.11225  37.6462
 6.13525  37.3667
 6.15825  37.2507
 6.18125  37.4494
 6.20425  37.4674
 6.22725  37.5803
 6.25025  37.6904
 6.27325  37.8826
 6.29625  37.9911
 6.31925  38.0269
 6.34225  38.312
 6.36525  38.4963
 6.38825  38.5306
 6.41125  38.7792
 6.43425  38.9607
 6.45725  38.8139
 6.48025  38.8347
 6.50325  39.0645
 6.52625  39.184
 6.54925  39.3193
 6.57225  39.4393
 6.59525  39.6039
 6.61825  39.8826
 6.64125  40.0796
 6.66425  40.2105
 6.68725  40.3096
 6.71025  40.5601
 6.73325  40.6928
 6.75625  40.8925
 6.77925  41.0753
 6.80225  41.1462
 6.82525  41.4518
 6.84825  41.8475
 6.87125  42.2742
 6.89425  42.3524
 6.91725  42.2119
 6.94025  42.1166
 6.96325  42.1245
 6.98625  42.4691
 7.00925  42.6189
 7.03225  42.8308
 7.05525  42.9317
 7.07825  43.1506
 7.10125  43.2756
 7.12425  43.2839
 7.14725  43.2069
 7.17025  43.2763
 7.19325  43.3277
 7.21625  43.5244
 7.23925  43.7442
 7.26225  43.8381
 7.28525  44.0196
 7.30825  44.0224
 7.33125  44.0252
 7.35425  43.9473
 7.37725  43.9514
 7.40025  44.0233
 7.42325  44.0491
 7.44625  44.1661
 7.46925  44.2102
 7.49225  44.1611
 7.51525  44.2522
 7.53825  44.2538
 7.56125  44.1919
 7.58425  44.252
 7.60725  44.4022
 7.63025  44.3539
 7.65325  44.4185
 7.67625  44.4236
 7.69925  44.3628
 7.72225  44.327
 7.74525  44.4759
 7.76825  44.5564
 7.79125  44.638
 7.81425  44.6568
 7.83725  44.5318
 7.86025  44.3528
 7.88325  44.2619
 7.90625  44.1314
 7.92925  43.9396
 7.95225  43.8409
 7.97525  43.7173
 7.99825  43.6432
 8.02125  43.6417
 8.04425  43.4385
 8.06725  43.2418
 8.09025  43.042
 8.11325  42.9591
 8.13625  42.7674
 8.15925  42.5471
 8.18225  42.2232
 8.20525  41.8367
 8.22825  41.5524
 8.25125  41.4059
 8.27425  41.1454
 8.29725  40.834
 8.32025  40.6493
 8.34325  40.3394
 8.36625  39.9104
 8.38925  39.6238
 8.41225  39.3106
 8.43525  38.8121
 8.45825  38.5387
 8.48125  38.2721
 8.50425  38.0581
 8.52725  37.8877
 8.55025  37.719
 8.57325  37.3892
 8.59625  36.856
 8.61925  36.281
 8.64225  35.8841
 8.66525  35.4581
 8.68825  35.1813
 8.71125  34.8469
 8.73425  34.4238
 8.75725  34.0648
 8.78025  33.8073
 8.80325  33.4912
 8.82625  33.2102
 8.84925  32.9384
 8.87225  32.5053
 8.89525  32.1281
 8.91825  31.8472
 8.94125  31.491
 8.96425  31.3344
 8.98725  31.0337
 9.01025  30.6987
 9.03325  30.4118
 9.05625  30.0991
 9.07925  29.8316
 9.10225  29.6348
 9.12525  29.3954
 9.14825  29.1913
 9.17125  28.8968
 9.19425  28.6067
 9.21725  28.3588
 9.24025  28.2557
 9.26325  28.2245
 9.28625  28.0711
 9.30925  27.9314
 9.33225  27.7302
 9.35525  27.5246
 9.37825  27.2071
 9.40125  26.991
 9.42425  26.9315
 9.44725  26.766
 9.47025  26.758
 9.49325  26.7413
 9.51625  26.5402
 9.53925  26.4066
 9.56225  26.2069
 9.58525  25.9915
 9.60825  25.898
 9.63125  25.8904
 9.65425  25.6849
 9.67725  25.6194
 9.70025  25.4734
 9.72325  25.333
 9.74625  25.2976
 9.76925  25.2697
 9.79225  25.1579
 9.81525  25.0049
 9.83825  24.8011
 9.86125  24.7469
 9.88425  24.785
 9.90725  24.703
 9.93025  24.6483
 9.95325  24.4597
 9.97625  24.3381
 9.99925  24.2403
 10.0222  24.137
 10.0453  24.16
 10.0683  24.1701
 10.0913  24.0567
 10.1143  23.8525
 10.1373  23.7922
 10.1603  23.8389
 10.1832  23.795
 10.2063  23.7325
 10.2293  23.7087
 10.2523  23.6486
 10.2752  23.675
 10.2982  23.7869
 10.3213  23.6872
 10.3443  23.5177
 10.3673  23.491
 10.3902  23.5485
 10.4133  23.5145
 10.4363  23.3795
 10.4593  23.3842
 10.4823  23.3676
 10.5053  23.2383
 10.5283  23.1365
 10.5512  23.1566
 10.5742  23.239
 10.5973  23.2057
 10.6203  23.2344
 10.6433  23.2078
 10.6662  23.1279
 10.6893  22.971
 10.7123  22.9465
 10.7353  22.961
 10.7583  22.8985
 10.7813  22.8876
 10.8043  22.8843
 10.8272  22.8625
 10.8503  22.8053
 10.8733  22.8127
 10.8963  22.7468
 10.9192  22.7526
 10.9422  22.7938
 10.9653  22.8159
 10.9883  22.752
 11.0113  22.72
 11.0343  22.7247
 11.0573  22.5995
 11.0803  22.5567
 11.1033  22.6473
 11.1263  22.7831
 11.1493  22.7565
 11.1723  22.71
 11.1953  22.6176
 11.2182  22.6342
 11.2413  22.6669
 11.2643  22.5937
 11.2873  22.5659
 11.3102  22.5734
 11.3333  22.6082
 11.3563  22.6564
 11.3793  22.7902
 11.4023  22.9956
 11.4253  23.0467
 11.4483  22.9294
 11.4713  23.0534
 11.4942  23.2819
 11.5173  23.7768
 11.5403  25.6192
 11.5633  29.1445
 11.5862  33.9606
 11.6093  35.8479
 11.6323  30.2062
 11.6553  25.3629
 11.6783  23.5931
 11.7013  23.1459
 11.7243  22.9305
 11.7473  22.7772
 11.7703  22.6921
 11.7933  22.7764
 11.8163  22.8096
 11.8393  22.7345
 11.8622  22.6449
 11.8853  22.7229
 11.9083  22.9272
 11.9313  23.4523
 11.9543  24.5854
 11.9773  26.3336
 12.0003  28.366
 12.0233  27.7175
 12.0463  26.2567
 12.0693  26.3551
 12.0923  28.0277
 12.1153  28.1501
 12.1382  26.1448
 12.1613  24.4631
 12.1843  23.3596
 12.2073  22.9275
 12.2302  22.913
 12.2533  22.8202
 12.2763  22.8206
 12.2993  22.8208
 12.3223  22.7569
 12.3453  22.7406
 12.3683  22.7976
 12.3913  22.7746
 12.4142  22.7667
 12.4373  22.8034
 12.4603  22.8381
 12.4833  22.8723
 12.5062  22.7651
 12.5292  22.671
 12.5523  22.6906
 12.5753  22.7542
 12.5983  22.8227
 12.6212  22.8455
 12.6443  22.8753
 12.6673  22.9156
 12.6903  23.0234
 12.7133  23.0604
 12.7363  22.998
 12.7593  23.1015
 12.7822  23.2901
 12.8052  23.5267
 12.8283  23.5808
 12.8513  23.5692
 12.8742  23.6124
 12.8972  23.6664
 12.9203  23.7158
 12.9433  23.7087
 12.9663  23.7094
 12.9893  23.8809
 13.0123  24.0735
 13.0353  24.321
 13.0582  24.4678
 13.0813  24.6501
 13.1043  24.9121
 13.1273  25.1547
 13.1502  25.326
 13.1732  25.5375
 13.1963  25.814
 13.2193  26.0147
 13.2423  26.3186
 13.2652  26.6328
 13.2883  26.8657
 13.3113  27.1368
 13.3343  27.4527
 13.3573  27.81
 13.3803  28.1192
 13.4033  28.4672
 13.4262  28.5771
 13.4492  28.722
 13.4723  29.1227
 13.4953  29.4913
 13.5183  29.6734
 13.5412  29.7911
 13.5643  29.8784
 13.5873  29.888
 13.6103  30.0355
 13.6333  30.1371
 13.6563  30.1828
 13.6793  30.25
 13.7022  30.1558
 13.7253  30.1482
 13.7483  30.2059
 13.7713  30.2863
 13.7942  30.2967
 13.8172  30.4691
 13.8403  30.8948
 13.8633  31.9665
 13.8863  34.9262
 13.9093  42.6589
 13.9323  55.2463
 13.9553  69.7653
 13.9783  77.685
 14.0013  60.503
 14.0243  41.8207
 14.0473  33.0551
 14.0703  30.0979
 14.0932  29.081
 14.1163  28.5175
 14.1393  28.1343
 14.1623  27.8661
 14.1852  27.5465
 14.2083  27.1882
 14.2313  26.9606
 14.2543  26.7575
 14.2773  26.6646
 14.3003  26.6212
 14.3233  26.4961
 14.3463  26.3733
 14.3692  26.4291
 14.3923  26.3592
 14.4153  26.164
 14.4383  26.0681
 14.4612  25.9901
 14.4843  25.8378
 14.5073  25.7607
 14.5303  25.7057
 14.5533  25.611
 14.5763  25.5826
 14.5993  25.5343
 14.6223  25.5264
 14.6453  25.4641
 14.6683  25.4076
 14.6913  25.2724
 14.7143  25.2712
 14.7372  25.188
 14.7603  25.1638
 14.7833  25.1648
 14.8063  25.2237
 14.8293  25.1036
 14.8523  25.1339
 14.8753  25.0583
 14.8983  25.0716
 14.9213  25.1022
 14.9443  25.0391
 14.9673  24.9791
 14.9903  24.9938
 15.0132  25.0194
 15.0363  24.9932
 15.0593  24.9804
 15.0823  24.9655
 15.1052  25.0696
 15.1283  25.3855
 15.1513  26.3765
 15.1743  27.7905
 15.1973  28.6983
 15.2203  28.1032
 15.2433  26.6037
 15.2663  25.4212
 15.2892  24.9646
 15.3123  24.8187
 15.3353  24.8251
 15.3583  24.7289
 15.3812  24.7412
 15.4043  24.6571
 15.4273  24.6133
 15.4503  24.5869
 15.4733  24.642
 15.4963  24.6556
 15.5193  24.6429
 15.5423  24.7169
 15.5653  24.7038
 15.5883  24.7564
 15.6113  24.6856
 15.6343  24.6289
 15.6572  24.722
 15.6803  24.7997
 15.7033  24.8082
 15.7263  24.8005
 15.7492  24.6424
 15.7723  24.6419
 15.7953  24.5842
 15.8183  24.6648
 15.8413  24.674
 15.8643  24.6735
 15.8873  24.7349
 15.9103  24.7112
 15.9332  24.7022
 15.9563  24.6369
 15.9793  24.6035
 16.0023  24.6934
 16.0253  24.7078
 16.0482  24.7559
 16.0713  24.7671
 16.0943  24.7199
 16.1172  24.8236
 16.1403  24.9213
 16.1633  24.9586
 16.1863  25.1206
 16.2093  25.3533
 16.2323  25.6939
 16.2553  26.0784
 16.2783  26.0374
 16.3012  25.4534
 16.3243  25.0254
 16.3472  24.8792
 16.3703  24.8215
 16.3933  24.8861
 16.4163  24.9188
 16.4393  24.9307
 16.4623  24.7788
 16.4853  24.691
 16.5083  24.7578
 16.5312  24.7836
 16.5543  24.812
 16.5773  24.7689
 16.6002  24.713
 16.6233  24.6732
 16.6463  24.6816
 16.6693  24.6564
 16.6923  24.5811
 16.7153  24.5509
 16.7383  24.6186
 16.7613  24.7299
 16.7843  24.7289
 16.8073  24.632
 16.8303  24.5565
 16.8533  24.5341
 16.8763  24.5222
 16.8992  24.5372
 16.9223  24.5049
 16.9453  24.4143
 16.9683  24.3978
 16.9913  24.4017
 17.0143  24.3428
 17.0373  24.3077
 17.0603  24.2367
 17.0832  24.2558
 17.1063  24.3385
 17.1293  24.3553
 17.1522  24.3913
 17.1753  24.4251
 17.1983  24.3454
 17.2213  24.2761
 17.2443  24.2267
 17.2673  24.0742
 17.2903  24.1395
 17.3133  24.2628
 17.3362  24.1236
 17.3593  24.0858
 17.3823  24.0622
 17.4053  23.9965
 17.4283  24.0005
 17.4513  24.1231
 17.4743  24.1509
 17.4973  24.1075
 17.5203  24.0714
 17.5433  24.221
 17.5663  24.03
 17.5893  23.8519
 17.6123  23.935
 17.6352  23.9984
 17.6583  23.9467
 17.6813  24.0163
 17.7042  24.1011
 17.7273  24.0356
 17.7503  23.9928
 17.7733  23.9964
 17.7963  24.0475
 17.8193  23.9618
 17.8423  23.9163
 17.8653  23.94
 17.8882  23.948
 17.9113  23.9675
 17.9343  24.173
 17.9573  24.3152
 17.9803  24.5964
 18.0033  24.9721
 18.0263  25.3759
 18.0493  26.1886
 18.0723  27.6719
 18.0953  28.8201
 18.1183  28.6634
 18.1413  27.4065
 18.1643  26.1144
 18.1872  25.0727
 18.2103  24.5246
 18.2333  24.2083
 18.2563  24.0441
 18.2793  23.9918
 18.3023  23.9748
 18.3253  23.8502
 18.3483  23.8592
 18.3712  23.8552
 18.3943  23.8878
 18.4173  23.871
 18.4402  23.8335
 18.4633  23.8171
 18.4863  23.8411
 18.5093  23.7684
 18.5323  23.7462
 18.5553  23.7365
 18.5783  23.7397
 18.6013  23.7142
 18.6242  23.631
 18.6473  23.5999
 18.6703  23.5679
 18.6933  23.6667
 18.7163  23.7112
 18.7392  23.714
 18.7623  23.7141
 18.7853  23.6164
 18.8083  23.5697
 18.8313  23.5644
 18.8543  23.529
 18.8773  23.5401
 18.9003  23.6353
 18.9232  23.6766
 18.9463  23.7405
 18.9693  23.7021
 18.9922  23.6521
 19.0153  23.6241
 19.0383  23.5961
 19.0613  23.6411
 19.0843  23.7828
 19.1073  23.7237
 19.1303  23.7001
 19.1533  23.7716
 19.1762  23.7325
 19.1993  23.7345
 19.2223  23.6197
 19.2453  23.688
 19.2683  23.7476
 19.2913  23.6436
 19.3143  23.7184
 19.3373  23.7237
 19.3603  23.6424
 19.3833  23.7276
 19.4062  23.8771
 19.4293  23.8686
 19.4523  23.7667
 19.4752  23.7856
 19.4983  23.8742
 19.5213  24.0902
 19.5443  24.0681
 19.5673  24.001
 19.5903  24.0175
 19.6133  24.1836
 19.6363  24.5517
 19.6593  25.2899
 19.6823  26.7255
 19.7053  28.6146
 19.7283  29.8298
 19.7513  28.9601
 19.7742  27.0262
 19.7973  26.1361
 19.8203  26.4395
 19.8433  27.3155
 19.8663  27.6881
 19.8893  26.9621
 19.9123  25.7996
 19.9353  24.8138
 19.9582  24.2453
 19.9813  24.0066
 20.0043  23.847
 20.0272  23.8781
 20.0503  23.9249
 20.0733  23.8439
 20.0963  23.837
 20.1193  23.8081
 20.1423  23.8019
 20.1653  23.9402
 20.1883  23.9976
 20.2112  23.9252
 20.2343  23.952
 20.2573  23.8994
 20.2803  23.8463
 20.3033  24.1668
 20.3263  24.382
 20.3493  24.1537
 20.3723  23.8493
 20.3953  23.7773
 20.4183  23.8432
 20.4413  23.8803
 20.4643  23.9029
 20.4873  23.8789
 20.5102  23.8658
 20.5333  23.9124
 20.5563  24.0175
 20.5792  24.0311
 20.6023  24.0937
 20.6253  24.0969
 20.6483  24.0533
 20.6713  24.1621
 20.6943  24.6783
 20.7173  25.4527
 20.7403  26.2471
 20.7632  26.6984
 20.7863  26.3161
 20.8093  25.5439
 20.8323  24.808
 20.8553  24.3564
 20.8783  24.1508
 20.9013  24.1014
 20.9243  24.1152
 20.9473  24.1644
 20.9703  24.0947
 20.9933  24.1968
 21.0163  24.1867
 21.0393  23.992
 21.0622  23.9147
 21.0853  24.1552
 21.1083  24.1545
 21.1313  24.1474
 21.1543  24.0021
 21.1773  24.0428
 21.2003  23.9966
 21.2233  23.9685
 21.2462  23.9355
 21.2693  23.9274
 21.2923  23.9633
 21.3152  23.907
 21.3383  23.937
 21.3613  23.9902
 21.3843  23.9533
 21.4073  23.9675
 21.4303  24.0817
 21.4533  24.1374
 21.4763  24.1468
 21.4992  24.2472
 21.5223  24.2006
 21.5453  24.144
 21.5683  24.1197
 21.5913  24.1844
 21.6142  24.2
 21.6373  24.1701
 21.6603  24.2284
 21.6833  24.2959
 21.7063  24.2724
 21.7293  24.2742
 21.7523  24.2261
 21.7753  24.2095
 21.7982  24.2633
 21.8213  24.2975
 21.8443  24.2828
 21.8672  24.3278
 21.8903  24.31
 21.9133  24.402
 21.9363  24.4874
 21.9593  24.446
 21.9823  24.3561
 22.0053  24.3343
 22.0283  24.3939
 22.0512  24.4126
 22.0743  24.4947
 22.0973  24.7883
 22.1203  25.0337
 22.1433  24.7173
 22.1663  24.4679
 22.1893  24.3287
 22.2123  24.3715
 22.2353  24.5405
 22.2583  24.5211
 22.2813  24.4579
 22.3043  24.5251
 22.3273  24.5937
 22.3502  24.6533
 22.3733  24.6255
 22.3963  24.5405
 22.4193  24.4745
 22.4423  24.6502
 22.4653  24.7695
 22.4883  24.6977
 22.5113  24.7315
 22.5343  24.8717
 22.5573  24.8717
 22.5803  24.8122
 22.6033  24.872
 22.6263  25.0393
 22.6493  25.0847
 22.6723  25.1223
 22.6953  25.2719
 22.7183  25.3098
 22.7413  25.3279
 22.7643  25.3379
 22.7873  25.3585
 22.8103  25.5631
 22.8333  25.6797
 22.8563  25.7975
 22.8793  25.8377
 22.9022  25.8929
 22.9253  26.1092
 22.9483  26.1647
 22.9713  26.2679
 22.9943  26.5264