File: test-data-xrd/xrd-map-34-ID-E/Data_0004.chi
F:\20151113_APS_34IDE\\Brian\Particle1\OCV\Data_0004.tif
2-Theta Angle (Degrees)
Intensity
       2000
 0.01725  0.0000000E+00
 0.04025  0.0000000E+00
 0.06325  0.0000000E+00
 0.08625  0.0000000E+00
 0.10925  0.0000000E+00
 0.13225  0.0000000E+00
 0.15525  0.0000000E+00
 0.17825  0.0000000E+00
 0.20125  0.0000000E+00
 0.22425  0.0000000E+00
 0.24725  0.0000000E+00
 0.27025  0.0000000E+00
 0.29325  0.0000000E+00
 0.31625  0.0000000E+00
 0.33925  0.0000000E+00
 0.36225  0.0000000E+00
 0.38525  0.0000000E+00
 0.40825  0.0000000E+00
 0.43125  0.0000000E+00
 0.45425  0.0000000E+00
 0.47725  0.0000000E+00
 0.50025  0.0000000E+00
 0.52325  0.0000000E+00
 0.54625  0.0000000E+00
 0.56925  0.0000000E+00
 0.59225  0.0000000E+00
 0.61525  0.0000000E+00
 0.63825  0.0000000E+00
 0.66125  0.0000000E+00
 0.68425  0.0000000E+00
 0.70725  0.0000000E+00
 0.73025  0.0000000E+00
 0.75325  0.0000000E+00
 0.77625  0.0000000E+00
 0.79925  0.0000000E+00
 0.82225  0.0000000E+00
 0.84525  0.0000000E+00
 0.86825  0.0000000E+00
 0.89125  0.0000000E+00
 0.91425  0.0000000E+00
 0.93725  0.0000000E+00
 0.96025  0.0000000E+00
 0.98325  0.0000000E+00
 1.00625  0.0000000E+00
 1.02925  0.0000000E+00
 1.05225  0.0000000E+00
 1.07525  0.0000000E+00
 1.09825  0.0000000E+00
 1.12125  0.0000000E+00
 1.14425  0.0000000E+00
 1.16725  0.0000000E+00
 1.19025  0.0000000E+00
 1.21325  0.0000000E+00
 1.23625  0.0000000E+00
 1.25925  0.0000000E+00
 1.28225  0.0000000E+00
 1.30525  0.0000000E+00
 1.32825  0.0000000E+00
 1.35125  0.0000000E+00
 1.37425  0.0000000E+00
 1.39725  0.0000000E+00
 1.42025  0.0000000E+00
 1.44325  0.0000000E+00
 1.46625  0.0000000E+00
 1.48925  0.0000000E+00
 1.51225  0.0000000E+00
 1.53525  0.0000000E+00
 1.55825  0.0000000E+00
 1.58125  0.0000000E+00
 1.60425  0.0000000E+00
 1.62725  0.0000000E+00
 1.65025  0.0000000E+00
 1.67325  0.0000000E+00
 1.69625  0.0000000E+00
 1.71925  0.0000000E+00
 1.74225  0.0000000E+00
 1.76525  0.0000000E+00
 1.78825  0.0000000E+00
 1.81125  0.0000000E+00
 1.83425  0.0000000E+00
 1.85725  0.0000000E+00
 1.88025  0.0000000E+00
 1.90325  0.0000000E+00
 1.92625  0.0000000E+00
 1.94925  0.0000000E+00
 1.97225  0.0000000E+00
 1.99525  0.0000000E+00
 2.01825  0.0000000E+00
 2.04125  0.0000000E+00
 2.06425  0.0000000E+00
 2.08725  0.0000000E+00
 2.11025  0.0000000E+00
 2.13325  0.0000000E+00
 2.15625  0.0000000E+00
 2.17925  0.0000000E+00
 2.20225  0.0000000E+00
 2.22525  0.0000000E+00
 2.24825  0.0000000E+00
 2.27125  0.0000000E+00
 2.29425  0.0000000E+00
 2.31725  0.0000000E+00
 2.34025  0.0000000E+00
 2.36325  0.0000000E+00
 2.38625  0.0000000E+00
 2.40925  0.0000000E+00
 2.43225  0.0000000E+00
 2.45525  0.0000000E+00
 2.47825  0.0000000E+00
 2.50125  0.0000000E+00
 2.52425  0.0000000E+00
 2.54725  0.0000000E+00
 2.57025  0.0000000E+00
 2.59325  0.0000000E+00
 2.61625  0.0000000E+00
 2.63925  0.0000000E+00
 2.66225  0.0000000E+00
 2.68525  0.0000000E+00
 2.70825  0.0000000E+00
 2.73125  0.0000000E+00
 2.75425  0.0000000E+00
 2.77725  0.0000000E+00
 2.80025  0.0000000E+00
 2.82325  35.3688
 2.84625  35.3756
 2.86925  35.3059
 2.89225  35.1624
 2.91525  36.1143
 2.93825  36.3635
 2.96125  36.2251
 2.98425  35.6085
 3.00725  36.2631
 3.03025  36.7366
 3.05325  37.7923
 3.07625  37.1508
 3.09925  36.5151
 3.12225  35.4852
 3.14525  35.4289
 3.16825  35.9423
 3.19125  35.9813
 3.21425  35.8427
 3.23725  35.789
 3.26025  35.0773
 3.28325  34.7261
 3.30625  34.9783
 3.32925  34.6829
 3.35225  34.475
 3.37525  34.6864
 3.39825  34.2917
 3.42125  34.2998
 3.44425  34.2932
 3.46725  34.5881
 3.49025  34.7779
 3.51325  34.6643
 3.53625  34.644
 3.55925  34.6583
 3.58225  34.2685
 3.60525  33.5834
 3.62825  33.6012
 3.65125  33.5361
 3.67425  33.4339
 3.69725  33.3357
 3.72025  33.2015
 3.74325  33.2807
 3.76625  33.5742
 3.78925  33.5816
 3.81225  33.308
 3.83525  32.992
 3.85825  32.8742
 3.88125  32.8279
 3.90425  32.6816
 3.92725  32.9066
 3.95025  33.0048
 3.97325  33.3751
 3.99625  33.4101
 4.01925  32.7894
 4.04225  32.4693
 4.06525  32.3862
 4.08825  32.4307
 4.11125  32.4842
 4.13425  32.3998
 4.15725  32.6163
 4.18025  32.6213
 4.20325  32.5525
 4.22625  32.3976
 4.24925  32.1728
 4.27225  32.1849
 4.29525  32.3395
 4.31825  32.4851
 4.34125  32.759
 4.36425  32.6973
 4.38725  32.6937
 4.41025  32.4294
 4.43325  32.3477
 4.45625  32.4413
 4.47925  32.749
 4.50225  32.8626
 4.52525  32.8008
 4.54825  32.8295
 4.57125  33.0201
 4.59425  33.111
 4.61725  33.0534
 4.64025  33.2447
 4.66325  33.4321
 4.68625  33.3038
 4.70925  33.0732
 4.73225  33.0526
 4.75525  32.7552
 4.77825  32.6926
 4.80125  32.8686
 4.82425  32.8683
 4.84725  32.9937
 4.87025  33.2064
 4.89325  33.5082
 4.91625  33.8634
 4.93925  33.7638
 4.96225  33.4279
 4.98525  33.458
 5.00825  33.6322
 5.03125  33.6789
 5.05425  33.4768
 5.07725  33.47
 5.10025  33.5433
 5.12325  33.7253
 5.14625  33.9865
 5.16925  34.1898
 5.19225  34.3631
 5.21525  34.3643
 5.23825  34.3067
 5.26125  34.3867
 5.28425  34.3871
 5.30725  34.47
 5.33025  34.5142
 5.35325  34.6059
 5.37625  34.6709
 5.39925  34.9738
 5.42225  35.0415
 5.44525  35.057
 5.46825  35.1503
 5.49125  35.2634
 5.51425  35.212
 5.53725  35.1276
 5.56025  35.1807
 5.58325  35.4077
 5.60625  35.5684
 5.62925  35.5777
 5.65225  35.8198
 5.67525  36.0316
 5.69825  35.6988
 5.72125  35.6467
 5.74425  35.9865
 5.76725  36.0156
 5.79025  36.005
 5.81325  36.0515
 5.83625  35.9549
 5.85925  36.0369
 5.88225  36.4138
 5.90525  36.9553
 5.92825  37.9448
 5.95125  40.9161
 5.97425  43.9396
 5.99725  43.8456
 6.02025  40.5529
 6.04325  38.258
 6.06625  37.2737
 6.08925  36.9772
 6.11225  36.9717
 6.13525  36.8535
 6.15825  36.8842
 6.18125  37.0615
 6.20425  37.3946
 6.22725  37.6508
 6.25025  37.4845
 6.27325  37.612
 6.29625  37.8204
 6.31925  37.8702
 6.34225  37.9522
 6.36525  38.0779
 6.38825  38.3994
 6.41125  38.7252
 6.43425  38.8762
 6.45725  38.9897
 6.48025  39.1509
 6.50325  39.443
 6.52625  39.5704
 6.54925  39.8289
 6.57225  40.0686
 6.59525  40.108
 6.61825  40.1694
 6.64125  40.2432
 6.66425  40.4693
 6.68725  40.7212
 6.71025  40.9432
 6.73325  41.0868
 6.75625  41.1699
 6.77925  41.2823
 6.80225  41.5682
 6.82525  41.7844
 6.84825  41.9593
 6.87125  42.1167
 6.89425  42.2172
 6.91725  42.364
 6.94025  42.4114
 6.96325  42.5257
 6.98625  42.7137
 7.00925  42.7311
 7.03225  42.9454
 7.05525  43.2892
 7.07825  43.3939
 7.10125  43.4197
 7.12425  43.4579
 7.14725  43.528
 7.17025  43.6846
 7.19325  43.753
 7.21625  43.9437
 7.23925  44.1776
 7.26225  44.1874
 7.28525  44.1882
 7.30825  44.2134
 7.33125  44.543
 7.35425  44.8293
 7.37725  44.8919
 7.40025  44.814
 7.42325  44.8436
 7.44625  44.7514
 7.46925  44.7437
 7.49225  44.983
 7.51525  45.0757
 7.53825  45.103
 7.56125  45.0459
 7.58425  45.0921
 7.60725  45.002
 7.63025  44.9323
 7.65325  44.8493
 7.67625  44.8507
 7.69925  44.8405
 7.72225  44.9212
 7.74525  44.8538
 7.76825  44.7896
 7.79125  44.8393
 7.81425  44.7885
 7.83725  44.8144
 7.86025  44.9004
 7.88325  44.8956
 7.90625  44.675
 7.92925  44.6804
 7.95225  44.6272
 7.97525  44.4077
 7.99825  44.2864
 8.02125  44.2205
 8.04425  44.1447
 8.06725  43.966
 8.09025  43.7329
 8.11325  43.7816
 8.13625  43.6401
 8.15925  43.5769
 8.18225  43.2758
 8.20525  42.959
 8.22825  42.6666
 8.25125  42.3277
 8.27425  42.1097
 8.29725  42.0662
 8.32025  41.7948
 8.34325  41.2261
 8.36625  40.881
 8.38925  40.5942
 8.41225  40.212
 8.43525  39.7778
 8.45825  39.4118
 8.48125  38.9533
 8.50425  38.5459
 8.52725  38.3251
 8.55025  38.2057
 8.57325  37.8469
 8.59625  37.3765
 8.61925  37.0275
 8.64225  36.7536
 8.66525  36.3727
 8.68825  36.0391
 8.71125  35.8242
 8.73425  35.3635
 8.75725  34.9167
 8.78025  34.6059
 8.80325  34.175
 8.82625  33.7408
 8.84925  33.5493
 8.87225  33.3789
 8.89525  32.9772
 8.91825  32.7829
 8.94125  32.5377
 8.96425  32.1836
 8.98725  31.7589
 9.01025  31.3812
 9.03325  31.0475
 9.05625  30.8413
 9.07925  30.725
 9.10225  30.4784
 9.12525  30.1324
 9.14825  29.8473
 9.17125  29.6109
 9.19425  29.4151
 9.21725  29.2765
 9.24025  29.2011
 9.26325  29.012
 9.28625  28.7845
 9.30925  28.4706
 9.33225  28.2163
 9.35525  27.9966
 9.37825  27.9368
 9.40125  27.9008
 9.42425  27.7137
 9.44725  27.5113
 9.47025  27.2318
 9.49325  27.1347
 9.51625  27.1398
 9.53925  26.9571
 9.56225  26.7822
 9.58525  26.6078
 9.60825  26.4659
 9.63125  26.4581
 9.65425  26.2628
 9.67725  26.0569
 9.70025  25.8698
 9.72325  25.9209
 9.74625  25.9228
 9.76925  25.808
 9.79225  25.6546
 9.81525  25.6015
 9.83825  25.4593
 9.86125  25.386
 9.88425  25.3252
 9.90725  25.2966
 9.93025  25.2666
 9.95325  25.1316
 9.97625  25.191
 9.99925  25.1291
 10.0222  25.0045
 10.0453  24.8955
 10.0683  24.7831
 10.0913  24.6727
 10.1143  24.55
 10.1373  24.4774
 10.1603  24.4389
 10.1832  24.3452
 10.2063  24.2262
 10.2293  24.1539
 10.2523  24.1062
 10.2752  24.1211
 10.2982  24.0892
 10.3213  24.0223
 10.3443  23.9577
 10.3673  23.8673
 10.3902  23.9699
 10.4133  24.0583
 10.4363  23.964
 10.4593  23.8683
 10.4823  23.7884
 10.5053  23.7184
 10.5283  23.7842
 10.5512  23.8217
 10.5742  23.7429
 10.5973  23.6233
 10.6203  23.5782
 10.6433  23.6328
 10.6662  23.6373
 10.6893  23.5492
 10.7123  23.5174
 10.7353  23.4759
 10.7583  23.2949
 10.7813  23.2318
 10.8043  23.263
 10.8272  23.1803
 10.8503  23.1678
 10.8733  23.169
 10.8963  23.0345
 10.9192  22.9517
 10.9422  22.9068
 10.9653  22.9541
 10.9883  22.9884
 11.0113  22.9529
 11.0343  22.8356
 11.0573  22.8554
 11.0803  22.9921
 11.1033  23.0429
 11.1263  22.9904
 11.1493  22.9955
 11.1723  22.9314
 11.1953  22.9211
 11.2182  22.8749
 11.2413  22.817
 11.2643  22.8351
 11.2873  22.854
 11.3102  22.838
 11.3333  22.7986
 11.3563  22.7894
 11.3793  22.9021
 11.4023  23.1203
 11.4253  23.1528
 11.4483  23.1821
 11.4713  23.051
 11.4942  23.0898
 11.5173  23.2539
 11.5403  23.6445
 11.5633  24.3228
 11.5862  25.203
 11.6093  25.3166
 11.6323  24.4455
 11.6553  23.547
 11.6783  23.1049
 11.7013  22.8602
 11.7243  22.7987
 11.7473  22.8537
 11.7703  22.7893
 11.7933  22.7469
 11.8163  22.7054
 11.8393  22.7951
 11.8622  22.795
 11.8853  22.8021
 11.9083  22.8268
 11.9313  22.8697
 11.9543  22.9717
 11.9773  23.0574
 12.0003  23.129
 12.0233  23.2167
 12.0463  23.3814
 12.0693  23.5586
 12.0923  24.0067
 12.1153  24.2071
 12.1382  23.8311
 12.1613  23.3223
 12.1843  22.9833
 12.2073  22.8623
 12.2302  22.8739
 12.2533  22.9218
 12.2763  22.889
 12.2993  22.969
 12.3223  22.951
 12.3453  22.9099
 12.3683  22.855
 12.3913  22.8601
 12.4142  22.8551
 12.4373  22.9441
 12.4603  23.01
 12.4833  23.1133
 12.5062  23.0454
 12.5292  22.962
 12.5523  22.9333
 12.5753  22.9619
 12.5983  23.0278
 12.6212  23.0273
 12.6443  23.0488
 12.6673  23.064
 12.6903  23.1946
 12.7133  23.4908
 12.7363  23.5369
 12.7593  23.5052
 12.7822  23.5799
 12.8052  23.5389
 12.8283  23.6189
 12.8513  23.6648
 12.8742  23.8007
 12.8972  23.907
 12.9203  23.9818
 12.9433  24.073
 12.9663  24.2419
 12.9893  24.381
 13.0123  24.5471
 13.0353  24.7953
 13.0582  24.9103
 13.0813  24.962
 13.1043  25.0507
 13.1273  25.2036
 13.1502  25.3367
 13.1732  25.6535
 13.1963  25.9874
 13.2193  26.3261
 13.2423  26.7254
 13.2652  26.986
 13.2883  27.2679
 13.3113  27.4183
 13.3343  27.7816
 13.3573  28.1577
 13.3803  28.3792
 13.4033  28.5857
 13.4262  28.8337
 13.4492  29.0615
 13.4723  29.3028
 13.4953  29.4956
 13.5183  29.7761
 13.5412  29.9556
 13.5643  30.0362
 13.5873  30.1184
 13.6103  30.0013
 13.6333  30.0304
 13.6563  30.1072
 13.6793  30.2231
 13.7022  30.053
 13.7253  29.9145
 13.7483  29.8712
 13.7713  29.8047
 13.7942  29.6954
 13.8172  29.6015
 13.8403  29.5154
 13.8633  29.5407
 13.8863  29.8963
 13.9093  30.6181
 13.9323  31.9543
 13.9553  32.6181
 13.9783  31.8107
 14.0013  30.1628
 14.0243  28.9559
 14.0473  28.3026
 14.0703  27.9859
 14.0932  27.7857
 14.1163  27.5828
 14.1393  27.4762
 14.1623  27.3463
 14.1852  27.1759
 14.2083  27.0749
 14.2313  26.9401
 14.2543  26.8597
 14.2773  26.7946
 14.3003  26.6895
 14.3233  26.5689
 14.3463  26.4776
 14.3692  26.3973
 14.3923  26.4039
 14.4153  26.2878
 14.4383  26.1669
 14.4612  26.1469
 14.4843  26.0881
 14.5073  25.9899
 14.5303  25.9778
 14.5533  25.8139
 14.5763  25.7697
 14.5993  25.6888
 14.6223  25.651
 14.6453  25.5159
 14.6683  25.4538
 14.6913  25.53
 14.7143  25.6576
 14.7372  25.5592
 14.7603  25.4795
 14.7833  25.4374
 14.8063  25.4105
 14.8293  25.3614
 14.8523  25.4283
 14.8753  25.3698
 14.8983  25.4231
 14.9213  25.4685
 14.9443  25.3866
 14.9673  25.3579
 14.9903  25.331
 15.0132  25.3892
 15.0363  25.2648
 15.0593  25.1667
 15.0823  25.0703
 15.1052  25.0511
 15.1283  25.1011
 15.1513  25.3444
 15.1743  25.6195
 15.1973  25.7729
 15.2203  25.7754
 15.2433  25.4356
 15.2663  25.1556
 15.2892  24.94
 15.3123  24.7953
 15.3353  24.7553
 15.3583  24.6977
 15.3812  24.7233
 15.4043  24.8222
 15.4273  24.8777
 15.4503  24.8949
 15.4733  24.8473
 15.4963  24.8292
 15.5193  24.8571
 15.5423  24.766
 15.5653  24.8138
 15.5883  24.8538
 15.6113  24.7752
 15.6343  24.6467
 15.6572  24.7806
 15.6803  24.9021
 15.7033  24.9595
 15.7263  24.9922
 15.7492  24.9289
 15.7723  24.9124
 15.7953  24.8635
 15.8183  24.8173
 15.8413  24.7966
 15.8643  24.7406
 15.8873  24.78
 15.9103  24.867
 15.9332  24.9823
 15.9563  24.9643
 15.9793  25.0342
 16.0023  24.9871
 16.0253  24.9446
 16.0482  25.0085
 16.0713  25.046
 16.0943  25.1534
 16.1172  25.2391
 16.1403  25.1408
 16.1633  25.1893
 16.1863  25.576
 16.2093  26.2449
 16.2323  26.585
 16.2553  26.8573
 16.2783  26.611
 16.3012  25.7968
 16.3243  25.3593
 16.3472  25.1251
 16.3703  24.9563
 16.3933  24.9497
 16.4163  24.9336
 16.4393  24.9488
 16.4623  24.8828
 16.4853  24.8984
 16.5083  24.9931
 16.5312  25.0031
 16.5543  24.9771
 16.5773  24.9482
 16.6002  24.9456
 16.6233  24.8681
 16.6463  24.8473
 16.6693  24.8777
 16.6923  24.8751
 16.7153  24.8699
 16.7383  24.8448
 16.7613  24.9007
 16.7843  24.8611
 16.8073  24.8186
 16.8303  24.6844
 16.8533  24.5958
 16.8763  24.7032
 16.8992  24.714
 16.9223  24.7097
 16.9453  24.6866
 16.9683  24.6111
 16.9913  24.5686
 17.0143  24.5388
 17.0373  24.5334
 17.0603  24.4031
 17.0832  24.4114
 17.1063  24.4306
 17.1293  24.5666
 17.1522  24.9436
 17.1753  25.1005
 17.1983  24.5874
 17.2213  24.6465
 17.2443  24.5589
 17.2673  24.4426
 17.2903  24.4759
 17.3133  24.3984
 17.3362  24.3093
 17.3593  24.1932
 17.3823  24.2126
 17.4053  24.2725
 17.4283  24.3138
 17.4513  24.3574
 17.4743  24.3456
 17.4973  24.3184
 17.5203  24.2028
 17.5433  24.1912
 17.5663  24.1956
 17.5893  24.053
 17.6123  24.0697
 17.6352  24.0331
 17.6583  23.9633
 17.6813  23.9736
 17.7042  23.9949
 17.7273  23.941
 17.7503  23.9498
 17.7733  23.9557
 17.7963  24.0144
 17.8193  23.9634
 17.8423  23.94
 17.8653  23.9612
 17.8882  24.0178
 17.9113  24.0817
 17.9343  24.0738
 17.9573  24.042
 17.9803  23.9919
 18.0033  24.0998
 18.0263  24.2184
 18.0493  24.4787
 18.0723  24.8808
 18.0953  25.2755
 18.1183  25.2862
 18.1413  24.8185
 18.1643  24.3174
 18.1872  24.0081
 18.2103  23.966
 18.2333  23.8739
 18.2563  23.7968
 18.2793  23.7122
 18.3023  23.8389
 18.3253  23.9147
 18.3483  23.9673
 18.3712  23.9472
 18.3943  23.9452
 18.4173  23.9714
 18.4402  23.964
 18.4633  23.9259
 18.4863  23.8153
 18.5093  23.7422
 18.5323  23.7306
 18.5553  24.0664
 18.5783  24.2775
 18.6013  24.0652
 18.6242  23.8646
 18.6473  23.8386
 18.6703  23.9323
 18.6933  24.1558
 18.7163  24.0866
 18.7392  24.0121
 18.7623  23.8555
 18.7853  23.8443
 18.8083  23.8121
 18.8313  23.8349
 18.8543  23.7548
 18.8773  23.601
 18.9003  23.6813
 18.9232  23.7738
 18.9463  23.8495
 18.9693  23.7657
 18.9922  23.705
 19.0153  23.7412
 19.0383  23.8466
 19.0613  23.8442
 19.0843  23.8459
 19.1073  23.7718
 19.1303  23.7093
 19.1533  23.7249
 19.1762  23.7329
 19.1993  23.7841
 19.2223  23.7876
 19.2453  23.7455
 19.2683  23.7634
 19.2913  23.7532
 19.3143  23.8267
 19.3373  23.7796
 19.3603  23.8459
 19.3833  23.91
 19.4062  23.8645
 19.4293  23.8923
 19.4523  23.9203
 19.4752  23.9138
 19.4983  23.8703
 19.5213  23.9125
 19.5443  23.9476
 19.5673  23.9743
 19.5903  23.9522
 19.6133  23.905
 19.6363  24.0837
 19.6593  24.3448
 19.6823  24.6774
 19.7053  25.0572
 19.7283  25.1544
 19.7513  24.8644
 19.7742  24.6232
 19.7973  24.6953
 19.8203  24.883
 19.8433  25.1482
 19.8663  25.3293
 19.8893  25.0952
 19.9123  24.6795
 19.9353  24.3057
 19.9582  24.136
 19.9813  24.0905
 20.0043  24.0431
 20.0272  24.0359
 20.0503  24.0492
 20.0733  23.9525
 20.0963  23.9803
 20.1193  23.9694
 20.1423  23.9628
 20.1653  23.9478
 20.1883  23.9424
 20.2112  24.0332
 20.2343  24.0535
 20.2573  24.0749
 20.2803  23.9854
 20.3033  23.9183
 20.3263  23.9628
 20.3493  23.9399
 20.3723  23.9553
 20.3953  24.0261
 20.4183  24.0959
 20.4413  24.0756
 20.4643  23.9739
 20.4873  23.9523
 20.5102  23.9148
 20.5333  23.8397
 20.5563  23.9752
 20.5792  24.0489
 20.6023  23.9885
 20.6253  24.0351
 20.6483  24.0915
 20.6713  24.1359
 20.6943  24.3127
 20.7173  24.6493
 20.7403  24.886
 20.7632  24.9503
 20.7863  24.7971
 20.8093  24.5327
 20.8323  24.2924
 20.8553  24.2149
 20.8783  24.123
 20.9013  24.1332
 20.9243  24.2124
 20.9473  24.192
 20.9703  24.1653
 20.9933  24.168
 21.0163  24.119
 21.0393  24.0842
 21.0622  24.0734
 21.0853  24.0955
 21.1083  24.104
 21.1313  24.1461
 21.1543  24.0355
 21.1773  24.0653
 21.2003  24.1089
 21.2233  24.1226
 21.2462  24.1343
 21.2693  24.1643
 21.2923  24.1769
 21.3152  24.2038
 21.3383  24.2049
 21.3613  24.2877
 21.3843  24.2783
 21.4073  24.238
 21.4303  24.2042
 21.4533  24.1858
 21.4763  24.1099
 21.4992  24.1714
 21.5223  24.2542
 21.5453  24.2602
 21.5683  24.2154
 21.5913  24.3195
 21.6142  24.3696
 21.6373  24.3648
 21.6603  24.3502
 21.6833  24.3837
 21.7063  24.3611
 21.7293  24.3202
 21.7523  24.3613
 21.7753  24.3161
 21.7982  24.3156
 21.8213  24.3906
 21.8443  24.3186
 21.8672  24.4058
 21.8903  24.5259
 21.9133  24.5423
 21.9363  24.4482
 21.9593  24.4376
 21.9823  24.5275
 22.0053  24.5496
 22.0283  24.5567
 22.0512  24.5291
 22.0743  24.6259
 22.0973  24.6659
 22.1203  24.6359
 22.1433  24.6886
 22.1663  24.6851
 22.1893  24.6518
 22.2123  24.6344
 22.2353  24.6734
 22.2583  24.7574
 22.2813  24.8189
 22.3043  24.8426
 22.3273  24.831
 22.3502  24.8508
 22.3733  24.8876
 22.3963  24.8225
 22.4193  24.6861
 22.4423  24.8024
 22.4653  24.9823
 22.4883  24.9594
 22.5113  25.0183
 22.5343  25.1041
 22.5573  25.1307
 22.5803  25.0722
 22.6033  25.1171
 22.6263  25.171
 22.6493  25.0756
 22.6723  25.1031
 22.6953  25.2249
 22.7183  25.3045
 22.7413  25.4024
 22.7643  25.4879
 22.7873  25.4838
 22.8103  25.5925
 22.8333  25.7067
 22.8563  25.7775
 22.8793  25.8518
 22.9022  25.9649
 22.9253  26.1176
 22.9483  26.2581
 22.9713  26.4107
 22.9943  26.5632