File: test-data-xrd/xrd-map-34-ID-E/Data_0054.chi
F:\20151113_APS_34IDE\\Brian\Particle1\OCV\Data_0054.tif
2-Theta Angle (Degrees)
Intensity
       2000
 0.01725  0.0000000E+00
 0.04025  0.0000000E+00
 0.06325  0.0000000E+00
 0.08625  0.0000000E+00
 0.10925  0.0000000E+00
 0.13225  0.0000000E+00
 0.15525  0.0000000E+00
 0.17825  0.0000000E+00
 0.20125  0.0000000E+00
 0.22425  0.0000000E+00
 0.24725  0.0000000E+00
 0.27025  0.0000000E+00
 0.29325  0.0000000E+00
 0.31625  0.0000000E+00
 0.33925  0.0000000E+00
 0.36225  0.0000000E+00
 0.38525  0.0000000E+00
 0.40825  0.0000000E+00
 0.43125  0.0000000E+00
 0.45425  0.0000000E+00
 0.47725  0.0000000E+00
 0.50025  0.0000000E+00
 0.52325  0.0000000E+00
 0.54625  0.0000000E+00
 0.56925  0.0000000E+00
 0.59225  0.0000000E+00
 0.61525  0.0000000E+00
 0.63825  0.0000000E+00
 0.66125  0.0000000E+00
 0.68425  0.0000000E+00
 0.70725  0.0000000E+00
 0.73025  0.0000000E+00
 0.75325  0.0000000E+00
 0.77625  0.0000000E+00
 0.79925  0.0000000E+00
 0.82225  0.0000000E+00
 0.84525  0.0000000E+00
 0.86825  0.0000000E+00
 0.89125  0.0000000E+00
 0.91425  0.0000000E+00
 0.93725  0.0000000E+00
 0.96025  0.0000000E+00
 0.98325  0.0000000E+00
 1.00625  0.0000000E+00
 1.02925  0.0000000E+00
 1.05225  0.0000000E+00
 1.07525  0.0000000E+00
 1.09825  0.0000000E+00
 1.12125  0.0000000E+00
 1.14425  0.0000000E+00
 1.16725  0.0000000E+00
 1.19025  0.0000000E+00
 1.21325  0.0000000E+00
 1.23625  0.0000000E+00
 1.25925  0.0000000E+00
 1.28225  0.0000000E+00
 1.30525  0.0000000E+00
 1.32825  0.0000000E+00
 1.35125  0.0000000E+00
 1.37425  0.0000000E+00
 1.39725  0.0000000E+00
 1.42025  0.0000000E+00
 1.44325  0.0000000E+00
 1.46625  0.0000000E+00
 1.48925  0.0000000E+00
 1.51225  0.0000000E+00
 1.53525  0.0000000E+00
 1.55825  0.0000000E+00
 1.58125  0.0000000E+00
 1.60425  0.0000000E+00
 1.62725  0.0000000E+00
 1.65025  0.0000000E+00
 1.67325  0.0000000E+00
 1.69625  0.0000000E+00
 1.71925  0.0000000E+00
 1.74225  0.0000000E+00
 1.76525  0.0000000E+00
 1.78825  0.0000000E+00
 1.81125  0.0000000E+00
 1.83425  0.0000000E+00
 1.85725  0.0000000E+00
 1.88025  0.0000000E+00
 1.90325  0.0000000E+00
 1.92625  0.0000000E+00
 1.94925  0.0000000E+00
 1.97225  0.0000000E+00
 1.99525  0.0000000E+00
 2.01825  0.0000000E+00
 2.04125  0.0000000E+00
 2.06425  0.0000000E+00
 2.08725  0.0000000E+00
 2.11025  0.0000000E+00
 2.13325  0.0000000E+00
 2.15625  0.0000000E+00
 2.17925  0.0000000E+00
 2.20225  0.0000000E+00
 2.22525  0.0000000E+00
 2.24825  0.0000000E+00
 2.27125  0.0000000E+00
 2.29425  0.0000000E+00
 2.31725  0.0000000E+00
 2.34025  0.0000000E+00
 2.36325  0.0000000E+00
 2.38625  0.0000000E+00
 2.40925  0.0000000E+00
 2.43225  0.0000000E+00
 2.45525  0.0000000E+00
 2.47825  0.0000000E+00
 2.50125  0.0000000E+00
 2.52425  0.0000000E+00
 2.54725  0.0000000E+00
 2.57025  0.0000000E+00
 2.59325  0.0000000E+00
 2.61625  0.0000000E+00
 2.63925  0.0000000E+00
 2.66225  0.0000000E+00
 2.68525  0.0000000E+00
 2.70825  0.0000000E+00
 2.73125  0.0000000E+00
 2.75425  0.0000000E+00
 2.77725  0.0000000E+00
 2.80025  0.0000000E+00
 2.82325  33.9644
 2.84625  33.978
 2.86925  34.6074
 2.89225  34.5801
 2.91525  34.8332
 2.93825  35.1447
 2.96125  35.0763
 2.98425  34.9292
 3.00725  34.9805
 3.03025  35.1077
 3.05325  35.4583
 3.07625  35.9478
 3.09925  36.2331
 3.12225  35.8885
 3.14525  36.2699
 3.16825  36.4661
 3.19125  36.1252
 3.21425  35.9045
 3.23725  35.3281
 3.26025  34.7797
 3.28325  34.7566
 3.30625  34.8216
 3.32925  34.3765
 3.35225  34.249
 3.37525  34.9231
 3.39825  34.9388
 3.42125  34.4969
 3.44425  34.6425
 3.46725  34.4554
 3.49025  34.5831
 3.51325  34.5902
 3.53625  34.4411
 3.55925  34.6543
 3.58225  34.2825
 3.60525  33.9067
 3.62825  33.5929
 3.65125  33.8306
 3.67425  34.0271
 3.69725  33.9652
 3.72025  33.8179
 3.74325  33.5637
 3.76625  33.3036
 3.78925  33.0039
 3.81225  33.0908
 3.83525  32.814
 3.85825  32.4813
 3.88125  32.505
 3.90425  32.5545
 3.92725  32.8062
 3.95025  33.0879
 3.97325  33.0513
 3.99625  33.259
 4.01925  33.291
 4.04225  33.303
 4.06525  33.1836
 4.08825  32.8287
 4.11125  32.8898
 4.13425  33.1131
 4.15725  32.9619
 4.18025  32.4185
 4.20325  32.5058
 4.22625  32.7961
 4.24925  32.8899
 4.27225  32.6657
 4.29525  32.391
 4.31825  32.6585
 4.34125  32.4834
 4.36425  32.365
 4.38725  32.3517
 4.41025  32.576
 4.43325  32.8376
 4.45625  32.9208
 4.47925  32.7493
 4.50225  32.5678
 4.52525  32.4353
 4.54825  32.4496
 4.57125  32.8319
 4.59425  32.8485
 4.61725  32.9438
 4.64025  33.1574
 4.66325  33.3586
 4.68625  33.2923
 4.70925  33.2544
 4.73225  33.3711
 4.75525  33.0476
 4.77825  32.7799
 4.80125  32.5242
 4.82425  32.6086
 4.84725  32.8627
 4.87025  33.2346
 4.89325  33.3803
 4.91625  33.3698
 4.93925  33.299
 4.96225  33.2794
 4.98525  33.4294
 5.00825  33.4535
 5.03125  33.5752
 5.05425  33.6075
 5.07725  33.7876
 5.10025  33.9336
 5.12325  33.9089
 5.14625  34.0139
 5.16925  34.2242
 5.19225  34.3918
 5.21525  34.2767
 5.23825  34.1769
 5.26125  34.1522
 5.28425  34.3221
 5.30725  34.4179
 5.33025  34.5364
 5.35325  34.4962
 5.37625  34.6586
 5.39925  34.6697
 5.42225  34.6197
 5.44525  34.6106
 5.46825  34.7779
 5.49125  34.8922
 5.51425  35.0106
 5.53725  35.2518
 5.56025  35.3069
 5.58325  35.2802
 5.60625  35.308
 5.62925  35.2058
 5.65225  35.2254
 5.67525  35.3635
 5.69825  35.2006
 5.72125  35.2063
 5.74425  35.3104
 5.76725  35.5386
 5.79025  35.6976
 5.81325  35.7017
 5.83625  35.7216
 5.85925  35.7022
 5.88225  35.9262
 5.90525  36.3965
 5.92825  36.9228
 5.95125  38.3345
 5.97425  39.9667
 5.99725  40.0372
 6.02025  38.4335
 6.04325  37.1962
 6.06625  36.9014
 6.08925  36.8205
 6.11225  36.8323
 6.13525  36.8378
 6.15825  36.8502
 6.18125  37.0887
 6.20425  37.2996
 6.22725  37.3454
 6.25025  37.3961
 6.27325  37.4729
 6.29625  37.7514
 6.31925  37.9128
 6.34225  37.9551
 6.36525  38.0044
 6.38825  38.1865
 6.41125  38.4277
 6.43425  38.6148
 6.45725  38.8294
 6.48025  39.0258
 6.50325  39.2931
 6.52625  39.5878
 6.54925  39.767
 6.57225  39.8
 6.59525  39.816
 6.61825  40.0242
 6.64125  40.1673
 6.66425  40.2694
 6.68725  40.5166
 6.71025  40.7026
 6.73325  41.094
 6.75625  41.2184
 6.77925  41.264
 6.80225  41.3634
 6.82525  41.5225
 6.84825  41.6297
 6.87125  41.8043
 6.89425  42.0533
 6.91725  42.1482
 6.94025  42.3019
 6.96325  42.3471
 6.98625  42.395
 7.00925  42.5107
 7.03225  42.8474
 7.05525  43.0155
 7.07825  42.9884
 7.10125  43.2544
 7.12425  43.4672
 7.14725  43.2107
 7.17025  43.4671
 7.19325  43.7973
 7.21625  43.8216
 7.23925  43.7396
 7.26225  43.658
 7.28525  43.7563
 7.30825  43.9022
 7.33125  44.0246
 7.35425  44.0106
 7.37725  43.8682
 7.40025  44.0133
 7.42325  44.442
 7.44625  44.3822
 7.46925  44.2613
 7.49225  44.3253
 7.51525  44.3383
 7.53825  44.3857
 7.56125  44.3026
 7.58425  44.3673
 7.60725  44.4354
 7.63025  44.6129
 7.65325  44.6358
 7.67625  44.5673
 7.69925  44.3547
 7.72225  44.3436
 7.74525  44.4948
 7.76825  44.4862
 7.79125  44.2787
 7.81425  44.2367
 7.83725  44.3994
 7.86025  44.5511
 7.88325  44.5661
 7.90625  44.3925
 7.92925  44.2733
 7.95225  44.0449
 7.97525  43.661
 7.99825  43.4914
 8.02125  43.4873
 8.04425  43.6382
 8.06725  43.4517
 8.09025  43.1992
 8.11325  42.9537
 8.13625  42.6802
 8.15925  42.4418
 8.18225  42.2712
 8.20525  41.9834
 8.22825  41.8403
 8.25125  41.64
 8.27425  41.2521
 8.29725  40.7859
 8.32025  40.4706
 8.34325  40.2713
 8.36625  40.0686
 8.38925  39.8382
 8.41225  39.6033
 8.43525  39.1932
 8.45825  38.7767
 8.48125  38.4176
 8.50425  38.2284
 8.52725  38.041
 8.55025  38.0511
 8.57325  38.1834
 8.59625  37.4919
 8.61925  36.6326
 8.64225  36.168
 8.66525  35.6876
 8.68825  35.3428
 8.71125  34.9758
 8.73425  34.444
 8.75725  34.0572
 8.78025  33.7389
 8.80325  33.5383
 8.82625  33.2608
 8.84925  32.9242
 8.87225  32.6083
 8.89525  32.2734
 8.91825  32.024
 8.94125  31.7769
 8.96425  31.3882
 8.98725  31.0769
 9.01025  30.7298
 9.03325  30.4131
 9.05625  30.1122
 9.07925  30.0349
 9.10225  29.7329
 9.12525  29.3096
 9.14825  29.1249
 9.17125  29.1014
 9.19425  28.8531
 9.21725  28.5267
 9.24025  28.2482
 9.26325  28.1108
 9.28625  27.9531
 9.30925  27.6666
 9.33225  27.4609
 9.35525  27.2625
 9.37825  27.1868
 9.40125  27.1108
 9.42425  26.8579
 9.44725  26.7011
 9.47025  26.6051
 9.49325  26.4919
 9.51625  26.3039
 9.53925  26.1455
 9.56225  25.9181
 9.58525  25.677
 9.60825  25.5948
 9.63125  25.5405
 9.65425  25.5154
 9.67725  25.3247
 9.70025  25.3104
 9.72325  25.3237
 9.74625  25.1669
 9.76925  25.0624
 9.79225  24.8923
 9.81525  24.8416
 9.83825  24.7473
 9.86125  24.7044
 9.88425  24.7499
 9.90725  24.7287
 9.93025  24.7058
 9.95325  24.504
 9.97625  24.3986
 9.99925  24.336
 10.0222  24.1509
 10.0453  24.102
 10.0683  24.0414
 10.0913  24.0345
 10.1143  23.9581
 10.1373  23.9922
 10.1603  24.0349
 10.1832  23.9339
 10.2063  23.6868
 10.2293  23.6083
 10.2523  23.6383
 10.2752  23.598
 10.2982  23.3785
 10.3213  23.2275
 10.3443  23.2174
 10.3673  23.1857
 10.3902  23.3284
 10.4133  23.4226
 10.4363  23.2676
 10.4593  23.1359
 10.4823  23.1308
 10.5053  23.1676
 10.5283  23.0529
 10.5512  22.9362
 10.5742  23.0276
 10.5973  23.0014
 10.6203  22.9788
 10.6433  22.9325
 10.6662  22.9418
 10.6893  22.9098
 10.7123  22.8779
 10.7353  22.9046
 10.7583  22.8562
 10.7813  22.8719
 10.8043  22.7412
 10.8272  22.6712
 10.8503  22.6844
 10.8733  22.7382
 10.8963  22.6303
 10.9192  22.6076
 10.9422  22.693
 10.9653  22.5773
 10.9883  22.503
 11.0113  22.4208
 11.0343  22.4039
 11.0573  22.397
 11.0803  22.3586
 11.1033  22.3721
 11.1263  22.4133
 11.1493  22.5236
 11.1723  22.5043
 11.1953  22.3749
 11.2182  22.3582
 11.2413  22.3325
 11.2643  22.328
 11.2873  22.363
 11.3102  22.321
 11.3333  22.3695
 11.3563  22.4235
 11.3793  22.4881
 11.4023  22.5317
 11.4253  22.6012
 11.4483  22.6206
 11.4713  22.5652
 11.4942  22.488
 11.5173  22.5966
 11.5403  23.0603
 11.5633  23.8029
 11.5862  24.2822
 11.6093  24.1853
 11.6323  23.799
 11.6553  23.0738
 11.6783  22.6602
 11.7013  22.439
 11.7243  22.345
 11.7473  22.3421
 11.7703  22.3506
 11.7933  22.3305
 11.8163  22.2993
 11.8393  22.3232
 11.8622  22.2753
 11.8853  22.282
 11.9083  22.2991
 11.9313  22.4259
 11.9543  22.4893
 11.9773  22.5571
 12.0003  22.595
 12.0233  22.6179
 12.0463  22.6924
 12.0693  22.7543
 12.0923  22.8933
 12.1153  22.9854
 12.1382  22.8039
 12.1613  22.609
 12.1843  22.5275
 12.2073  22.4891
 12.2302  22.4703
 12.2533  22.3393
 12.2763  22.3984
 12.2993  22.5129
 12.3223  22.498
 12.3453  22.3635
 12.3683  22.3609
 12.3913  22.4836
 12.4142  22.4413
 12.4373  22.4867
 12.4603  22.5446
 12.4833  22.5715
 12.5062  22.5526
 12.5292  22.4396
 12.5523  22.4443
 12.5753  22.5614
 12.5983  22.7128
 12.6212  22.7628
 12.6443  22.7434
 12.6673  22.8502
 12.6903  22.9
 12.7133  22.9555
 12.7363  22.8933
 12.7593  22.8817
 12.7822  23.0073
 12.8052  23.0724
 12.8283  23.207
 12.8513  23.2893
 12.8742  23.3983
 12.8972  23.4211
 12.9203  23.5745
 12.9433  23.7566
 12.9663  23.8003
 12.9893  23.9102
 13.0123  23.9069
 13.0353  23.9521
 13.0582  24.1589
 13.0813  24.4375
 13.1043  24.7426
 13.1273  25.0401
 13.1502  25.1072
 13.1732  25.2508
 13.1963  25.4639
 13.2193  25.8507
 13.2423  26.3033
 13.2652  26.5078
 13.2883  26.7811
 13.3113  27.072
 13.3343  27.3587
 13.3573  27.6194
 13.3803  27.915
 13.4033  28.1978
 13.4262  28.434
 13.4492  28.6611
 13.4723  28.9224
 13.4953  29.1625
 13.5183  29.431
 13.5412  29.7043
 13.5643  29.6494
 13.5873  29.586
 13.6103  29.5916
 13.6333  29.6344
 13.6563  29.6074
 13.6793  29.6013
 13.7022  29.4384
 13.7253  29.2776
 13.7483  29.2345
 13.7713  29.1957
 13.7942  29.1356
 13.8172  28.9562
 13.8403  28.8638
 13.8633  28.8773
 13.8863  28.9662
 13.9093  29.4152
 13.9323  29.942
 13.9553  30.0704
 13.9783  29.6862
 14.0013  28.851
 14.0243  28.1407
 14.0473  27.7057
 14.0703  27.5495
 14.0932  27.396
 14.1163  27.258
 14.1393  27.0882
 14.1623  26.908
 14.1852  26.7043
 14.2083  26.6115
 14.2313  26.4297
 14.2543  26.2804
 14.2773  26.1757
 14.3003  26.0726
 14.3233  25.9994
 14.3463  26.0253
 14.3692  26.012
 14.3923  25.9615
 14.4153  25.8831
 14.4383  25.7439
 14.4612  25.6288
 14.4843  25.5319
 14.5073  25.5115
 14.5303  25.4373
 14.5533  25.4478
 14.5763  25.4783
 14.5993  25.4352
 14.6223  25.3832
 14.6453  25.3251
 14.6683  25.1992
 14.6913  25.1632
 14.7143  25.0775
 14.7372  25.0416
 14.7603  24.9161
 14.7833  24.8827
 14.8063  24.9341
 14.8293  24.815
 14.8523  24.6779
 14.8753  24.6786
 14.8983  24.7621
 14.9213  24.7524
 14.9443  24.7484
 14.9673  24.7343
 14.9903  24.7396
 15.0132  24.748
 15.0363  24.7053
 15.0593  24.6568
 15.0823  24.6525
 15.1052  24.6526
 15.1283  24.6605
 15.1513  24.8708
 15.1743  25.193
 15.1973  25.2362
 15.2203  25.1989
 15.2433  24.9509
 15.2663  24.6347
 15.2892  24.4357
 15.3123  24.4131
 15.3353  24.4556
 15.3583  24.4145
 15.3812  24.4165
 15.4043  24.5806
 15.4273  24.521
 15.4503  24.3998
 15.4733  24.3569
 15.4963  24.37
 15.5193  24.4334
 15.5423  24.4049
 15.5653  24.5301
 15.5883  24.4961
 15.6113  24.5343
 15.6343  24.5336
 15.6572  24.5127
 15.6803  24.4611
 15.7033  24.4412
 15.7263  24.4102
 15.7492  24.2983
 15.7723  24.3944
 15.7953  24.5471
 15.8183  24.5833
 15.8413  24.4957
 15.8643  24.4151
 15.8873  24.4609
 15.9103  24.4254
 15.9332  24.4235
 15.9563  24.4026
 15.9793  24.4856
 16.0023  24.5837
 16.0253  24.5785
 16.0482  24.5967
 16.0713  24.5688
 16.0943  24.5716
 16.1172  24.6993
 16.1403  24.6938
 16.1633  24.7942
 16.1863  24.8877
 16.2093  24.9161
 16.2323  24.9569
 16.2553  25.084
 16.2783  25.2005
 16.3012  25.0425
 16.3243  24.7569
 16.3472  24.5525
 16.3703  24.405
 16.3933  24.4104
 16.4163  24.5552
 16.4393  24.5682
 16.4623  24.4546
 16.4853  24.4017
 16.5083  24.463
 16.5312  24.4238
 16.5543  24.4859
 16.5773  24.5316
 16.6002  24.5607
 16.6233  24.5112
 16.6463  24.4113
 16.6693  24.3753
 16.6923  24.4048
 16.7153  24.4088
 16.7383  24.3953
 16.7613  24.4265
 16.7843  24.4169
 16.8073  24.3854
 16.8303  24.3175
 16.8533  24.2552
 16.8763  24.2376
 16.8992  24.203
 16.9223  24.1685
 16.9453  24.1672
 16.9683  24.1834
 16.9913  24.175
 17.0143  24.1114
 17.0373  24.0506
 17.0603  23.9053
 17.0832  23.8851
 17.1063  23.8807
 17.1293  23.8673
 17.1522  23.9538
 17.1753  24.0624
 17.1983  24.0695
 17.2213  24.0832
 17.2443  24.0154
 17.2673  23.9443
 17.2903  23.9971
 17.3133  24.07
 17.3362  24.0168
 17.3593  23.9988
 17.3823  23.9398
 17.4053  23.8518
 17.4283  23.8608
 17.4513  23.85
 17.4743  23.8466
 17.4973  23.8623
 17.5203  23.7095
 17.5433  23.7141
 17.5663  23.594
 17.5893  23.4372
 17.6123  23.4935
 17.6352  23.5569
 17.6583  23.5718
 17.6813  23.6301
 17.7042  23.7014
 17.7273  23.674
 17.7503  23.6026
 17.7733  23.663
 17.7963  23.6448
 17.8193  23.5641
 17.8423  23.4683
 17.8653  23.3302
 17.8882  23.3054
 17.9113  23.4275
 17.9343  23.5806
 17.9573  23.6387
 17.9803  23.617
 18.0033  23.7403
 18.0263  23.7502
 18.0493  23.6997
 18.0723  23.7153
 18.0953  23.7409
 18.1183  23.6821
 18.1413  23.6414
 18.1643  23.6324
 18.1872  23.5398
 18.2103  23.4585
 18.2333  23.3544
 18.2563  23.3399
 18.2793  23.3786
 18.3023  23.3839
 18.3253  23.3431
 18.3483  23.5108
 18.3712  23.4693
 18.3943  23.3977
 18.4173  23.323
 18.4402  23.2762
 18.4633  23.2617
 18.4863  23.2659
 18.5093  23.3606
 18.5323  23.4672
 18.5553  23.5242
 18.5783  23.6176
 18.6013  23.7177
 18.6242  23.6788
 18.6473  23.5544
 18.6703  23.3426
 18.6933  23.2676
 18.7163  23.3001
 18.7392  23.2678
 18.7623  23.2648
 18.7853  23.2646
 18.8083  23.3576
 18.8313  23.3216
 18.8543  23.2675
 18.8773  23.3644
 18.9003  23.3711
 18.9232  23.3295
 18.9463  23.3094
 18.9693  23.3095
 18.9922  23.3733
 19.0153  23.51
 19.0383  23.6261
 19.0613  23.6388
 19.0843  23.2843
 19.1073  23.246
 19.1303  23.3173
 19.1533  23.3636
 19.1762  23.28
 19.1993  23.3684
 19.2223  23.4112
 19.2453  23.3374
 19.2683  23.3933
 19.2913  23.3456
 19.3143  23.345
 19.3373  23.2967
 19.3603  23.3679
 19.3833  23.333
 19.4062  23.3411
 19.4293  23.3442
 19.4523  23.3727
 19.4752  23.3933
 19.4983  23.2782
 19.5213  23.3768
 19.5443  23.4183
 19.5673  23.2967
 19.5903  23.2782
 19.6133  23.4055
 19.6363  23.4643
 19.6593  23.6898
 19.6823  23.9674
 19.7053  24.1365
 19.7283  24.0645
 19.7513  23.9967
 19.7742  23.9327
 19.7973  23.8248
 19.8203  23.8495
 19.8433  24.0658
 19.8663  24.0431
 19.8893  23.9038
 19.9123  23.8209
 19.9353  23.6604
 19.9582  23.5356
 19.9813  23.5243
 20.0043  23.4901
 20.0272  23.4301
 20.0503  23.4873
 20.0733  23.4226
 20.0963  23.4886
 20.1193  23.4688
 20.1423  23.4315
 20.1653  23.4635
 20.1883  23.4526
 20.2112  23.4515
 20.2343  23.4766
 20.2573  23.4796
 20.2803  23.4353
 20.3033  23.2929
 20.3263  23.3256
 20.3493  23.4612
 20.3723  23.4918
 20.3953  23.4528
 20.4183  23.485
 20.4413  23.4451
 20.4643  23.3898
 20.4873  23.377
 20.5102  23.3974
 20.5333  23.3419
 20.5563  23.3931
 20.5792  23.5379
 20.6023  23.6408
 20.6253  23.6161
 20.6483  23.5636
 20.6713  23.5955
 20.6943  23.7825
 20.7173  23.8835
 20.7403  23.9328
 20.7632  24.0198
 20.7863  23.9788
 20.8093  23.9033
 20.8323  23.7111
 20.8553  23.6372
 20.8783  23.6132
 20.9013  23.6451
 20.9243  23.6939
 20.9473  23.6646
 20.9703  23.5196
 20.9933  23.5537
 21.0163  23.601
 21.0393  23.5893
 21.0622  23.5794
 21.0853  23.6189
 21.1083  23.5648
 21.1313  23.5352
 21.1543  23.5406
 21.1773  23.6439
 21.2003  23.7154
 21.2233  23.7419
 21.2462  23.7141
 21.2693  23.701
 21.2923  23.6973
 21.3152  23.6753
 21.3383  23.7577
 21.3613  23.7392
 21.3843  23.6622
 21.4073  23.6352
 21.4303  23.6583
 21.4533  23.6202
 21.4763  23.6119
 21.4992  23.7612
 21.5223  23.7735
 21.5453  23.7403
 21.5683  23.7007
 21.5913  23.7631
 21.6142  23.8076
 21.6373  23.8873
 21.6603  23.9049
 21.6833  23.9328
 21.7063  23.9761
 21.7293  23.8951
 21.7523  23.8672
 21.7753  23.8945
 21.7982  23.8394
 21.8213  23.8906
 21.8443  23.8934
 21.8672  23.9687
 21.8903  24.061
 21.9133  24.0304
 21.9363  23.9447
 21.9593  23.9942
 21.9823  24.0287
 22.0053  24.1082
 22.0283  24.2379
 22.0512  24.1734
 22.0743  24.0159
 22.0973  24.0314
 22.1203  24.0761
 22.1433  24.1651
 22.1663  24.1313
 22.1893  24.168
 22.2123  24.1478
 22.2353  24.1402
 22.2583  24.2411
 22.2813  24.1924
 22.3043  24.2141
 22.3273  24.2148
 22.3502  24.2204
 22.3733  24.234
 22.3963  24.1937
 22.4193  24.1588
 22.4423  24.2967
 22.4653  24.3769
 22.4883  24.3655
 22.5113  24.4473
 22.5343  24.5498
 22.5573  24.6357
 22.5803  24.6456
 22.6033  24.6206
 22.6263  24.665
 22.6493  24.6595
 22.6723  24.7223
 22.6953  24.948
 22.7183  24.8954
 22.7413  24.9394
 22.7643  25.1096
 22.7873  25.141
 22.8103  25.1073
 22.8333  25.1878
 22.8563  25.216
 22.8793  25.3751
 22.9022  25.5594
 22.9253  25.6413
 22.9483  25.6503
 22.9713  25.7717
 22.9943  25.9846