File: test-data-xrd/xrd-map-34-ID-E/Data_0101.chi
F:\20151113_APS_34IDE\\Brian\Particle1\OCV\Data_0101.tif
2-Theta Angle (Degrees)
Intensity
       2000
 0.01725  0.0000000E+00
 0.04025  0.0000000E+00
 0.06325  0.0000000E+00
 0.08625  0.0000000E+00
 0.10925  0.0000000E+00
 0.13225  0.0000000E+00
 0.15525  0.0000000E+00
 0.17825  0.0000000E+00
 0.20125  0.0000000E+00
 0.22425  0.0000000E+00
 0.24725  0.0000000E+00
 0.27025  0.0000000E+00
 0.29325  0.0000000E+00
 0.31625  0.0000000E+00
 0.33925  0.0000000E+00
 0.36225  0.0000000E+00
 0.38525  0.0000000E+00
 0.40825  0.0000000E+00
 0.43125  0.0000000E+00
 0.45425  0.0000000E+00
 0.47725  0.0000000E+00
 0.50025  0.0000000E+00
 0.52325  0.0000000E+00
 0.54625  0.0000000E+00
 0.56925  0.0000000E+00
 0.59225  0.0000000E+00
 0.61525  0.0000000E+00
 0.63825  0.0000000E+00
 0.66125  0.0000000E+00
 0.68425  0.0000000E+00
 0.70725  0.0000000E+00
 0.73025  0.0000000E+00
 0.75325  0.0000000E+00
 0.77625  0.0000000E+00
 0.79925  0.0000000E+00
 0.82225  0.0000000E+00
 0.84525  0.0000000E+00
 0.86825  0.0000000E+00
 0.89125  0.0000000E+00
 0.91425  0.0000000E+00
 0.93725  0.0000000E+00
 0.96025  0.0000000E+00
 0.98325  0.0000000E+00
 1.00625  0.0000000E+00
 1.02925  0.0000000E+00
 1.05225  0.0000000E+00
 1.07525  0.0000000E+00
 1.09825  0.0000000E+00
 1.12125  0.0000000E+00
 1.14425  0.0000000E+00
 1.16725  0.0000000E+00
 1.19025  0.0000000E+00
 1.21325  0.0000000E+00
 1.23625  0.0000000E+00
 1.25925  0.0000000E+00
 1.28225  0.0000000E+00
 1.30525  0.0000000E+00
 1.32825  0.0000000E+00
 1.35125  0.0000000E+00
 1.37425  0.0000000E+00
 1.39725  0.0000000E+00
 1.42025  0.0000000E+00
 1.44325  0.0000000E+00
 1.46625  0.0000000E+00
 1.48925  0.0000000E+00
 1.51225  0.0000000E+00
 1.53525  0.0000000E+00
 1.55825  0.0000000E+00
 1.58125  0.0000000E+00
 1.60425  0.0000000E+00
 1.62725  0.0000000E+00
 1.65025  0.0000000E+00
 1.67325  0.0000000E+00
 1.69625  0.0000000E+00
 1.71925  0.0000000E+00
 1.74225  0.0000000E+00
 1.76525  0.0000000E+00
 1.78825  0.0000000E+00
 1.81125  0.0000000E+00
 1.83425  0.0000000E+00
 1.85725  0.0000000E+00
 1.88025  0.0000000E+00
 1.90325  0.0000000E+00
 1.92625  0.0000000E+00
 1.94925  0.0000000E+00
 1.97225  0.0000000E+00
 1.99525  0.0000000E+00
 2.01825  0.0000000E+00
 2.04125  0.0000000E+00
 2.06425  0.0000000E+00
 2.08725  0.0000000E+00
 2.11025  0.0000000E+00
 2.13325  0.0000000E+00
 2.15625  0.0000000E+00
 2.17925  0.0000000E+00
 2.20225  0.0000000E+00
 2.22525  0.0000000E+00
 2.24825  0.0000000E+00
 2.27125  0.0000000E+00
 2.29425  0.0000000E+00
 2.31725  0.0000000E+00
 2.34025  0.0000000E+00
 2.36325  0.0000000E+00
 2.38625  0.0000000E+00
 2.40925  0.0000000E+00
 2.43225  0.0000000E+00
 2.45525  0.0000000E+00
 2.47825  0.0000000E+00
 2.50125  0.0000000E+00
 2.52425  0.0000000E+00
 2.54725  0.0000000E+00
 2.57025  0.0000000E+00
 2.59325  0.0000000E+00
 2.61625  0.0000000E+00
 2.63925  0.0000000E+00
 2.66225  0.0000000E+00
 2.68525  0.0000000E+00
 2.70825  0.0000000E+00
 2.73125  0.0000000E+00
 2.75425  0.0000000E+00
 2.77725  0.0000000E+00
 2.80025  0.0000000E+00
 2.82325  31.2831
 2.84625  33.0535
 2.86925  33.1358
 2.89225  34.6291
 2.91525  35.6163
 2.93825  35.394
 2.96125  35.7925
 2.98425  36.0127
 3.00725  35.9252
 3.03025  35.4376
 3.05325  34.9784
 3.07625  35.3386
 3.09925  35.9746
 3.12225  36.2194
 3.14525  35.6151
 3.16825  35.2173
 3.19125  35.4616
 3.21425  36.0663
 3.23725  36.5565
 3.26025  36.9807
 3.28325  36.7317
 3.30625  35.9092
 3.32925  35.4526
 3.35225  35.3158
 3.37525  35.546
 3.39825  34.8991
 3.42125  34.4547
 3.44425  34.5359
 3.46725  34.9115
 3.49025  35.1981
 3.51325  35.0989
 3.53625  35.1546
 3.55925  34.4167
 3.58225  33.1155
 3.60525  32.4996
 3.62825  32.9683
 3.65125  33.5452
 3.67425  33.1447
 3.69725  32.667
 3.72025  32.6195
 3.74325  32.8895
 3.76625  33.0893
 3.78925  32.867
 3.81225  32.5614
 3.83525  32.6856
 3.85825  32.9904
 3.88125  33.5088
 3.90425  33.2546
 3.92725  33.0523
 3.95025  32.7984
 3.97325  32.7259
 3.99625  32.814
 4.01925  32.7502
 4.04225  32.4313
 4.06525  32.2841
 4.08825  32.2114
 4.11125  32.3668
 4.13425  32.6038
 4.15725  32.6484
 4.18025  32.5384
 4.20325  32.4857
 4.22625  32.5416
 4.24925  32.7768
 4.27225  32.8973
 4.29525  32.7369
 4.31825  32.4984
 4.34125  32.3221
 4.36425  32.4316
 4.38725  32.8342
 4.41025  32.6627
 4.43325  32.669
 4.45625  32.8174
 4.47925  32.8918
 4.50225  32.9159
 4.52525  32.9563
 4.54825  32.8191
 4.57125  32.8138
 4.59425  32.9257
 4.61725  33.0134
 4.64025  32.9253
 4.66325  32.9206
 4.68625  32.8093
 4.70925  32.9405
 4.73225  32.7375
 4.75525  32.473
 4.77825  32.5794
 4.80125  32.7472
 4.82425  32.7581
 4.84725  32.9575
 4.87025  32.9623
 4.89325  32.724
 4.91625  32.7674
 4.93925  32.7306
 4.96225  32.6972
 4.98525  32.9399
 5.00825  33.0361
 5.03125  33.1276
 5.05425  33.3517
 5.07725  33.457
 5.10025  33.5692
 5.12325  33.6669
 5.14625  33.8102
 5.16925  33.8583
 5.19225  33.943
 5.21525  33.8985
 5.23825  33.9507
 5.26125  34.0751
 5.28425  34.2613
 5.30725  34.2956
 5.33025  34.3281
 5.35325  34.2109
 5.37625  34.0844
 5.39925  34.4105
 5.42225  34.5796
 5.44525  34.6442
 5.46825  34.6699
 5.49125  34.4956
 5.51425  34.6449
 5.53725  34.8838
 5.56025  35.041
 5.58325  35.07
 5.60625  35.0508
 5.62925  35.0918
 5.65225  35.3294
 5.67525  35.5676
 5.69825  35.643
 5.72125  35.7078
 5.74425  35.8681
 5.76725  35.7646
 5.79025  36.0217
 5.81325  36.2585
 5.83625  36.2837
 5.85925  36.3654
 5.88225  36.9402
 5.90525  37.7063
 5.92825  40.2253
 5.95125  47.5288
 5.97425  53.4149
 5.99725  52.5637
 6.02025  46.3904
 6.04325  41.1285
 6.06625  38.508
 6.08925  37.6071
 6.11225  37.223
 6.13525  37.1568
 6.15825  37.2647
 6.18125  37.5071
 6.20425  37.6931
 6.22725  37.8783
 6.25025  38.0098
 6.27325  38.1581
 6.29625  38.3584
 6.31925  38.4033
 6.34225  38.4875
 6.36525  38.3499
 6.38825  38.4187
 6.41125  38.74
 6.43425  38.9799
 6.45725  38.9483
 6.48025  38.9982
 6.50325  39.1816
 6.52625  39.3269
 6.54925  39.3891
 6.57225  39.6489
 6.59525  39.939
 6.61825  40.1052
 6.64125  40.2853
 6.66425  40.6094
 6.68725  40.582
 6.71025  40.5751
 6.73325  40.7784
 6.75625  40.9856
 6.77925  41.2006
 6.80225  41.3445
 6.82525  41.6645
 6.84825  41.7856
 6.87125  41.985
 6.89425  42.2797
 6.91725  42.5501
 6.94025  42.5638
 6.96325  42.5882
 6.98625  42.724
 7.00925  42.8642
 7.03225  42.8782
 7.05525  43.0034
 7.07825  43.1181
 7.10125  43.2094
 7.12425  43.4065
 7.14725  43.5932
 7.17025  43.5751
 7.19325  43.5242
 7.21625  43.5327
 7.23925  43.7353
 7.26225  43.9099
 7.28525  43.8172
 7.30825  43.7102
 7.33125  43.9614
 7.35425  44.2542
 7.37725  44.4288
 7.40025  44.5752
 7.42325  44.4222
 7.44625  44.3292
 7.46925  44.4974
 7.49225  44.7028
 7.51525  44.6625
 7.53825  44.5713
 7.56125  44.5968
 7.58425  44.5466
 7.60725  44.5755
 7.63025  44.6497
 7.65325  44.7482
 7.67625  44.7295
 7.69925  44.8461
 7.72225  44.8149
 7.74525  44.7314
 7.76825  44.5579
 7.79125  44.4836
 7.81425  44.5105
 7.83725  44.5332
 7.86025  44.5744
 7.88325  44.3238
 7.90625  44.1595
 7.92925  44.1155
 7.95225  43.9817
 7.97525  43.718
 7.99825  43.5622
 8.02125  43.5683
 8.04425  43.4198
 8.06725  43.2975
 8.09025  43.2773
 8.11325  43.4099
 8.13625  43.1364
 8.15925  42.721
 8.18225  42.5466
 8.20525  42.2698
 8.22825  42.0446
 8.25125  41.8899
 8.27425  41.4803
 8.29725  41.131
 8.32025  40.9633
 8.34325  40.7356
 8.36625  40.3472
 8.38925  39.8921
 8.41225  39.5644
 8.43525  39.4214
 8.45825  39.2123
 8.48125  38.9078
 8.50425  38.4613
 8.52725  37.9467
 8.55025  37.3227
 8.57325  36.8792
 8.59625  36.6394
 8.61925  36.2841
 8.64225  35.9243
 8.66525  35.5639
 8.68825  35.354
 8.71125  35.0509
 8.73425  34.7661
 8.75725  34.3767
 8.78025  34.0725
 8.80325  33.7182
 8.82625  33.3243
 8.84925  33.0049
 8.87225  32.7686
 8.89525  32.3046
 8.91825  31.9566
 8.94125  31.695
 8.96425  31.4123
 8.98725  31.0672
 9.01025  30.6309
 9.03325  30.4221
 9.05625  30.2774
 9.07925  30.1069
 9.10225  29.8018
 9.12525  29.667
 9.14825  29.4169
 9.17125  29.0277
 9.19425  28.6459
 9.21725  28.5057
 9.24025  28.4526
 9.26325  28.3462
 9.28625  28.043
 9.30925  27.8833
 9.33225  27.5084
 9.35525  27.4004
 9.37825  27.2393
 9.40125  27.0763
 9.42425  26.9723
 9.44725  26.8297
 9.47025  26.7131
 9.49325  26.4929
 9.51625  26.2404
 9.53925  26.1812
 9.56225  26.2419
 9.58525  26.068
 9.60825  25.9818
 9.63125  25.9881
 9.65425  25.7817
 9.67725  25.5895
 9.70025  25.5159
 9.72325  25.4251
 9.74625  25.3171
 9.76925  25.2548
 9.79225  25.2429
 9.81525  25.0771
 9.83825  24.9192
 9.86125  24.8334
 9.88425  24.8537
 9.90725  24.931
 9.93025  24.8651
 9.95325  24.6972
 9.97625  24.5826
 9.99925  24.4077
 10.0222  24.2137
 10.0453  24.2753
 10.0683  24.2312
 10.0913  24.117
 10.1143  24.1358
 10.1373  24.1333
 10.1603  24.13
 10.1832  24.0081
 10.2063  23.8656
 10.2293  23.7956
 10.2523  23.7509
 10.2752  23.738
 10.2982  23.7903
 10.3213  23.7017
 10.3443  23.5975
 10.3673  23.6222
 10.3902  23.639
 10.4133  23.5955
 10.4363  23.4247
 10.4593  23.3637
 10.4823  23.3092
 10.5053  23.3789
 10.5283  23.4234
 10.5512  23.3114
 10.5742  23.2894
 10.5973  23.241
 10.6203  23.3436
 10.6433  23.2796
 10.6662  23.1164
 10.6893  22.9869
 10.7123  23.0399
 10.7353  23.0204
 10.7583  22.9378
 10.7813  22.8603
 10.8043  22.8131
 10.8272  22.7651
 10.8503  22.7434
 10.8733  22.7918
 10.8963  22.7212
 10.9192  22.8152
 10.9422  22.7981
 10.9653  22.7884
 10.9883  22.7596
 11.0113  22.7133
 11.0343  22.6264
 11.0573  22.5051
 11.0803  22.5579
 11.1033  22.6439
 11.1263  22.6568
 11.1493  22.6927
 11.1723  22.7307
 11.1953  22.7607
 11.2182  22.8665
 11.2413  22.8395
 11.2643  22.6991
 11.2873  22.5764
 11.3102  22.5014
 11.3333  22.6045
 11.3563  22.675
 11.3793  22.7684
 11.4023  22.8297
 11.4253  22.8041
 11.4483  22.9341
 11.4713  23.1608
 11.4942  23.3488
 11.5173  23.824
 11.5403  25.2874
 11.5633  28.7825
 11.5862  32.123
 11.6093  31.7363
 11.6323  28.1989
 11.6553  25.2316
 11.6783  23.6967
 11.7013  22.9959
 11.7243  22.7384
 11.7473  22.6113
 11.7703  22.5627
 11.7933  22.5195
 11.8163  22.6154
 11.8393  22.5614
 11.8622  22.5525
 11.8853  22.5516
 11.9083  22.673
 11.9313  23.0685
 11.9543  23.4608
 11.9773  23.7101
 12.0003  23.6391
 12.0233  23.4602
 12.0463  23.4878
 12.0693  24.0313
 12.0923  24.805
 12.1153  24.9575
 12.1382  24.296
 12.1613  23.4584
 12.1843  22.9915
 12.2073  22.7546
 12.2302  22.6337
 12.2533  22.6243
 12.2763  22.6364
 12.2993  22.6517
 12.3223  22.6994
 12.3453  22.6999
 12.3683  22.7837
 12.3913  22.6861
 12.4142  22.5312
 12.4373  22.6732
 12.4603  22.7946
 12.4833  22.7831
 12.5062  22.7307
 12.5292  22.823
 12.5523  22.9134
 12.5753  22.8715
 12.5983  22.822
 12.6212  22.8616
 12.6443  22.8589
 12.6673  22.9035
 12.6903  23.0327
 12.7133  23.0942
 12.7363  23.1398
 12.7593  23.2461
 12.7822  23.2131
 12.8052  23.2501
 12.8283  23.37
 12.8513  23.477
 12.8742  23.5609
 12.8972  23.6106
 12.9203  23.7723
 12.9433  23.9284
 12.9663  23.977
 12.9893  24.0196
 13.0123  24.0804
 13.0353  24.2123
 13.0582  24.3747
 13.0813  24.63
 13.1043  24.905
 13.1273  25.1683
 13.1502  25.3619
 13.1732  25.5331
 13.1963  25.6912
 13.2193  26.0213
 13.2423  26.4016
 13.2652  26.7243
 13.2883  27.0217
 13.3113  27.2514
 13.3343  27.5766
 13.3573  27.9096
 13.3803  28.184
 13.4033  28.4328
 13.4262  28.6861
 13.4492  28.92
 13.4723  29.1533
 13.4953  29.4191
 13.5183  29.5208
 13.5412  29.702
 13.5643  29.8176
 13.5873  29.8696
 13.6103  29.8924
 13.6333  29.9817
 13.6563  30.1099
 13.6793  30.1793
 13.7022  30.0417
 13.7253  30.0491
 13.7483  29.8975
 13.7713  29.8144
 13.7942  29.8931
 13.8172  30.0521
 13.8403  30.3904
 13.8633  31.2624
 13.8863  33.5625
 13.9093  39.4243
 13.9323  50.6302
 13.9553  59.4488
 13.9783  54.6087
 14.0013  43.4581
 14.0243  34.0231
 14.0473  30.5099
 14.0703  29.2728
 14.0932  28.5546
 14.1163  28.1742
 14.1393  27.8485
 14.1623  27.6181
 14.1852  27.3076
 14.2083  27.125
 14.2313  26.9945
 14.2543  26.8384
 14.2773  26.6584
 14.3003  26.53
 14.3233  26.4661
 14.3463  26.4209
 14.3692  26.4326
 14.3923  26.3721
 14.4153  26.1947
 14.4383  26.1071
 14.4612  26.0046
 14.4843  25.789
 14.5073  25.7827
 14.5303  25.7605
 14.5533  25.7002
 14.5763  25.5949
 14.5993  25.525
 14.6223  25.5028
 14.6453  25.5217
 14.6683  25.5434
 14.6913  25.5315
 14.7143  25.4284
 14.7372  25.3607
 14.7603  25.2688
 14.7833  25.2899
 14.8063  25.3664
 14.8293  25.2867
 14.8523  25.1942
 14.8753  25.1142
 14.8983  25.177
 14.9213  25.1415
 14.9443  25.0923
 14.9673  25.0592
 14.9903  25.1119
 15.0132  25.1536
 15.0363  25.0796
 15.0593  25.0273
 15.0823  25.0058
 15.1052  25.0135
 15.1283  25.3455
 15.1513  26.1074
 15.1743  26.9545
 15.1973  27.3182
 15.2203  26.7861
 15.2433  25.9368
 15.2663  25.1948
 15.2892  24.886
 15.3123  24.8438
 15.3353  24.7955
 15.3583  24.7744
 15.3812  24.7646
 15.4043  24.7848
 15.4273  24.8203
 15.4503  24.7504
 15.4733  24.5813
 15.4963  24.5885
 15.5193  24.6831
 15.5423  24.5909
 15.5653  24.5037
 15.5883  24.4645
 15.6113  24.4486
 15.6343  24.508
 15.6572  24.6559
 15.6803  24.6982
 15.7033  24.7688
 15.7263  24.7795
 15.7492  24.7509
 15.7723  24.8108
 15.7953  24.8055
 15.8183  24.8738
 15.8413  24.7844
 15.8643  24.7682
 15.8873  24.7846
 15.9103  24.7782
 15.9332  24.7733
 15.9563  24.7611
 15.9793  24.7925
 16.0023  24.7817
 16.0253  24.8313
 16.0482  24.8844
 16.0713  24.8962
 16.0943  24.8861
 16.1172  24.9995
 16.1403  25.0926
 16.1633  25.1927
 16.1863  25.4328
 16.2093  26.0329
 16.2323  27.0534
 16.2553  27.7893
 16.2783  27.2299
 16.3012  25.9183
 16.3243  25.2376
 16.3472  24.9681
 16.3703  24.8384
 16.3933  24.9299
 16.4163  24.9688
 16.4393  24.953
 16.4623  24.8729
 16.4853  24.8981
 16.5083  24.912
 16.5312  24.8602
 16.5543  24.7991
 16.5773  24.7409
 16.6002  24.7446
 16.6233  24.7464
 16.6463  24.683
 16.6693  24.6329
 16.6923  24.649
 16.7153  24.7763
 16.7383  24.8142
 16.7613  24.8069
 16.7843  24.6596
 16.8073  24.5495
 16.8303  24.5478
 16.8533  24.5391
 16.8763  24.5453
 16.8992  24.508
 16.9223  24.5188
 16.9453  24.4389
 16.9683  24.3694
 16.9913  24.3366
 17.0143  24.4174
 17.0373  24.4165
 17.0603  24.3723
 17.0832  24.3401
 17.1063  24.3553
 17.1293  24.3948
 17.1522  24.3686
 17.1753  24.32
 17.1983  24.3723
 17.2213  24.4114
 17.2443  24.3674
 17.2673  24.2444
 17.2903  24.2266
 17.3133  24.298
 17.3362  24.3116
 17.3593  24.2899
 17.3823  24.1969
 17.4053  24.1453
 17.4283  24.1082
 17.4513  24.1509
 17.4743  24.1367
 17.4973  24.1648
 17.5203  24.0807
 17.5433  24.0479
 17.5663  24.0434
 17.5893  23.9619
 17.6123  24.0439
 17.6352  24.0732
 17.6583  23.9534
 17.6813  23.8773
 17.7042  23.9717
 17.7273  23.9778
 17.7503  23.885
 17.7733  23.8848
 17.7963  23.9837
 17.8193  23.947
 17.8423  23.976
 17.8653  24.0033
 17.8882  24.087
 17.9113  24.1134
 17.9343  24.099
 17.9573  24.0931
 17.9803  24.5719
 18.0033  25.2345
 18.0263  25.4161
 18.0493  25.5614
 18.0723  25.8228
 18.0953  26.0933
 18.1183  26.1127
 18.1413  25.525
 18.1643  24.8463
 18.1872  24.2441
 18.2103  23.9931
 18.2333  23.8322
 18.2563  23.7736
 18.2793  23.7469
 18.3023  23.6779
 18.3253  23.7555
 18.3483  23.7782
 18.3712  23.7963
 18.3943  23.756
 18.4173  23.7665
 18.4402  23.7842
 18.4633  23.7074
 18.4863  23.6121
 18.5093  23.5154
 18.5323  23.4871
 18.5553  23.5944
 18.5783  23.7606
 18.6013  23.8195
 18.6242  23.6841
 18.6473  23.6944
 18.6703  23.6845
 18.6933  23.7421
 18.7163  23.6588
 18.7392  23.6406
 18.7623  23.7947
 18.7853  23.8255
 18.8083  23.7302
 18.8313  23.7129
 18.8543  23.7668
 18.8773  23.6644
 18.9003  23.6163
 18.9232  23.6313
 18.9463  23.6396
 18.9693  23.6642
 18.9922  23.6436
 19.0153  23.6733
 19.0383  23.6712
 19.0613  23.626
 19.0843  23.6114
 19.1073  23.5331
 19.1303  23.6748
 19.1533  23.776
 19.1762  23.6979
 19.1993  23.5887
 19.2223  23.5515
 19.2453  23.6074
 19.2683  23.7044
 19.2913  23.6914
 19.3143  23.7117
 19.3373  23.6706
 19.3603  23.7169
 19.3833  23.7314
 19.4062  23.777
 19.4293  23.8045
 19.4523  23.8403
 19.4752  23.9332
 19.4983  23.856
 19.5213  23.7687
 19.5443  23.8362
 19.5673  23.9337
 19.5903  24.0996
 19.6133  24.1812
 19.6363  24.5457
 19.6593  25.2606
 19.6823  26.4441
 19.7053  27.911
 19.7283  28.9851
 19.7513  28.5338
 19.7742  27.4497
 19.7973  27.168
 19.8203  28.5507
 19.8433  30.756
 19.8663  31.2871
 19.8893  29.9398
 19.9123  27.5653
 19.9353  25.588
 19.9582  24.6145
 19.9813  24.322
 20.0043  24.182
 20.0272  24.0545
 20.0503  24.0288
 20.0733  24.0802
 20.0963  24.0813
 20.1193  24.0309
 20.1423  23.937
 20.1653  23.9417
 20.1883  23.9436
 20.2112  23.9515
 20.2343  23.89
 20.2573  23.9296
 20.2803  23.8937
 20.3033  23.8077
 20.3263  23.7085
 20.3493  23.7324
 20.3723  23.841
 20.3953  23.819
 20.4183  23.9225
 20.4413  23.9079
 20.4643  23.874
 20.4873  23.8992
 20.5102  23.9362
 20.5333  23.8348
 20.5563  24.0341
 20.5792  24.2041
 20.6023  24.2079
 20.6253  24.2785
 20.6483  24.4184
 20.6713  24.5927
 20.6943  25.223
 20.7173  26.8412
 20.7403  29.0419
 20.7632  31.8672
 20.7863  32.0267
 20.8093  28.4193
 20.8323  26.1609
 20.8553  24.8793
 20.8783  24.425
 20.9013  24.3321
 20.9243  24.3059
 20.9473  24.3028
 20.9703  24.2419
 20.9933  24.1984
 21.0163  24.1495
 21.0393  24.066
 21.0622  24.0761
 21.0853  24.0903
 21.1083  24.0892
 21.1313  24.0411
 21.1543  23.9009
 21.1773  23.9019
 21.2003  23.9256
 21.2233  23.8899
 21.2462  23.9795
 21.2693  24.11
 21.2923  24.0536
 21.3152  23.9581
 21.3383  24.044
 21.3613  24.1276
 21.3843  24.1123
 21.4073  24.0344
 21.4303  24.0189
 21.4533  23.9445
 21.4763  23.9189
 21.4992  24.008
 21.5223  24.1881
 21.5453  24.1998
 21.5683  24.1416
 21.5913  24.2654
 21.6142  24.2326
 21.6373  24.2643
 21.6603  24.2797
 21.6833  24.2987
 21.7063  24.358
 21.7293  24.3377
 21.7523  24.2728
 21.7753  24.2304
 21.7982  24.285
 21.8213  24.3082
 21.8443  24.2566
 21.8672  24.2564
 21.8903  24.2684
 21.9133  24.2398
 21.9363  24.1729
 21.9593  24.1816
 21.9823  24.2128
 22.0053  24.2389
 22.0283  24.3299
 22.0512  24.3315
 22.0743  24.3052
 22.0973  24.3229
 22.1203  24.435
 22.1433  24.4284
 22.1663  24.4057
 22.1893  24.3604
 22.2123  24.4299
 22.2353  24.4869
 22.2583  24.5273
 22.2813  24.5722
 22.3043  24.6654
 22.3273  24.653
 22.3502  24.6282
 22.3733  24.5802
 22.3963  24.5108
 22.4193  24.607
 22.4423  24.7809
 22.4653  24.7549
 22.4883  24.6542
 22.5113  24.6816
 22.5343  24.7448
 22.5573  24.8122
 22.5803  24.8641
 22.6033  24.903
 22.6263  24.9841
 22.6493  24.9391
 22.6723  25.0513
 22.6953  25.2555
 22.7183  25.2738
 22.7413  25.2028
 22.7643  25.1751
 22.7873  25.2817
 22.8103  25.4672
 22.8333  25.6502
 22.8563  25.6923
 22.8793  25.7719
 22.9022  25.9116
 22.9253  26.083
 22.9483  26.0377
 22.9713  26.1732
 22.9943  26.3738