File: test-data-xrd/xrd-map-34-ID-E/Data_0040.chi
F:\20151113_APS_34IDE\\Brian\Particle1\OCV\Data_0040.tif
2-Theta Angle (Degrees)
Intensity
       2000
 0.01725  0.0000000E+00
 0.04025  0.0000000E+00
 0.06325  0.0000000E+00
 0.08625  0.0000000E+00
 0.10925  0.0000000E+00
 0.13225  0.0000000E+00
 0.15525  0.0000000E+00
 0.17825  0.0000000E+00
 0.20125  0.0000000E+00
 0.22425  0.0000000E+00
 0.24725  0.0000000E+00
 0.27025  0.0000000E+00
 0.29325  0.0000000E+00
 0.31625  0.0000000E+00
 0.33925  0.0000000E+00
 0.36225  0.0000000E+00
 0.38525  0.0000000E+00
 0.40825  0.0000000E+00
 0.43125  0.0000000E+00
 0.45425  0.0000000E+00
 0.47725  0.0000000E+00
 0.50025  0.0000000E+00
 0.52325  0.0000000E+00
 0.54625  0.0000000E+00
 0.56925  0.0000000E+00
 0.59225  0.0000000E+00
 0.61525  0.0000000E+00
 0.63825  0.0000000E+00
 0.66125  0.0000000E+00
 0.68425  0.0000000E+00
 0.70725  0.0000000E+00
 0.73025  0.0000000E+00
 0.75325  0.0000000E+00
 0.77625  0.0000000E+00
 0.79925  0.0000000E+00
 0.82225  0.0000000E+00
 0.84525  0.0000000E+00
 0.86825  0.0000000E+00
 0.89125  0.0000000E+00
 0.91425  0.0000000E+00
 0.93725  0.0000000E+00
 0.96025  0.0000000E+00
 0.98325  0.0000000E+00
 1.00625  0.0000000E+00
 1.02925  0.0000000E+00
 1.05225  0.0000000E+00
 1.07525  0.0000000E+00
 1.09825  0.0000000E+00
 1.12125  0.0000000E+00
 1.14425  0.0000000E+00
 1.16725  0.0000000E+00
 1.19025  0.0000000E+00
 1.21325  0.0000000E+00
 1.23625  0.0000000E+00
 1.25925  0.0000000E+00
 1.28225  0.0000000E+00
 1.30525  0.0000000E+00
 1.32825  0.0000000E+00
 1.35125  0.0000000E+00
 1.37425  0.0000000E+00
 1.39725  0.0000000E+00
 1.42025  0.0000000E+00
 1.44325  0.0000000E+00
 1.46625  0.0000000E+00
 1.48925  0.0000000E+00
 1.51225  0.0000000E+00
 1.53525  0.0000000E+00
 1.55825  0.0000000E+00
 1.58125  0.0000000E+00
 1.60425  0.0000000E+00
 1.62725  0.0000000E+00
 1.65025  0.0000000E+00
 1.67325  0.0000000E+00
 1.69625  0.0000000E+00
 1.71925  0.0000000E+00
 1.74225  0.0000000E+00
 1.76525  0.0000000E+00
 1.78825  0.0000000E+00
 1.81125  0.0000000E+00
 1.83425  0.0000000E+00
 1.85725  0.0000000E+00
 1.88025  0.0000000E+00
 1.90325  0.0000000E+00
 1.92625  0.0000000E+00
 1.94925  0.0000000E+00
 1.97225  0.0000000E+00
 1.99525  0.0000000E+00
 2.01825  0.0000000E+00
 2.04125  0.0000000E+00
 2.06425  0.0000000E+00
 2.08725  0.0000000E+00
 2.11025  0.0000000E+00
 2.13325  0.0000000E+00
 2.15625  0.0000000E+00
 2.17925  0.0000000E+00
 2.20225  0.0000000E+00
 2.22525  0.0000000E+00
 2.24825  0.0000000E+00
 2.27125  0.0000000E+00
 2.29425  0.0000000E+00
 2.31725  0.0000000E+00
 2.34025  0.0000000E+00
 2.36325  0.0000000E+00
 2.38625  0.0000000E+00
 2.40925  0.0000000E+00
 2.43225  0.0000000E+00
 2.45525  0.0000000E+00
 2.47825  0.0000000E+00
 2.50125  0.0000000E+00
 2.52425  0.0000000E+00
 2.54725  0.0000000E+00
 2.57025  0.0000000E+00
 2.59325  0.0000000E+00
 2.61625  0.0000000E+00
 2.63925  0.0000000E+00
 2.66225  0.0000000E+00
 2.68525  0.0000000E+00
 2.70825  0.0000000E+00
 2.73125  0.0000000E+00
 2.75425  0.0000000E+00
 2.77725  0.0000000E+00
 2.80025  0.0000000E+00
 2.82325  31.7359
 2.84625  32.646
 2.86925  32.64
 2.89225  33.1951
 2.91525  34.6898
 2.93825  35.4498
 2.96125  35.0877
 2.98425  34.8844
 3.00725  35.93
 3.03025  35.2802
 3.05325  35.1997
 3.07625  35.8564
 3.09925  36.3835
 3.12225  35.4916
 3.14525  35.2447
 3.16825  35.1799
 3.19125  34.7652
 3.21425  34.6529
 3.23725  34.9497
 3.26025  35.1422
 3.28325  34.3921
 3.30625  33.6793
 3.32925  33.6861
 3.35225  33.9356
 3.37525  34.4875
 3.39825  34.4001
 3.42125  34.0519
 3.44425  33.751
 3.46725  33.7986
 3.49025  33.7373
 3.51325  32.8952
 3.53625  32.5128
 3.55925  32.6081
 3.58225  32.7577
 3.60525  32.9682
 3.62825  32.9836
 3.65125  32.9388
 3.67425  32.9188
 3.69725  32.9868
 3.72025  32.8887
 3.74325  33.1139
 3.76625  32.8795
 3.78925  32.5547
 3.81225  32.5473
 3.83525  32.388
 3.85825  32.1105
 3.88125  32.0412
 3.90425  31.933
 3.92725  32.1074
 3.95025  32.1246
 3.97325  32.0746
 3.99625  32.1614
 4.01925  31.8912
 4.04225  31.7334
 4.06525  31.9023
 4.08825  32.3326
 4.11125  32.477
 4.13425  32.1965
 4.15725  32.1328
 4.18025  31.8095
 4.20325  31.9047
 4.22625  31.7631
 4.24925  31.5753
 4.27225  31.672
 4.29525  31.7379
 4.31825  31.5653
 4.34125  31.4916
 4.36425  31.5714
 4.38725  31.7169
 4.41025  31.7802
 4.43325  31.9618
 4.45625  32.1377
 4.47925  32.0488
 4.50225  31.9654
 4.52525  32.0277
 4.54825  31.9186
 4.57125  32.0593
 4.59425  32.2093
 4.61725  32.0188
 4.64025  32.1434
 4.66325  32.6388
 4.68625  32.5696
 4.70925  32.4626
 4.73225  32.2321
 4.75525  31.8006
 4.77825  31.557
 4.80125  31.5557
 4.82425  31.9828
 4.84725  32.3498
 4.87025  32.5549
 4.89325  32.686
 4.91625  32.9197
 4.93925  32.8833
 4.96225  32.768
 4.98525  32.7604
 5.00825  32.9577
 5.03125  33.1796
 5.05425  33.0036
 5.07725  32.7949
 5.10025  32.8731
 5.12325  33.1731
 5.14625  33.4071
 5.16925  33.378
 5.19225  33.3224
 5.21525  33.2448
 5.23825  33.2916
 5.26125  33.4266
 5.28425  33.6609
 5.30725  33.8813
 5.33025  33.9331
 5.35325  33.7718
 5.37625  33.9634
 5.39925  34.3189
 5.42225  34.4657
 5.44525  34.3819
 5.46825  34.4175
 5.49125  34.2205
 5.51425  34.1073
 5.53725  34.3454
 5.56025  34.4509
 5.58325  34.4778
 5.60625  34.4943
 5.62925  34.628
 5.65225  34.7212
 5.67525  35.0638
 5.69825  35.1186
 5.72125  35.0307
 5.74425  35.1151
 5.76725  35.2637
 5.79025  35.498
 5.81325  35.6643
 5.83625  35.869
 5.85925  35.8742
 5.88225  36.2377
 5.90525  37.9668
 5.92825  40.959
 5.95125  45.6365
 5.97425  54.8412
 5.99725  56.064
 6.02025  49.2698
 6.04325  39.478
 6.06625  37.3642
 6.08925  36.9158
 6.11225  36.6905
 6.13525  36.554
 6.15825  36.6879
 6.18125  36.8003
 6.20425  36.7909
 6.22725  36.8799
 6.25025  36.9555
 6.27325  37.1299
 6.29625  37.3144
 6.31925  37.5674
 6.34225  37.6711
 6.36525  37.715
 6.38825  37.78
 6.41125  38.05
 6.43425  38.1927
 6.45725  38.1039
 6.48025  38.06
 6.50325  38.3279
 6.52625  38.6894
 6.54925  38.7118
 6.57225  38.8156
 6.59525  39.084
 6.61825  39.3832
 6.64125  39.6619
 6.66425  39.8756
 6.68725  39.878
 6.71025  39.9738
 6.73325  40.0968
 6.75625  40.218
 6.77925  40.5742
 6.80225  41.0116
 6.82525  41.4324
 6.84825  41.4834
 6.87125  41.3873
 6.89425  41.2832
 6.91725  41.3402
 6.94025  41.4272
 6.96325  41.6531
 6.98625  41.9202
 7.00925  42.1325
 7.03225  42.3085
 7.05525  42.3924
 7.07825  42.3982
 7.10125  42.3725
 7.12425  42.5851
 7.14725  42.5777
 7.17025  42.7423
 7.19325  42.9504
 7.21625  43.0679
 7.23925  43.1047
 7.26225  43.2364
 7.28525  43.4303
 7.30825  43.3878
 7.33125  43.4061
 7.35425  43.5493
 7.37725  43.5531
 7.40025  43.4451
 7.42325  43.5573
 7.44625  43.5989
 7.46925  43.7986
 7.49225  43.7605
 7.51525  43.6777
 7.53825  43.8741
 7.56125  43.9794
 7.58425  43.9841
 7.60725  43.9069
 7.63025  43.9589
 7.65325  43.9505
 7.67625  43.9275
 7.69925  43.794
 7.72225  43.8363
 7.74525  43.8319
 7.76825  43.5517
 7.79125  43.5221
 7.81425  43.6082
 7.83725  43.8186
 7.86025  43.8917
 7.88325  43.7708
 7.90625  43.571
 7.92925  43.3373
 7.95225  43.285
 7.97525  43.1395
 7.99825  43.2283
 8.02125  43.2855
 8.04425  42.9924
 8.06725  42.7741
 8.09025  42.386
 8.11325  42.1743
 8.13625  41.9944
 8.15925  41.8468
 8.18225  41.7036
 8.20525  41.5189
 8.22825  41.4147
 8.25125  41.1334
 8.27425  40.6965
 8.29725  40.2397
 8.32025  39.9324
 8.34325  39.7173
 8.36625  39.519
 8.38925  39.2908
 8.41225  38.9862
 8.43525  38.6822
 8.45825  38.5086
 8.48125  38.2353
 8.50425  37.678
 8.52725  37.3189
 8.55025  36.9367
 8.57325  36.5518
 8.59625  36.1878
 8.61925  35.879
 8.64225  35.7074
 8.66525  35.3845
 8.68825  34.9634
 8.71125  34.5344
 8.73425  34.0992
 8.75725  33.7596
 8.78025  33.4304
 8.80325  33.0202
 8.82625  32.7666
 8.84925  32.5357
 8.87225  32.1763
 8.89525  31.8486
 8.91825  31.6558
 8.94125  31.2238
 8.96425  30.8507
 8.98725  30.749
 9.01025  30.497
 9.03325  30.3771
 9.05625  30.1546
 9.07925  29.7919
 9.10225  29.5339
 9.12525  29.1993
 9.14825  28.9208
 9.17125  28.7173
 9.19425  28.5233
 9.21725  28.1869
 9.24025  27.9632
 9.26325  27.9444
 9.28625  27.7331
 9.30925  27.5052
 9.33225  27.4264
 9.35525  27.2794
 9.37825  27.0261
 9.40125  26.8329
 9.42425  26.7401
 9.44725  26.5237
 9.47025  26.4641
 9.49325  26.3503
 9.51625  26.0795
 9.53925  25.8749
 9.56225  25.88
 9.58525  25.7717
 9.60825  25.6662
 9.63125  25.529
 9.65425  25.2948
 9.67725  25.1917
 9.70025  25.0482
 9.72325  25.0232
 9.74625  25.0184
 9.76925  24.8839
 9.79225  24.8754
 9.81525  24.893
 9.83825  24.6829
 9.86125  24.5044
 9.88425  24.3672
 9.90725  24.3988
 9.93025  24.3541
 9.95325  24.2385
 9.97625  24.1537
 9.99925  24.0602
 10.0222  24.0246
 10.0453  24.0062
 10.0683  23.9404
 10.0913  23.9132
 10.1143  23.818
 10.1373  23.7612
 10.1603  23.7687
 10.1832  23.7576
 10.2063  23.7047
 10.2293  23.5974
 10.2523  23.4583
 10.2752  23.3262
 10.2982  23.3089
 10.3213  23.3443
 10.3443  23.3205
 10.3673  23.3299
 10.3902  23.3126
 10.4133  23.2652
 10.4363  23.1064
 10.4593  23.0361
 10.4823  23.0594
 10.5053  23.1842
 10.5283  23.1911
 10.5512  23.1493
 10.5742  23.0744
 10.5973  22.964
 10.6203  22.9563
 10.6433  22.9825
 10.6662  22.9752
 10.6893  22.8617
 10.7123  22.7204
 10.7353  22.7059
 10.7583  22.7843
 10.7813  22.8552
 10.8043  22.854
 10.8272  22.8225
 10.8503  22.67
 10.8733  22.7136
 10.8963  22.6628
 10.9192  22.7343
 10.9422  22.7062
 10.9653  22.6298
 10.9883  22.6164
 11.0113  22.5385
 11.0343  22.4994
 11.0573  22.4314
 11.0803  22.4669
 11.1033  22.6162
 11.1263  22.5724
 11.1493  22.3761
 11.1723  22.3036
 11.1953  22.3108
 11.2182  22.3617
 11.2413  22.4206
 11.2643  22.4174
 11.2873  22.4381
 11.3102  22.5061
 11.3333  22.5563
 11.3563  22.6752
 11.3793  22.9405
 11.4023  23.3742
 11.4253  23.3889
 11.4483  23.1331
 11.4713  23.3182
 11.4942  23.692
 11.5173  24.7758
 11.5403  28.4615
 11.5633  37.1555
 11.5862  44.394
 11.6093  41.6967
 11.6323  31.9526
 11.6553  25.9206
 11.6783  24.0093
 11.7013  23.2792
 11.7243  22.8997
 11.7473  22.6891
 11.7703  22.6275
 11.7933  22.5836
 11.8163  22.6465
 11.8393  22.6112
 11.8622  22.4842
 11.8853  22.391
 11.9083  22.5188
 11.9313  22.8148
 11.9543  23.1675
 11.9773  23.5852
 12.0003  23.8388
 12.0233  23.8293
 12.0463  24.3669
 12.0693  27.6477
 12.0923  31.8902
 12.1153  33.3111
 12.1382  29.6477
 12.1613  25.8809
 12.1843  23.7187
 12.2073  22.9831
 12.2302  22.7982
 12.2533  22.6797
 12.2763  22.5723
 12.2993  22.5834
 12.3223  22.5863
 12.3453  22.5154
 12.3683  22.5353
 12.3913  22.5731
 12.4142  22.527
 12.4373  22.5414
 12.4603  22.6289
 12.4833  22.7054
 12.5062  22.6048
 12.5292  22.6368
 12.5523  22.7327
 12.5753  22.711
 12.5983  22.6648
 12.6212  22.8176
 12.6443  22.8745
 12.6673  22.8458
 12.6903  22.8184
 12.7133  22.9081
 12.7363  23.0096
 12.7593  23.0649
 12.7822  23.2245
 12.8052  23.2433
 12.8283  23.1511
 12.8513  23.1339
 12.8742  23.1864
 12.8972  23.2491
 12.9203  23.4167
 12.9433  23.517
 12.9663  23.6025
 12.9893  23.7307
 13.0123  23.8753
 13.0353  24.1207
 13.0582  24.3253
 13.0813  24.5262
 13.1043  24.7312
 13.1273  24.9533
 13.1502  25.2268
 13.1732  25.4383
 13.1963  25.6885
 13.2193  25.9134
 13.2423  26.0637
 13.2652  26.2394
 13.2883  26.5332
 13.3113  26.842
 13.3343  27.0947
 13.3573  27.4609
 13.3803  27.7681
 13.4033  27.9971
 13.4262  28.1825
 13.4492  28.3684
 13.4723  28.7203
 13.4953  28.9967
 13.5183  29.2861
 13.5412  29.4991
 13.5643  29.5174
 13.5873  29.4226
 13.6103  29.4565
 13.6333  29.5101
 13.6563  29.5353
 13.6793  29.4938
 13.7022  29.3307
 13.7253  29.3301
 13.7483  29.4085
 13.7713  29.3481
 13.7942  29.229
 13.8172  29.1977
 13.8403  29.4187
 13.8633  30.0194
 13.8863  31.5278
 13.9093  35.8058
 13.9323  41.5618
 13.9553  44.4712
 13.9783  40.6415
 14.0013  34.7704
 14.0243  30.7421
 14.0473  28.7474
 14.0703  28.0503
 14.0932  27.6539
 14.1163  27.457
 14.1393  27.2502
 14.1623  27.0624
 14.1852  26.9204
 14.2083  26.8327
 14.2313  26.6358
 14.2543  26.4938
 14.2773  26.4199
 14.3003  26.311
 14.3233  26.0596
 14.3463  25.921
 14.3692  25.9117
 14.3923  25.9127
 14.4153  25.8559
 14.4383  25.776
 14.4612  25.6453
 14.4843  25.5521
 14.5073  25.5863
 14.5303  25.5177
 14.5533  25.4687
 14.5763  25.4431
 14.5993  25.4216
 14.6223  25.3261
 14.6453  25.2009
 14.6683  25.1515
 14.6913  25.1015
 14.7143  24.9874
 14.7372  24.8854
 14.7603  24.9171
 14.7833  24.9941
 14.8063  24.9669
 14.8293  24.9406
 14.8523  25.0367
 14.8753  24.8973
 14.8983  24.7994
 14.9213  24.8762
 14.9443  24.8886
 14.9673  24.8141
 14.9903  24.6485
 15.0132  24.6974
 15.0363  24.7792
 15.0593  24.7838
 15.0823  24.8309
 15.1052  24.9223
 15.1283  25.2672
 15.1513  26.1151
 15.1743  27.5941
 15.1973  28.6023
 15.2203  28.2289
 15.2433  26.8408
 15.2663  25.3203
 15.2892  24.7743
 15.3123  24.7027
 15.3353  24.6489
 15.3583  24.647
 15.3812  24.5248
 15.4043  24.4744
 15.4273  24.4316
 15.4503  24.4517
 15.4733  24.4306
 15.4963  24.3501
 15.5193  24.4306
 15.5423  24.4969
 15.5653  24.3599
 15.5883  24.3612
 15.6113  24.3672
 15.6343  24.3908
 15.6572  24.4924
 15.6803  24.5454
 15.7033  24.4878
 15.7263  24.4169
 15.7492  24.3597
 15.7723  24.3507
 15.7953  24.3889
 15.8183  24.3805
 15.8413  24.3091
 15.8643  24.386
 15.8873  24.5114
 15.9103  24.5288
 15.9332  24.4876
 15.9563  24.4479
 15.9793  24.3547
 16.0023  24.3903
 16.0253  24.4904
 16.0482  24.5404
 16.0713  24.5015
 16.0943  24.4845
 16.1172  24.5793
 16.1403  24.633
 16.1633  24.6962
 16.1863  24.6985
 16.2093  24.8413
 16.2323  25.0837
 16.2553  25.4195
 16.2783  25.4793
 16.3012  25.0738
 16.3243  24.8195
 16.3472  24.604
 16.3703  24.4763
 16.3933  24.5332
 16.4163  24.6012
 16.4393  24.5107
 16.4623  24.5599
 16.4853  24.5758
 16.5083  24.5711
 16.5312  24.5397
 16.5543  24.5888
 16.5773  24.585
 16.6002  24.5967
 16.6233  24.5694
 16.6463  24.4727
 16.6693  24.5753
 16.6923  24.5791
 16.7153  24.4688
 16.7383  24.3788
 16.7613  24.4239
 16.7843  24.4136
 16.8073  24.4398
 16.8303  24.3794
 16.8533  24.3787
 16.8763  24.3451
 16.8992  24.294
 16.9223  24.2528
 16.9453  24.1404
 16.9683  24.1644
 16.9913  24.1866
 17.0143  24.1314
 17.0373  24.1574
 17.0603  24.0811
 17.0832  24.0439
 17.1063  23.9675
 17.1293  24.029
 17.1522  24.1356
 17.1753  24.1396
 17.1983  24.0796
 17.2213  24.0512
 17.2443  23.9904
 17.2673  23.9178
 17.2903  23.8873
 17.3133  23.9448
 17.3362  23.9577
 17.3593  23.993
 17.3823  23.9382
 17.4053  23.8911
 17.4283  23.9179
 17.4513  23.9276
 17.4743  23.9798
 17.4973  23.9355
 17.5203  23.8174
 17.5433  23.82
 17.5663  23.7857
 17.5893  23.7599
 17.6123  23.75
 17.6352  23.7224
 17.6583  23.5836
 17.6813  23.6345
 17.7042  23.7581
 17.7273  23.8292
 17.7503  23.7335
 17.7733  23.6773
 17.7963  23.7737
 17.8193  23.8087
 17.8423  23.7888
 17.8653  23.7388
 17.8882  23.6806
 17.9113  23.6766
 17.9343  23.6895
 17.9573  23.7054
 17.9803  23.7898
 18.0033  24.01
 18.0263  24.3199
 18.0493  24.7182
 18.0723  25.074
 18.0953  25.4077
 18.1183  25.2704
 18.1413  24.6369
 18.1643  24.0693
 18.1872  23.8446
 18.2103  23.7671
 18.2333  23.6629
 18.2563  23.5644
 18.2793  23.5116
 18.3023  23.4954
 18.3253  23.5036
 18.3483  23.5028
 18.3712  23.5228
 18.3943  23.5522
 18.4173  23.5528
 18.4402  23.5408
 18.4633  23.5667
 18.4863  23.5827
 18.5093  23.5732
 18.5323  23.5235
 18.5553  23.5214
 18.5783  23.5562
 18.6013  23.4966
 18.6242  23.4247
 18.6473  23.4232
 18.6703  23.4151
 18.6933  23.4301
 18.7163  23.416
 18.7392  23.3798
 18.7623  23.3706
 18.7853  23.3597
 18.8083  23.3243
 18.8313  23.3772
 18.8543  23.3375
 18.8773  23.3331
 18.9003  23.2878
 18.9232  23.3756
 18.9463  23.5472
 18.9693  23.5142
 18.9922  23.548
 19.0153  23.8253
 19.0383  23.7712
 19.0613  23.4938
 19.0843  23.4319
 19.1073  23.3717
 19.1303  23.3924
 19.1533  23.5615
 19.1762  23.5498
 19.1993  23.488
 19.2223  23.4411
 19.2453  23.4685
 19.2683  23.5102
 19.2913  23.5207
 19.3143  23.5103
 19.3373  23.4839
 19.3603  23.5252
 19.3833  23.6086
 19.4062  23.7257
 19.4293  23.6517
 19.4523  23.6174
 19.4752  23.5791
 19.4983  23.5092
 19.5213  23.5601
 19.5443  23.6918
 19.5673  23.7125
 19.5903  23.6839
 19.6133  23.7282
 19.6363  23.9351
 19.6593  24.3221
 19.6823  24.976
 19.7053  25.8034
 19.7283  25.9847
 19.7513  25.3253
 19.7742  24.7065
 19.7973  24.5244
 19.8203  25.0178
 19.8433  25.7953
 19.8663  26.1577
 19.8893  25.6423
 19.9123  24.7649
 19.9353  24.0923
 19.9582  23.8209
 19.9813  23.7101
 20.0043  23.7177
 20.0272  23.7046
 20.0503  23.6525
 20.0733  23.6443
 20.0963  23.7475
 20.1193  23.7962
 20.1423  23.6726
 20.1653  23.6441
 20.1883  23.6261
 20.2112  23.6671
 20.2343  23.7229
 20.2573  23.6665
 20.2803  23.5995
 20.3033  23.5686
 20.3263  23.5419
 20.3493  23.6672
 20.3723  23.6708
 20.3953  23.662
 20.4183  23.706
 20.4413  23.6981
 20.4643  23.6359
 20.4873  23.647
 20.5102  23.6611
 20.5333  23.5948
 20.5563  23.7162
 20.5792  23.784
 20.6023  23.8686
 20.6253  23.9085
 20.6483  23.9956
 20.6713  24.0604
 20.6943  24.3977
 20.7173  25.0035
 20.7403  25.9944
 20.7632  26.6831
 20.7863  26.5292
 20.8093  25.7968
 20.8323  24.806
 20.8553  24.3001
 20.8783  24.0411
 20.9013  23.9783
 20.9243  23.9246
 20.9473  23.9395
 20.9703  23.9355
 20.9933  23.8994
 21.0163  23.8126
 21.0393  23.8514
 21.0622  23.807
 21.0853  23.8751
 21.1083  23.844
 21.1313  23.8797
 21.1543  23.7589
 21.1773  23.8103
 21.2003  23.8829
 21.2233  23.8829
 21.2462  23.8501
 21.2693  23.9148
 21.2923  23.9134
 21.3152  23.8339
 21.3383  23.867
 21.3613  23.9307
 21.3843  23.9136
 21.4073  23.966
 21.4303  23.9484
 21.4533  23.8422
 21.4763  23.8408
 21.4992  23.9634
 21.5223  24.0409
 21.5453  24.0412
 21.5683  24.0508
 21.5913  24.0711
 21.6142  24.065
 21.6373  24.071
 21.6603  23.9831
 21.6833  23.9604
 21.7063  23.9704
 21.7293  24.0585
 21.7523  24.0602
 21.7753  24.065
 21.7982  24.1137
 21.8213  24.0822
 21.8443  24.1103
 21.8672  24.192
 21.8903  24.0282
 21.9133  24.0129
 21.9363  24.0928
 21.9593  24.1755
 21.9823  24.1619
 22.0053  24.1155
 22.0283  24.1232
 22.0512  24.1954
 22.0743  24.2037
 22.0973  24.19
 22.1203  24.2292
 22.1433  24.3249
 22.1663  24.2717
 22.1893  24.318
 22.2123  24.2919
 22.2353  24.3764
 22.2583  24.3789
 22.2813  24.3688
 22.3043  24.4309
 22.3273  24.4826
 22.3502  24.4818
 22.3733  24.5984
 22.3963  24.521
 22.4193  24.4309
 22.4423  24.5316
 22.4653  24.5865
 22.4883  24.5423
 22.5113  24.5457
 22.5343  24.608
 22.5573  24.6791
 22.5803  24.6833
 22.6033  24.7684
 22.6263  24.9317
 22.6493  24.8632
 22.6723  24.9101
 22.6953  25.0578
 22.7183  25.0216
 22.7413  25.1131
 22.7643  25.1564
 22.7873  25.2009
 22.8103  25.2913
 22.8333  25.3826
 22.8563  25.4062
 22.8793  25.473
 22.9022  25.5778
 22.9253  25.8169
 22.9483  25.9702
 22.9713  26.1705
 22.9943  26.4289