File: test-data-xrd/xrd-map-34-ID-E/Data_0033.chi
F:\20151113_APS_34IDE\\Brian\Particle1\OCV\Data_0033.tif
2-Theta Angle (Degrees)
Intensity
       2000
 0.01725  0.0000000E+00
 0.04025  0.0000000E+00
 0.06325  0.0000000E+00
 0.08625  0.0000000E+00
 0.10925  0.0000000E+00
 0.13225  0.0000000E+00
 0.15525  0.0000000E+00
 0.17825  0.0000000E+00
 0.20125  0.0000000E+00
 0.22425  0.0000000E+00
 0.24725  0.0000000E+00
 0.27025  0.0000000E+00
 0.29325  0.0000000E+00
 0.31625  0.0000000E+00
 0.33925  0.0000000E+00
 0.36225  0.0000000E+00
 0.38525  0.0000000E+00
 0.40825  0.0000000E+00
 0.43125  0.0000000E+00
 0.45425  0.0000000E+00
 0.47725  0.0000000E+00
 0.50025  0.0000000E+00
 0.52325  0.0000000E+00
 0.54625  0.0000000E+00
 0.56925  0.0000000E+00
 0.59225  0.0000000E+00
 0.61525  0.0000000E+00
 0.63825  0.0000000E+00
 0.66125  0.0000000E+00
 0.68425  0.0000000E+00
 0.70725  0.0000000E+00
 0.73025  0.0000000E+00
 0.75325  0.0000000E+00
 0.77625  0.0000000E+00
 0.79925  0.0000000E+00
 0.82225  0.0000000E+00
 0.84525  0.0000000E+00
 0.86825  0.0000000E+00
 0.89125  0.0000000E+00
 0.91425  0.0000000E+00
 0.93725  0.0000000E+00
 0.96025  0.0000000E+00
 0.98325  0.0000000E+00
 1.00625  0.0000000E+00
 1.02925  0.0000000E+00
 1.05225  0.0000000E+00
 1.07525  0.0000000E+00
 1.09825  0.0000000E+00
 1.12125  0.0000000E+00
 1.14425  0.0000000E+00
 1.16725  0.0000000E+00
 1.19025  0.0000000E+00
 1.21325  0.0000000E+00
 1.23625  0.0000000E+00
 1.25925  0.0000000E+00
 1.28225  0.0000000E+00
 1.30525  0.0000000E+00
 1.32825  0.0000000E+00
 1.35125  0.0000000E+00
 1.37425  0.0000000E+00
 1.39725  0.0000000E+00
 1.42025  0.0000000E+00
 1.44325  0.0000000E+00
 1.46625  0.0000000E+00
 1.48925  0.0000000E+00
 1.51225  0.0000000E+00
 1.53525  0.0000000E+00
 1.55825  0.0000000E+00
 1.58125  0.0000000E+00
 1.60425  0.0000000E+00
 1.62725  0.0000000E+00
 1.65025  0.0000000E+00
 1.67325  0.0000000E+00
 1.69625  0.0000000E+00
 1.71925  0.0000000E+00
 1.74225  0.0000000E+00
 1.76525  0.0000000E+00
 1.78825  0.0000000E+00
 1.81125  0.0000000E+00
 1.83425  0.0000000E+00
 1.85725  0.0000000E+00
 1.88025  0.0000000E+00
 1.90325  0.0000000E+00
 1.92625  0.0000000E+00
 1.94925  0.0000000E+00
 1.97225  0.0000000E+00
 1.99525  0.0000000E+00
 2.01825  0.0000000E+00
 2.04125  0.0000000E+00
 2.06425  0.0000000E+00
 2.08725  0.0000000E+00
 2.11025  0.0000000E+00
 2.13325  0.0000000E+00
 2.15625  0.0000000E+00
 2.17925  0.0000000E+00
 2.20225  0.0000000E+00
 2.22525  0.0000000E+00
 2.24825  0.0000000E+00
 2.27125  0.0000000E+00
 2.29425  0.0000000E+00
 2.31725  0.0000000E+00
 2.34025  0.0000000E+00
 2.36325  0.0000000E+00
 2.38625  0.0000000E+00
 2.40925  0.0000000E+00
 2.43225  0.0000000E+00
 2.45525  0.0000000E+00
 2.47825  0.0000000E+00
 2.50125  0.0000000E+00
 2.52425  0.0000000E+00
 2.54725  0.0000000E+00
 2.57025  0.0000000E+00
 2.59325  0.0000000E+00
 2.61625  0.0000000E+00
 2.63925  0.0000000E+00
 2.66225  0.0000000E+00
 2.68525  0.0000000E+00
 2.70825  0.0000000E+00
 2.73125  0.0000000E+00
 2.75425  0.0000000E+00
 2.77725  0.0000000E+00
 2.80025  0.0000000E+00
 2.82325  33.7651
 2.84625  33.9906
 2.86925  35.4232
 2.89225  36.4786
 2.91525  36.8055
 2.93825  35.8189
 2.96125  35.5583
 2.98425  35.5928
 3.00725  36.2579
 3.03025  36.6874
 3.05325  36.093
 3.07625  35.1115
 3.09925  34.7927
 3.12225  35.2673
 3.14525  35.8442
 3.16825  35.5626
 3.19125  35.0472
 3.21425  35.6197
 3.23725  35.7321
 3.26025  35.4661
 3.28325  35.0817
 3.30625  34.4063
 3.32925  34.0627
 3.35225  34.4407
 3.37525  34.5952
 3.39825  34.3032
 3.42125  34.0136
 3.44425  34.0081
 3.46725  34.3127
 3.49025  34.7929
 3.51325  35.0339
 3.53625  35.0134
 3.55925  34.3889
 3.58225  33.8094
 3.60525  33.7982
 3.62825  33.931
 3.65125  33.8999
 3.67425  33.5825
 3.69725  33.5224
 3.72025  33.5762
 3.74325  33.6984
 3.76625  33.3544
 3.78925  32.9845
 3.81225  32.6987
 3.83525  33.0236
 3.85825  32.9068
 3.88125  32.6644
 3.90425  32.5761
 3.92725  32.6586
 3.95025  32.7302
 3.97325  33.029
 3.99625  33.4358
 4.01925  33.4422
 4.04225  33.3696
 4.06525  33.1124
 4.08825  32.7064
 4.11125  32.6042
 4.13425  32.9165
 4.15725  33.0015
 4.18025  32.84
 4.20325  33.06
 4.22625  32.7046
 4.24925  32.3513
 4.27225  32.4433
 4.29525  32.4984
 4.31825  32.3786
 4.34125  32.4443
 4.36425  32.4903
 4.38725  32.5571
 4.41025  32.5134
 4.43325  32.7119
 4.45625  32.9596
 4.47925  33.0668
 4.50225  33.0731
 4.52525  32.882
 4.54825  32.5165
 4.57125  32.3777
 4.59425  32.491
 4.61725  32.7704
 4.64025  33.1114
 4.66325  33.2476
 4.68625  33.2773
 4.70925  33.2459
 4.73225  32.8996
 4.75525  32.709
 4.77825  32.5657
 4.80125  32.4574
 4.82425  32.7761
 4.84725  33.0652
 4.87025  33.276
 4.89325  33.1864
 4.91625  33.3043
 4.93925  33.3582
 4.96225  33.2035
 4.98525  33.1049
 5.00825  33.3396
 5.03125  33.5576
 5.05425  33.6184
 5.07725  33.626
 5.10025  33.6909
 5.12325  33.718
 5.14625  33.8773
 5.16925  33.9111
 5.19225  33.9685
 5.21525  34.0417
 5.23825  34.0189
 5.26125  34.0707
 5.28425  34.2895
 5.30725  34.4767
 5.33025  34.5785
 5.35325  34.6031
 5.37625  34.5989
 5.39925  34.8221
 5.42225  34.9116
 5.44525  34.9204
 5.46825  34.9605
 5.49125  34.8231
 5.51425  34.8377
 5.53725  34.8701
 5.56025  34.9127
 5.58325  34.9688
 5.60625  35.3102
 5.62925  35.4162
 5.65225  35.4905
 5.67525  35.5141
 5.69825  35.5672
 5.72125  35.8035
 5.74425  36.0716
 5.76725  36.2547
 5.79025  36.2932
 5.81325  36.3645
 5.83625  36.7655
 5.85925  37.0634
 5.88225  37.2416
 5.90525  38.3431
 5.92825  42.6154
 5.95125  53.2714
 5.97425  69.6858
 5.99725  68.978
 6.02025  57.1073
 6.04325  42.5861
 6.06625  38.6084
 6.08925  38.1106
 6.11225  38.0548
 6.13525  37.8659
 6.15825  37.8131
 6.18125  37.9985
 6.20425  37.9568
 6.22725  37.8484
 6.25025  37.8914
 6.27325  38.0899
 6.29625  38.2937
 6.31925  38.1987
 6.34225  38.4684
 6.36525  38.7199
 6.38825  38.7751
 6.41125  38.755
 6.43425  38.9029
 6.45725  38.9835
 6.48025  38.9237
 6.50325  39.057
 6.52625  39.287
 6.54925  39.3739
 6.57225  39.5737
 6.59525  39.7472
 6.61825  40.0205
 6.64125  40.3044
 6.66425  40.5107
 6.68725  40.4729
 6.71025  40.4779
 6.73325  40.6545
 6.75625  40.8929
 6.77925  41.1791
 6.80225  41.3559
 6.82525  41.5463
 6.84825  41.5837
 6.87125  41.829
 6.89425  42.1055
 6.91725  42.3446
 6.94025  42.4527
 6.96325  42.4925
 6.98625  42.6392
 7.00925  42.6443
 7.03225  42.7095
 7.05525  42.6266
 7.07825  42.5939
 7.10125  42.7042
 7.12425  43.0469
 7.14725  43.2364
 7.17025  43.4033
 7.19325  43.6828
 7.21625  43.8044
 7.23925  43.9438
 7.26225  44.0572
 7.28525  44.0466
 7.30825  43.9739
 7.33125  44.0377
 7.35425  44.2661
 7.37725  44.427
 7.40025  44.6339
 7.42325  44.6888
 7.44625  44.766
 7.46925  44.6975
 7.49225  44.6681
 7.51525  44.5539
 7.53825  44.4051
 7.56125  44.5076
 7.58425  44.5988
 7.60725  44.6921
 7.63025  44.6724
 7.65325  44.6837
 7.67625  44.5708
 7.69925  44.4992
 7.72225  44.5067
 7.74525  44.678
 7.76825  44.5617
 7.79125  44.6104
 7.81425  44.6478
 7.83725  44.7871
 7.86025  44.6798
 7.88325  44.4235
 7.90625  44.2321
 7.92925  44.0752
 7.95225  43.9078
 7.97525  43.687
 7.99825  43.7175
 8.02125  43.7292
 8.04425  43.5913
 8.06725  43.3536
 8.09025  43.1623
 8.11325  43.133
 8.13625  43.0538
 8.15925  42.9797
 8.18225  42.7132
 8.20525  42.323
 8.22825  41.9658
 8.25125  41.5865
 8.27425  41.3504
 8.29725  41.0069
 8.32025  40.7311
 8.34325  40.4784
 8.36625  40.1759
 8.38925  39.846
 8.41225  39.6484
 8.43525  39.2892
 8.45825  38.7563
 8.48125  38.326
 8.50425  38.0724
 8.52725  37.8627
 8.55025  37.5599
 8.57325  37.1499
 8.59625  36.571
 8.61925  36.1202
 8.64225  35.8965
 8.66525  35.5971
 8.68825  35.3989
 8.71125  35.0525
 8.73425  34.6747
 8.75725  34.3328
 8.78025  34.0238
 8.80325  33.6748
 8.82625  33.4003
 8.84925  33.0763
 8.87225  32.6504
 8.89525  32.2334
 8.91825  31.7443
 8.94125  31.3905
 8.96425  31.1784
 8.98725  31.0828
 9.01025  30.831
 9.03325  30.4481
 9.05625  30.1856
 9.07925  29.8659
 9.10225  29.5539
 9.12525  29.364
 9.14825  29.1433
 9.17125  28.8766
 9.19425  28.8497
 9.21725  28.7994
 9.24025  28.5517
 9.26325  28.2388
 9.28625  27.9675
 9.30925  27.8145
 9.33225  27.6241
 9.35525  27.4049
 9.37825  27.2718
 9.40125  27.0117
 9.42425  26.9308
 9.44725  26.763
 9.47025  26.5787
 9.49325  26.4503
 9.51625  26.3008
 9.53925  26.245
 9.56225  26.1706
 9.58525  25.9105
 9.60825  25.7714
 9.63125  25.7527
 9.65425  25.6568
 9.67725  25.4958
 9.70025  25.423
 9.72325  25.2536
 9.74625  25.2154
 9.76925  25.1961
 9.79225  25.178
 9.81525  25.0802
 9.83825  24.8756
 9.86125  24.756
 9.88425  24.7147
 9.90725  24.647
 9.93025  24.5076
 9.95325  24.2819
 9.97625  24.2905
 9.99925  24.2181
 10.0222  24.1292
 10.0453  24.0573
 10.0683  24.0422
 10.0913  24.0275
 10.1143  24.0863
 10.1373  24.0967
 10.1603  24.059
 10.1832  23.8398
 10.2063  23.6659
 10.2293  23.6773
 10.2523  23.5988
 10.2752  23.5529
 10.2982  23.5338
 10.3213  23.413
 10.3443  23.3737
 10.3673  23.3313
 10.3902  23.3228
 10.4133  23.4003
 10.4363  23.3628
 10.4593  23.2209
 10.4823  23.1595
 10.5053  23.2322
 10.5283  23.2858
 10.5512  23.2973
 10.5742  23.192
 10.5973  23.0076
 10.6203  23.0356
 10.6433  23.0075
 10.6662  23.0365
 10.6893  22.9643
 10.7123  22.8772
 10.7353  22.7467
 10.7583  22.7807
 10.7813  22.7296
 10.8043  22.5901
 10.8272  22.566
 10.8503  22.6345
 10.8733  22.7371
 10.8963  22.6919
 10.9192  22.6519
 10.9422  22.646
 10.9653  22.6591
 10.9883  22.7233
 11.0113  22.6587
 11.0343  22.6181
 11.0573  22.5716
 11.0803  22.6105
 11.1033  22.5565
 11.1263  22.5531
 11.1493  22.5886
 11.1723  22.509
 11.1953  22.4294
 11.2182  22.4236
 11.2413  22.3456
 11.2643  22.3337
 11.2873  22.3358
 11.3102  22.3546
 11.3333  22.4579
 11.3563  22.5096
 11.3793  22.5685
 11.4023  22.7206
 11.4253  22.6603
 11.4483  22.6539
 11.4713  22.7058
 11.4942  22.7855
 11.5173  22.8595
 11.5403  23.9589
 11.5633  25.6157
 11.5862  27.3933
 11.6093  27.8522
 11.6323  26.1454
 11.6553  24.0136
 11.6783  22.954
 11.7013  22.625
 11.7243  22.5322
 11.7473  22.5766
 11.7703  22.5742
 11.7933  22.4787
 11.8163  22.504
 11.8393  22.4312
 11.8622  22.3294
 11.8853  22.2607
 11.9083  22.4085
 11.9313  22.6517
 11.9543  22.796
 11.9773  22.855
 12.0003  22.8301
 12.0233  22.7719
 12.0463  22.8499
 12.0693  23.2248
 12.0923  23.7917
 12.1153  23.9702
 12.1382  23.5559
 12.1613  23.0509
 12.1843  22.7252
 12.2073  22.6065
 12.2302  22.5442
 12.2533  22.5462
 12.2763  22.4971
 12.2993  22.432
 12.3223  22.4235
 12.3453  22.4533
 12.3683  22.4739
 12.3913  22.5229
 12.4142  22.5206
 12.4373  22.5186
 12.4603  22.6108
 12.4833  22.6662
 12.5062  22.5918
 12.5292  22.5947
 12.5523  22.6862
 12.5753  22.7648
 12.5983  22.8669
 12.6212  22.8689
 12.6443  22.783
 12.6673  22.7993
 12.6903  22.8311
 12.7133  22.8508
 12.7363  22.8286
 12.7593  22.9013
 12.7822  23.0516
 12.8052  23.0572
 12.8283  23.1622
 12.8513  23.3045
 12.8742  23.5033
 12.8972  23.4914
 12.9203  23.5448
 12.9433  23.6997
 12.9663  23.81
 12.9893  23.8293
 13.0123  23.876
 13.0353  24.0102
 13.0582  24.2131
 13.0813  24.4051
 13.1043  24.7431
 13.1273  25.0204
 13.1502  25.2212
 13.1732  25.4113
 13.1963  25.659
 13.2193  25.9177
 13.2423  26.213
 13.2652  26.4958
 13.2883  26.7687
 13.3113  26.9767
 13.3343  27.3877
 13.3573  27.6466
 13.3803  27.948
 13.4033  28.3573
 13.4262  28.5273
 13.4492  28.5976
 13.4723  28.8057
 13.4953  29.1281
 13.5183  29.4047
 13.5412  29.5625
 13.5643  29.6795
 13.5873  29.8091
 13.6103  29.8452
 13.6333  29.8655
 13.6563  29.75
 13.6793  29.6352
 13.7022  29.5816
 13.7253  29.5166
 13.7483  29.4196
 13.7713  29.3486
 13.7942  29.2486
 13.8172  29.1082
 13.8403  28.9378
 13.8633  28.8715
 13.8863  28.763
 13.9093  28.9165
 13.9323  29.0998
 13.9553  29.1905
 13.9783  28.7921
 14.0013  28.2675
 14.0243  27.8092
 14.0473  27.5588
 14.0703  27.4244
 14.0932  27.242
 14.1163  27.13
 14.1393  27.0542
 14.1623  26.8921
 14.1852  26.6799
 14.2083  26.5637
 14.2313  26.5512
 14.2543  26.4553
 14.2773  26.4044
 14.3003  26.3545
 14.3233  26.2309
 14.3463  26.0456
 14.3692  25.9778
 14.3923  25.9559
 14.4153  25.9624
 14.4383  25.8802
 14.4612  25.7552
 14.4843  25.6513
 14.5073  25.5615
 14.5303  25.4625
 14.5533  25.4686
 14.5763  25.5093
 14.5993  25.4756
 14.6223  25.3934
 14.6453  25.266
 14.6683  25.2035
 14.6913  25.3283
 14.7143  25.2278
 14.7372  25.0987
 14.7603  25.1365
 14.7833  25.1617
 14.8063  25.1746
 14.8293  25.0756
 14.8523  25.0433
 14.8753  24.8689
 14.8983  24.8501
 14.9213  24.8526
 14.9443  24.7412
 14.9673  24.7427
 14.9903  24.7777
 15.0132  24.7951
 15.0363  24.7174
 15.0593  24.6416
 15.0823  24.7386
 15.1052  24.9242
 15.1283  25.0235
 15.1513  25.4428
 15.1743  25.9049
 15.1973  25.9863
 15.2203  25.5505
 15.2433  25.1337
 15.2663  24.8597
 15.2892  24.685
 15.3123  24.6896
 15.3353  24.7258
 15.3583  24.5829
 15.3812  24.5071
 15.4043  24.4647
 15.4273  24.4535
 15.4503  24.4311
 15.4733  24.3919
 15.4963  24.4476
 15.5193  24.4786
 15.5423  24.3199
 15.5653  24.3434
 15.5883  24.3912
 15.6113  24.4402
 15.6343  24.4598
 15.6572  24.5518
 15.6803  24.5451
 15.7033  24.5461
 15.7263  24.5762
 15.7492  24.4692
 15.7723  24.4122
 15.7953  24.4777
 15.8183  24.6086
 15.8413  24.5299
 15.8643  24.4974
 15.8873  24.5731
 15.9103  24.6801
 15.9332  24.7592
 15.9563  24.6661
 15.9793  24.5841
 16.0023  24.651
 16.0253  24.7337
 16.0482  24.7791
 16.0713  24.6079
 16.0943  24.5104
 16.1172  24.6016
 16.1403  24.6677
 16.1633  24.7888
 16.1863  24.8958
 16.2093  24.9457
 16.2323  24.841
 16.2553  24.96
 16.2783  25.1109
 16.3012  24.9178
 16.3243  24.7895
 16.3472  24.7237
 16.3703  24.6603
 16.3933  24.6853
 16.4163  24.7623
 16.4393  24.7403
 16.4623  24.641
 16.4853  24.605
 16.5083  24.6486
 16.5312  24.6062
 16.5543  24.6497
 16.5773  24.6529
 16.6002  24.5394
 16.6233  24.4502
 16.6463  24.4833
 16.6693  24.5021
 16.6923  24.4359
 16.7153  24.3776
 16.7383  24.2777
 16.7613  24.2889
 16.7843  24.3146
 16.8073  24.4077
 16.8303  24.4004
 16.8533  24.3415
 16.8763  24.3707
 16.8992  24.3495
 16.9223  24.4022
 16.9453  24.392
 16.9683  24.2798
 16.9913  24.2549
 17.0143  24.236
 17.0373  24.132
 17.0603  24.0031
 17.0832  24.0735
 17.1063  24.1592
 17.1293  24.271
 17.1522  24.3043
 17.1753  24.1702
 17.1983  24.1065
 17.2213  24.1007
 17.2443  24.0466
 17.2673  23.9843
 17.2903  24.0353
 17.3133  24.012
 17.3362  24.0137
 17.3593  23.9785
 17.3823  23.9899
 17.4053  24.0188
 17.4283  23.9708
 17.4513  23.9803
 17.4743  23.9474
 17.4973  23.929
 17.5203  23.9026
 17.5433  23.8532
 17.5663  23.7509
 17.5893  23.7531
 17.6123  23.849
 17.6352  23.8639
 17.6583  23.8301
 17.6813  23.8043
 17.7042  23.8223
 17.7273  23.8284
 17.7503  23.8548
 17.7733  23.7686
 17.7963  23.7291
 17.8193  23.7579
 17.8423  23.7973
 17.8653  23.8339
 17.8882  23.7281
 17.9113  23.7161
 17.9343  23.7135
 17.9573  23.6632
 17.9803  23.7277
 18.0033  23.8764
 18.0263  23.9218
 18.0493  23.9137
 18.0723  23.9525
 18.0953  24.0303
 18.1183  24.0344
 18.1413  23.9751
 18.1643  23.8248
 18.1872  23.6489
 18.2103  23.5425
 18.2333  23.4495
 18.2563  23.4544
 18.2793  23.5031
 18.3023  23.5151
 18.3253  23.47
 18.3483  23.5348
 18.3712  23.5832
 18.3943  23.6096
 18.4173  23.6508
 18.4402  23.5513
 18.4633  23.5153
 18.4863  23.5918
 18.5093  23.5186
 18.5323  23.4771
 18.5553  23.4609
 18.5783  23.4874
 18.6013  23.5538
 18.6242  23.5316
 18.6473  23.4894
 18.6703  23.3558
 18.6933  23.4202
 18.7163  23.425
 18.7392  23.4024
 18.7623  23.4157
 18.7853  23.4376
 18.8083  23.4129
 18.8313  23.3093
 18.8543  23.3025
 18.8773  23.3953
 18.9003  23.431
 18.9232  23.5313
 18.9463  23.6291
 18.9693  23.5848
 18.9922  23.454
 19.0153  23.4755
 19.0383  23.5221
 19.0613  23.4691
 19.0843  23.4935
 19.1073  23.4757
 19.1303  23.4511
 19.1533  23.4757
 19.1762  23.3935
 19.1993  23.385
 19.2223  23.474
 19.2453  23.5325
 19.2683  23.5622
 19.2913  23.4583
 19.3143  23.5069
 19.3373  23.4918
 19.3603  23.5327
 19.3833  23.567
 19.4062  23.5072
 19.4293  23.5162
 19.4523  23.4639
 19.4752  23.5074
 19.4983  23.5239
 19.5213  23.5668
 19.5443  23.5841
 19.5673  23.5543
 19.5903  23.4986
 19.6133  23.5605
 19.6363  23.693
 19.6593  23.7783
 19.6823  23.9764
 19.7053  24.1421
 19.7283  24.2653
 19.7513  24.1533
 19.7742  24.0113
 19.7973  23.9796
 19.8203  24.0261
 19.8433  24.0713
 19.8663  24.1063
 19.8893  24.0209
 19.9123  23.8524
 19.9353  23.6434
 19.9582  23.5762
 19.9813  23.5896
 20.0043  23.6036
 20.0272  23.629
 20.0503  23.6694
 20.0733  23.6096
 20.0963  23.5877
 20.1193  23.664
 20.1423  23.5335
 20.1653  23.5137
 20.1883  23.5717
 20.2112  23.5667
 20.2343  23.6113
 20.2573  23.6888
 20.2803  23.6838
 20.3033  23.5256
 20.3263  23.5663
 20.3493  23.5589
 20.3723  23.4994
 20.3953  23.5237
 20.4183  23.6161
 20.4413  23.7037
 20.4643  23.6561
 20.4873  23.5342
 20.5102  23.5983
 20.5333  23.5082
 20.5563  23.6011
 20.5792  23.6846
 20.6023  23.8024
 20.6253  23.8216
 20.6483  23.6445
 20.6713  23.5934
 20.6943  23.7594
 20.7173  23.8879
 20.7403  23.8756
 20.7632  23.9449
 20.7863  23.974
 20.8093  23.9252
 20.8323  23.8717
 20.8553  23.7957
 20.8783  23.7346
 20.9013  23.7671
 20.9243  23.8046
 20.9473  23.9149
 20.9703  23.8223
 20.9933  23.8059
 21.0163  23.782
 21.0393  23.8068
 21.0622  23.8201
 21.0853  23.7874
 21.1083  23.7935
 21.1313  23.8064
 21.1543  23.7852
 21.1773  23.8123
 21.2003  23.7674
 21.2233  23.7373
 21.2462  23.7811
 21.2693  23.8317
 21.2923  23.8622
 21.3152  23.8318
 21.3383  23.8698
 21.3613  23.8805
 21.3843  23.8766
 21.4073  23.7977
 21.4303  23.8578
 21.4533  23.9357
 21.4763  23.9464
 21.4992  23.8613
 21.5223  23.9044
 21.5453  23.8976
 21.5683  23.8607
 21.5913  23.9151
 21.6142  23.9912
 21.6373  24.0001
 21.6603  23.9846
 21.6833  23.9743
 21.7063  23.9555
 21.7293  23.993
 21.7523  24.0188
 21.7753  24.0494
 21.7982  24.0256
 21.8213  24.0563
 21.8443  24.0334
 21.8672  24.1015
 21.8903  24.0644
 21.9133  24.0928
 21.9363  24.0716
 21.9593  24.1885
 21.9823  24.2977
 22.0053  24.1926
 22.0283  24.1032
 22.0512  24.104
 22.0743  24.1193
 22.0973  24.1765
 22.1203  24.2477
 22.1433  24.3147
 22.1663  24.3794
 22.1893  24.3342
 22.2123  24.3035
 22.2353  24.3267
 22.2583  24.3051
 22.2813  24.3299
 22.3043  24.5129
 22.3273  24.476
 22.3502  24.4644
 22.3733  24.4833
 22.3963  24.4422
 22.4193  24.4474
 22.4423  24.5235
 22.4653  24.5391
 22.4883  24.5036
 22.5113  24.637
 22.5343  24.7281
 22.5573  24.7113
 22.5803  24.711
 22.6033  24.8149
 22.6263  24.9494
 22.6493  24.9369
 22.6723  24.9145
 22.6953  25.0062
 22.7183  25.1013
 22.7413  25.1506
 22.7643  25.1099
 22.7873  25.1367
 22.8103  25.2194
 22.8333  25.3154
 22.8563  25.3425
 22.8793  25.4453
 22.9022  25.5965
 22.9253  25.7961
 22.9483  25.838
 22.9713  26.0161
 22.9943  26.1825