File: test-data-xrd/xrd-map-34-ID-E/Data_0029.chi
F:\20151113_APS_34IDE\\Brian\Particle1\OCV\Data_0029.tif
2-Theta Angle (Degrees)
Intensity
       2000
 0.01725  0.0000000E+00
 0.04025  0.0000000E+00
 0.06325  0.0000000E+00
 0.08625  0.0000000E+00
 0.10925  0.0000000E+00
 0.13225  0.0000000E+00
 0.15525  0.0000000E+00
 0.17825  0.0000000E+00
 0.20125  0.0000000E+00
 0.22425  0.0000000E+00
 0.24725  0.0000000E+00
 0.27025  0.0000000E+00
 0.29325  0.0000000E+00
 0.31625  0.0000000E+00
 0.33925  0.0000000E+00
 0.36225  0.0000000E+00
 0.38525  0.0000000E+00
 0.40825  0.0000000E+00
 0.43125  0.0000000E+00
 0.45425  0.0000000E+00
 0.47725  0.0000000E+00
 0.50025  0.0000000E+00
 0.52325  0.0000000E+00
 0.54625  0.0000000E+00
 0.56925  0.0000000E+00
 0.59225  0.0000000E+00
 0.61525  0.0000000E+00
 0.63825  0.0000000E+00
 0.66125  0.0000000E+00
 0.68425  0.0000000E+00
 0.70725  0.0000000E+00
 0.73025  0.0000000E+00
 0.75325  0.0000000E+00
 0.77625  0.0000000E+00
 0.79925  0.0000000E+00
 0.82225  0.0000000E+00
 0.84525  0.0000000E+00
 0.86825  0.0000000E+00
 0.89125  0.0000000E+00
 0.91425  0.0000000E+00
 0.93725  0.0000000E+00
 0.96025  0.0000000E+00
 0.98325  0.0000000E+00
 1.00625  0.0000000E+00
 1.02925  0.0000000E+00
 1.05225  0.0000000E+00
 1.07525  0.0000000E+00
 1.09825  0.0000000E+00
 1.12125  0.0000000E+00
 1.14425  0.0000000E+00
 1.16725  0.0000000E+00
 1.19025  0.0000000E+00
 1.21325  0.0000000E+00
 1.23625  0.0000000E+00
 1.25925  0.0000000E+00
 1.28225  0.0000000E+00
 1.30525  0.0000000E+00
 1.32825  0.0000000E+00
 1.35125  0.0000000E+00
 1.37425  0.0000000E+00
 1.39725  0.0000000E+00
 1.42025  0.0000000E+00
 1.44325  0.0000000E+00
 1.46625  0.0000000E+00
 1.48925  0.0000000E+00
 1.51225  0.0000000E+00
 1.53525  0.0000000E+00
 1.55825  0.0000000E+00
 1.58125  0.0000000E+00
 1.60425  0.0000000E+00
 1.62725  0.0000000E+00
 1.65025  0.0000000E+00
 1.67325  0.0000000E+00
 1.69625  0.0000000E+00
 1.71925  0.0000000E+00
 1.74225  0.0000000E+00
 1.76525  0.0000000E+00
 1.78825  0.0000000E+00
 1.81125  0.0000000E+00
 1.83425  0.0000000E+00
 1.85725  0.0000000E+00
 1.88025  0.0000000E+00
 1.90325  0.0000000E+00
 1.92625  0.0000000E+00
 1.94925  0.0000000E+00
 1.97225  0.0000000E+00
 1.99525  0.0000000E+00
 2.01825  0.0000000E+00
 2.04125  0.0000000E+00
 2.06425  0.0000000E+00
 2.08725  0.0000000E+00
 2.11025  0.0000000E+00
 2.13325  0.0000000E+00
 2.15625  0.0000000E+00
 2.17925  0.0000000E+00
 2.20225  0.0000000E+00
 2.22525  0.0000000E+00
 2.24825  0.0000000E+00
 2.27125  0.0000000E+00
 2.29425  0.0000000E+00
 2.31725  0.0000000E+00
 2.34025  0.0000000E+00
 2.36325  0.0000000E+00
 2.38625  0.0000000E+00
 2.40925  0.0000000E+00
 2.43225  0.0000000E+00
 2.45525  0.0000000E+00
 2.47825  0.0000000E+00
 2.50125  0.0000000E+00
 2.52425  0.0000000E+00
 2.54725  0.0000000E+00
 2.57025  0.0000000E+00
 2.59325  0.0000000E+00
 2.61625  0.0000000E+00
 2.63925  0.0000000E+00
 2.66225  0.0000000E+00
 2.68525  0.0000000E+00
 2.70825  0.0000000E+00
 2.73125  0.0000000E+00
 2.75425  0.0000000E+00
 2.77725  0.0000000E+00
 2.80025  0.0000000E+00
 2.82325  33.467
 2.84625  33.2224
 2.86925  34.5068
 2.89225  35.9445
 2.91525  35.9784
 2.93825  35.261
 2.96125  35.5076
 2.98425  35.5622
 3.00725  36.3444
 3.03025  36.6911
 3.05325  35.9473
 3.07625  34.8356
 3.09925  35.9424
 3.12225  36.7838
 3.14525  36.9767
 3.16825  37.0554
 3.19125  36.7466
 3.21425  36.066
 3.23725  35.3537
 3.26025  35.0107
 3.28325  35.05
 3.30625  34.9059
 3.32925  34.6201
 3.35225  34.5469
 3.37525  34.24
 3.39825  34.0662
 3.42125  34.4313
 3.44425  34.5718
 3.46725  34.5589
 3.49025  34.4367
 3.51325  34.2984
 3.53625  34.8125
 3.55925  34.7098
 3.58225  34.1049
 3.60525  33.6183
 3.62825  33.5609
 3.65125  33.9928
 3.67425  33.9467
 3.69725  34.0087
 3.72025  33.8845
 3.74325  33.8707
 3.76625  33.6104
 3.78925  33.2615
 3.81225  33.134
 3.83525  32.9766
 3.85825  32.6258
 3.88125  32.8928
 3.90425  32.9843
 3.92725  33.3175
 3.95025  33.333
 3.97325  33.2517
 3.99625  32.9733
 4.01925  33.0914
 4.04225  33.1458
 4.06525  32.8409
 4.08825  32.7343
 4.11125  33.0234
 4.13425  32.9948
 4.15725  32.8019
 4.18025  32.3776
 4.20325  32.3201
 4.22625  32.3617
 4.24925  32.4933
 4.27225  32.6203
 4.29525  32.7507
 4.31825  32.7183
 4.34125  32.681
 4.36425  32.6396
 4.38725  32.3648
 4.41025  32.1947
 4.43325  32.2112
 4.45625  32.3386
 4.47925  32.6906
 4.50225  32.6936
 4.52525  32.5557
 4.54825  32.4536
 4.57125  32.4943
 4.59425  32.8613
 4.61725  32.9638
 4.64025  32.9278
 4.66325  32.9896
 4.68625  33.1457
 4.70925  33.2739
 4.73225  33.0254
 4.75525  33.0278
 4.77825  33.0743
 4.80125  33.0292
 4.82425  32.9238
 4.84725  32.8334
 4.87025  32.7466
 4.89325  32.9039
 4.91625  33.1234
 4.93925  33.1692
 4.96225  33.0252
 4.98525  33.0804
 5.00825  33.4061
 5.03125  33.4383
 5.05425  33.4807
 5.07725  33.5117
 5.10025  33.8989
 5.12325  34.1302
 5.14625  34.1555
 5.16925  34.102
 5.19225  34.3413
 5.21525  34.2057
 5.23825  34.2841
 5.26125  34.398
 5.28425  34.4956
 5.30725  34.5907
 5.33025  34.6818
 5.35325  34.6956
 5.37625  34.6663
 5.39925  34.9524
 5.42225  34.9492
 5.44525  34.8304
 5.46825  34.8462
 5.49125  34.9062
 5.51425  35.1258
 5.53725  35.4712
 5.56025  35.5056
 5.58325  35.2268
 5.60625  35.3023
 5.62925  35.5721
 5.65225  35.8346
 5.67525  36.1381
 5.69825  36.1207
 5.72125  36.0595
 5.74425  35.993
 5.76725  35.9816
 5.79025  36.089
 5.81325  36.2737
 5.83625  36.3891
 5.85925  36.5579
 5.88225  36.6974
 5.90525  37.3369
 5.92825  38.9081
 5.95125  41.3908
 5.97425  44.0054
 5.99725  43.745
 6.02025  41.4007
 6.04325  38.5766
 6.06625  37.4075
 6.08925  37.1311
 6.11225  37.1317
 6.13525  37.1267
 6.15825  37.1322
 6.18125  37.3598
 6.20425  37.303
 6.22725  37.4389
 6.25025  37.6225
 6.27325  37.823
 6.29625  37.9295
 6.31925  37.888
 6.34225  38.1926
 6.36525  38.3816
 6.38825  38.4318
 6.41125  38.6203
 6.43425  38.812
 6.45725  38.891
 6.48025  38.901
 6.50325  39.1386
 6.52625  39.5528
 6.54925  39.7167
 6.57225  39.7898
 6.59525  40.0336
 6.61825  40.3694
 6.64125  40.5222
 6.66425  40.3658
 6.68725  40.3666
 6.71025  40.5454
 6.73325  40.8375
 6.75625  41.1194
 6.77925  41.6143
 6.80225  41.8661
 6.82525  41.7814
 6.84825  41.7058
 6.87125  41.8405
 6.89425  42.0181
 6.91725  42.2811
 6.94025  42.4233
 6.96325  42.3862
 6.98625  42.3982
 7.00925  42.5258
 7.03225  42.5237
 7.05525  42.7063
 7.07825  42.9
 7.10125  43.0754
 7.12425  43.1806
 7.14725  43.3877
 7.17025  43.6935
 7.19325  43.9362
 7.21625  43.7924
 7.23925  43.8356
 7.26225  43.9553
 7.28525  44.058
 7.30825  44.1575
 7.33125  44.3291
 7.35425  44.3368
 7.37725  44.3393
 7.40025  44.4607
 7.42325  44.5805
 7.44625  44.645
 7.46925  44.5417
 7.49225  44.613
 7.51525  44.7475
 7.53825  44.9174
 7.56125  44.9121
 7.58425  44.8807
 7.60725  44.9234
 7.63025  44.8344
 7.65325  44.7642
 7.67625  44.7479
 7.69925  44.7796
 7.72225  44.7217
 7.74525  44.6306
 7.76825  44.511
 7.79125  44.6231
 7.81425  44.6521
 7.83725  44.7802
 7.86025  44.8069
 7.88325  44.6581
 7.90625  44.4757
 7.92925  44.2578
 7.95225  44.1256
 7.97525  43.9585
 7.99825  44.1233
 8.02125  44.1451
 8.04425  43.9664
 8.06725  43.6431
 8.09025  43.3412
 8.11325  43.0013
 8.13625  42.6412
 8.15925  42.5646
 8.18225  42.5301
 8.20525  42.3302
 8.22825  42.0327
 8.25125  41.7224
 8.27425  41.4033
 8.29725  41.0373
 8.32025  40.8283
 8.34325  40.6124
 8.36625  40.413
 8.38925  40.1448
 8.41225  39.8629
 8.43525  39.4468
 8.45825  38.9701
 8.48125  38.5734
 8.50425  38.1959
 8.52725  37.9085
 8.55025  37.5608
 8.57325  37.2334
 8.59625  36.8389
 8.61925  36.5161
 8.64225  36.238
 8.66525  35.9213
 8.68825  35.6234
 8.71125  35.438
 8.73425  35.0304
 8.75725  34.6733
 8.78025  34.3609
 8.80325  33.9358
 8.82625  33.4697
 8.84925  33.0132
 8.87225  32.6684
 8.89525  32.4637
 8.91825  32.205
 8.94125  31.899
 8.96425  31.6218
 8.98725  31.2907
 9.01025  31.0029
 9.03325  30.7097
 9.05625  30.4309
 9.07925  30.381
 9.10225  30.2652
 9.12525  29.9118
 9.14825  29.638
 9.17125  29.4765
 9.19425  29.2717
 9.21725  29.0779
 9.24025  28.7376
 9.26325  28.4433
 9.28625  28.1599
 9.30925  28.0001
 9.33225  27.8085
 9.35525  27.6488
 9.37825  27.4231
 9.40125  27.2139
 9.42425  27.071
 9.44725  27.0116
 9.47025  26.8845
 9.49325  26.8258
 9.51625  26.6302
 9.53925  26.5224
 9.56225  26.4851
 9.58525  26.3779
 9.60825  26.2373
 9.63125  26.0242
 9.65425  25.8028
 9.67725  25.6428
 9.70025  25.6765
 9.72325  25.7985
 9.74625  25.6883
 9.76925  25.3627
 9.79225  25.2947
 9.81525  25.2173
 9.83825  25.1228
 9.86125  25.031
 9.88425  24.8779
 9.90725  25.0761
 9.93025  25.5455
 9.95325  25.9534
 9.97625  25.8341
 9.99925  25.3182
 10.0222  24.8835
 10.0453  24.6906
 10.0683  24.5162
 10.0913  24.4156
 10.1143  24.3375
 10.1373  24.302
 10.1603  24.2412
 10.1832  24.1335
 10.2063  24.0649
 10.2293  24.0984
 10.2523  23.913
 10.2752  23.833
 10.2982  24.0101
 10.3213  23.9096
 10.3443  23.803
 10.3673  23.6409
 10.3902  23.6941
 10.4133  23.8286
 10.4363  23.6756
 10.4593  23.5805
 10.4823  23.5933
 10.5053  23.588
 10.5283  23.516
 10.5512  23.535
 10.5742  23.5356
 10.5973  23.496
 10.6203  23.3625
 10.6433  23.2198
 10.6662  23.1798
 10.6893  23.1233
 10.7123  23.1029
 10.7353  23.1473
 10.7583  23.1349
 10.7813  23.0594
 10.8043  22.9126
 10.8272  22.934
 10.8503  23.0088
 10.8733  22.9454
 10.8963  22.8309
 10.9192  22.8455
 10.9422  22.8997
 10.9653  22.9964
 10.9883  22.966
 11.0113  22.8638
 11.0343  22.8649
 11.0573  22.9607
 11.0803  22.9733
 11.1033  22.8265
 11.1263  22.8699
 11.1493  22.8566
 11.1723  22.7581
 11.1953  22.7061
 11.2182  22.7611
 11.2413  22.7571
 11.2643  22.7807
 11.2873  22.7863
 11.3102  22.8327
 11.3333  22.8625
 11.3563  22.8601
 11.3793  22.9352
 11.4023  23.293
 11.4253  23.3736
 11.4483  23.1549
 11.4713  23.0582
 11.4942  23.2146
 11.5173  23.7511
 11.5403  25.1737
 11.5633  27.9847
 11.5862  30.7279
 11.6093  30.4177
 11.6323  27.1988
 11.6553  24.6024
 11.6783  23.5769
 11.7013  23.1538
 11.7243  23.0284
 11.7473  23.0119
 11.7703  22.9131
 11.7933  22.8866
 11.8163  22.9705
 11.8393  23.0184
 11.8622  23.0629
 11.8853  22.9771
 11.9083  22.973
 11.9313  23.1865
 11.9543  23.5069
 11.9773  23.8899
 12.0003  24.0664
 12.0233  24.273
 12.0463  25.7023
 12.0693  31.1268
 12.0923  37.3994
 12.1153  37.7034
 12.1382  29.379
 12.1613  25.4463
 12.1843  23.8287
 12.2073  23.2813
 12.2302  23.2379
 12.2533  23.0611
 12.2763  22.9745
 12.2993  22.875
 12.3223  22.9029
 12.3453  22.9293
 12.3683  22.929
 12.3913  22.9801
 12.4142  22.9285
 12.4373  22.819
 12.4603  22.884
 12.4833  23.0225
 12.5062  22.9395
 12.5292  22.9428
 12.5523  22.8855
 12.5753  22.8473
 12.5983  22.9711
 12.6212  23.0551
 12.6443  23.0569
 12.6673  23.1677
 12.6903  23.2198
 12.7133  23.2724
 12.7363  23.2904
 12.7593  23.3051
 12.7822  23.2301
 12.8052  23.2606
 12.8283  23.4683
 12.8513  23.5796
 12.8742  23.6834
 12.8972  23.6802
 12.9203  23.8433
 12.9433  23.9837
 12.9663  24.1498
 12.9893  24.2492
 13.0123  24.2333
 13.0353  24.3335
 13.0582  24.5805
 13.0813  24.7987
 13.1043  25.0688
 13.1273  25.3013
 13.1502  25.5365
 13.1732  25.7321
 13.1963  25.9479
 13.2193  26.1874
 13.2423  26.4918
 13.2652  26.7353
 13.2883  26.9908
 13.3113  27.102
 13.3343  27.3613
 13.3573  27.7896
 13.3803  28.1486
 13.4033  28.5893
 13.4262  28.7488
 13.4492  29.0356
 13.4723  29.32
 13.4953  29.5511
 13.5183  29.7443
 13.5412  29.8547
 13.5643  29.9365
 13.5873  30.0257
 13.6103  30.1623
 13.6333  30.2592
 13.6563  30.2537
 13.6793  30.3298
 13.7022  30.1672
 13.7253  30.1011
 13.7483  30.0913
 13.7713  30.05
 13.7942  30.0695
 13.8172  30.1729
 13.8403  30.4408
 13.8633  31.2157
 13.8863  33.5125
 13.9093  39.4781
 13.9323  47.8248
 13.9553  51.7641
 13.9783  45.9464
 14.0013  37.2855
 14.0243  32.0687
 14.0473  29.7803
 14.0703  28.8379
 14.0932  28.3311
 14.1163  28.0567
 14.1393  27.8152
 14.1623  27.5461
 14.1852  27.3408
 14.2083  27.217
 14.2313  27.0024
 14.2543  26.791
 14.2773  26.6832
 14.3003  26.6856
 14.3233  26.5657
 14.3463  26.4261
 14.3692  26.3219
 14.3923  26.2362
 14.4153  26.079
 14.4383  26.137
 14.4612  26.0522
 14.4843  25.9165
 14.5073  25.9008
 14.5303  25.8904
 14.5533  25.877
 14.5763  25.7889
 14.5993  25.6851
 14.6223  25.6294
 14.6453  25.5735
 14.6683  25.581
 14.6913  25.6808
 14.7143  25.5978
 14.7372  25.474
 14.7603  25.505
 14.7833  25.4776
 14.8063  25.372
 14.8293  25.2569
 14.8523  25.2952
 14.8753  25.2489
 14.8983  25.257
 14.9213  25.2685
 14.9443  25.2068
 14.9673  25.1148
 14.9903  25.1515
 15.0132  25.2521
 15.0363  25.2331
 15.0593  25.1986
 15.0823  25.259
 15.1052  25.4424
 15.1283  25.5983
 15.1513  26.0779
 15.1743  27.0874
 15.1973  28.4598
 15.2203  28.481
 15.2433  26.6728
 15.2663  25.4116
 15.2892  25.0417
 15.3123  24.8627
 15.3353  24.8554
 15.3583  24.9187
 15.3812  24.839
 15.4043  24.7985
 15.4273  24.7389
 15.4503  24.7286
 15.4733  24.674
 15.4963  24.7091
 15.5193  24.7592
 15.5423  24.7839
 15.5653  24.7953
 15.5883  24.7207
 15.6113  24.6801
 15.6343  24.6419
 15.6572  24.7474
 15.6803  24.8131
 15.7033  24.7887
 15.7263  24.7384
 15.7492  24.7727
 15.7723  24.8246
 15.7953  24.8173
 15.8183  24.8717
 15.8413  24.8229
 15.8643  24.7828
 15.8873  24.7836
 15.9103  24.8032
 15.9332  24.9126
 15.9563  24.9922
 15.9793  24.939
 16.0023  24.8171
 16.0253  24.7972
 16.0482  24.9044
 16.0713  24.9445
 16.0943  24.9598
 16.1172  24.9414
 16.1403  25.0347
 16.1633  25.0697
 16.1863  25.1137
 16.2093  25.2472
 16.2323  25.5516
 16.2553  25.8899
 16.2783  25.957
 16.3012  25.6019
 16.3243  25.2897
 16.3472  25.2001
 16.3703  25.3345
 16.3933  25.1915
 16.4163  25.0614
 16.4393  24.9458
 16.4623  24.8734
 16.4853  24.8892
 16.5083  24.9645
 16.5312  24.8908
 16.5543  24.8467
 16.5773  24.8198
 16.6002  24.7658
 16.6233  24.7414
 16.6463  24.8318
 16.6693  24.8823
 16.6923  24.9198
 16.7153  24.9188
 16.7383  24.8986
 16.7613  24.8447
 16.7843  24.6991
 16.8073  24.5524
 16.8303  24.5157
 16.8533  24.6019
 16.8763  24.6153
 16.8992  24.5813
 16.9223  24.5704
 16.9453  24.5751
 16.9683  24.6086
 16.9913  24.6518
 17.0143  24.6724
 17.0373  24.5474
 17.0603  24.3903
 17.0832  24.3886
 17.1063  24.3745
 17.1293  24.3418
 17.1522  24.4763
 17.1753  24.5125
 17.1983  24.5245
 17.2213  24.5557
 17.2443  24.5775
 17.2673  24.3276
 17.2903  24.326
 17.3133  24.3642
 17.3362  24.3119
 17.3593  24.2576
 17.3823  24.2557
 17.4053  24.214
 17.4283  24.2154
 17.4513  24.25
 17.4743  24.1829
 17.4973  24.1308
 17.5203  24.1299
 17.5433  24.1351
 17.5663  24.0286
 17.5893  24.0128
 17.6123  23.9993
 17.6352  23.9903
 17.6583  23.9492
 17.6813  23.9492
 17.7042  24.0132
 17.7273  23.9655
 17.7503  23.9471
 17.7733  24.007
 17.7963  24.0812
 17.8193  23.9799
 17.8423  23.9286
 17.8653  23.9564
 17.8882  23.9163
 17.9113  23.8148
 17.9343  23.9016
 17.9573  23.9647
 17.9803  24.0321
 18.0033  24.3674
 18.0263  24.8814
 18.0493  25.2019
 18.0723  25.1034
 18.0953  25.015
 18.1183  24.9112
 18.1413  24.6373
 18.1643  24.3185
 18.1872  24.0883
 18.2103  23.995
 18.2333  23.9054
 18.2563  23.7875
 18.2793  23.8074
 18.3023  23.8145
 18.3253  23.7778
 18.3483  23.8275
 18.3712  23.8426
 18.3943  23.7554
 18.4173  23.7188
 18.4402  23.7986
 18.4633  23.8223
 18.4863  23.7723
 18.5093  23.753
 18.5323  23.7765
 18.5553  23.7165
 18.5783  23.7501
 18.6013  23.7725
 18.6242  23.783
 18.6473  23.809
 18.6703  23.7958
 18.6933  23.9163
 18.7163  23.9257
 18.7392  23.7736
 18.7623  23.7329
 18.7853  23.7496
 18.8083  23.8328
 18.8313  23.8001
 18.8543  23.6971
 18.8773  23.7085
 18.9003  23.769
 18.9232  23.7407
 18.9463  23.7394
 18.9693  23.5959
 18.9922  23.5309
 19.0153  23.6063
 19.0383  23.7239
 19.0613  23.6483
 19.0843  23.7297
 19.1073  23.7803
 19.1303  23.7716
 19.1533  23.7578
 19.1762  23.6715
 19.1993  23.6676
 19.2223  23.6891
 19.2453  23.7474
 19.2683  23.8102
 19.2913  23.8362
 19.3143  23.8917
 19.3373  23.7723
 19.3603  23.8158
 19.3833  23.8341
 19.4062  23.8316
 19.4293  23.8555
 19.4523  23.9115
 19.4752  23.8672
 19.4983  23.7794
 19.5213  23.7195
 19.5443  23.7945
 19.5673  23.8861
 19.5903  23.9916
 19.6133  24.0242
 19.6363  24.1156
 19.6593  24.4148
 19.6823  25.0097
 19.7053  25.658
 19.7283  25.6629
 19.7513  25.1733
 19.7742  24.7125
 19.7973  24.655
 19.8203  25.0677
 19.8433  25.8766
 19.8663  26.3461
 19.8893  25.9407
 19.9123  25.0763
 19.9353  24.4554
 19.9582  24.1386
 19.9813  23.9848
 20.0043  23.9571
 20.0272  23.9153
 20.0503  23.9172
 20.0733  23.8651
 20.0963  23.8785
 20.1193  23.9308
 20.1423  23.9222
 20.1653  23.9153
 20.1883  23.9614
 20.2112  23.9514
 20.2343  23.868
 20.2573  23.8787
 20.2803  23.9146
 20.3033  23.9093
 20.3263  23.9368
 20.3493  23.8657
 20.3723  23.895
 20.3953  23.9228
 20.4183  23.998
 20.4413  23.936
 20.4643  23.9278
 20.4873  23.9535
 20.5102  23.9976
 20.5333  23.8942
 20.5563  23.9287
 20.5792  24.0801
 20.6023  24.1506
 20.6253  24.19
 20.6483  24.2514
 20.6713  24.3765
 20.6943  24.7646
 20.7173  25.5174
 20.7403  26.6013
 20.7632  27.2928
 20.7863  26.7146
 20.8093  25.6656
 20.8323  24.7342
 20.8553  24.3977
 20.8783  24.3167
 20.9013  24.315
 20.9243  24.2706
 20.9473  24.0719
 20.9703  24.0357
 20.9933  24.0378
 21.0163  24.0341
 21.0393  24.0696
 21.0622  23.9787
 21.0853  23.9926
 21.1083  24.0321
 21.1313  24.0665
 21.1543  23.948
 21.1773  24.0376
 21.2003  24.0026
 21.2233  23.9411
 21.2462  24.0684
 21.2693  24.2453
 21.2923  24.1967
 21.3152  24.2259
 21.3383  24.2194
 21.3613  24.1876
 21.3843  24.1505
 21.4073  24.077
 21.4303  24.122
 21.4533  24.1247
 21.4763  24.0726
 21.4992  24.1613
 21.5223  24.2083
 21.5453  24.1683
 21.5683  23.9633
 21.5913  24.0735
 21.6142  24.2226
 21.6373  24.2447
 21.6603  24.2449
 21.6833  24.2657
 21.7063  24.2587
 21.7293  24.2316
 21.7523  24.2655
 21.7753  24.321
 21.7982  24.3659
 21.8213  24.3226
 21.8443  24.2479
 21.8672  24.3227
 21.8903  24.3706
 21.9133  24.3558
 21.9363  24.3272
 21.9593  24.3146
 21.9823  24.3782
 22.0053  24.4073
 22.0283  24.4372
 22.0512  24.4763
 22.0743  24.4964
 22.0973  24.5467
 22.1203  24.5113
 22.1433  24.528
 22.1663  24.5241
 22.1893  24.5397
 22.2123  24.5663
 22.2353  24.6679
 22.2583  24.687
 22.2813  24.7334
 22.3043  25.0643
 22.3273  24.8736
 22.3502  24.7699
 22.3733  24.7334
 22.3963  24.723
 22.4193  24.7056
 22.4423  24.7839
 22.4653  24.8691
 22.4883  24.8378
 22.5113  24.9256
 22.5343  25.033
 22.5573  25.1216
 22.5803  25.2393
 22.6033  25.3558
 22.6263  25.3603
 22.6493  25.1921
 22.6723  25.2091
 22.6953  25.4024
 22.7183  25.5096
 22.7413  25.6453
 22.7643  25.7247
 22.7873  25.6689
 22.8103  25.7288
 22.8333  25.8707
 22.8563  25.9247
 22.8793  25.9389
 22.9022  26.0644
 22.9253  26.3205
 22.9483  26.5515
 22.9713  27.2432
 22.9943  28.8172