File: test-data-xrd/xrd-map-34-ID-E/Data_0111.chi
F:\20151113_APS_34IDE\\Brian\Particle1\OCV\Data_0111.tif
2-Theta Angle (Degrees)
Intensity
       2000
 0.01725  0.0000000E+00
 0.04025  0.0000000E+00
 0.06325  0.0000000E+00
 0.08625  0.0000000E+00
 0.10925  0.0000000E+00
 0.13225  0.0000000E+00
 0.15525  0.0000000E+00
 0.17825  0.0000000E+00
 0.20125  0.0000000E+00
 0.22425  0.0000000E+00
 0.24725  0.0000000E+00
 0.27025  0.0000000E+00
 0.29325  0.0000000E+00
 0.31625  0.0000000E+00
 0.33925  0.0000000E+00
 0.36225  0.0000000E+00
 0.38525  0.0000000E+00
 0.40825  0.0000000E+00
 0.43125  0.0000000E+00
 0.45425  0.0000000E+00
 0.47725  0.0000000E+00
 0.50025  0.0000000E+00
 0.52325  0.0000000E+00
 0.54625  0.0000000E+00
 0.56925  0.0000000E+00
 0.59225  0.0000000E+00
 0.61525  0.0000000E+00
 0.63825  0.0000000E+00
 0.66125  0.0000000E+00
 0.68425  0.0000000E+00
 0.70725  0.0000000E+00
 0.73025  0.0000000E+00
 0.75325  0.0000000E+00
 0.77625  0.0000000E+00
 0.79925  0.0000000E+00
 0.82225  0.0000000E+00
 0.84525  0.0000000E+00
 0.86825  0.0000000E+00
 0.89125  0.0000000E+00
 0.91425  0.0000000E+00
 0.93725  0.0000000E+00
 0.96025  0.0000000E+00
 0.98325  0.0000000E+00
 1.00625  0.0000000E+00
 1.02925  0.0000000E+00
 1.05225  0.0000000E+00
 1.07525  0.0000000E+00
 1.09825  0.0000000E+00
 1.12125  0.0000000E+00
 1.14425  0.0000000E+00
 1.16725  0.0000000E+00
 1.19025  0.0000000E+00
 1.21325  0.0000000E+00
 1.23625  0.0000000E+00
 1.25925  0.0000000E+00
 1.28225  0.0000000E+00
 1.30525  0.0000000E+00
 1.32825  0.0000000E+00
 1.35125  0.0000000E+00
 1.37425  0.0000000E+00
 1.39725  0.0000000E+00
 1.42025  0.0000000E+00
 1.44325  0.0000000E+00
 1.46625  0.0000000E+00
 1.48925  0.0000000E+00
 1.51225  0.0000000E+00
 1.53525  0.0000000E+00
 1.55825  0.0000000E+00
 1.58125  0.0000000E+00
 1.60425  0.0000000E+00
 1.62725  0.0000000E+00
 1.65025  0.0000000E+00
 1.67325  0.0000000E+00
 1.69625  0.0000000E+00
 1.71925  0.0000000E+00
 1.74225  0.0000000E+00
 1.76525  0.0000000E+00
 1.78825  0.0000000E+00
 1.81125  0.0000000E+00
 1.83425  0.0000000E+00
 1.85725  0.0000000E+00
 1.88025  0.0000000E+00
 1.90325  0.0000000E+00
 1.92625  0.0000000E+00
 1.94925  0.0000000E+00
 1.97225  0.0000000E+00
 1.99525  0.0000000E+00
 2.01825  0.0000000E+00
 2.04125  0.0000000E+00
 2.06425  0.0000000E+00
 2.08725  0.0000000E+00
 2.11025  0.0000000E+00
 2.13325  0.0000000E+00
 2.15625  0.0000000E+00
 2.17925  0.0000000E+00
 2.20225  0.0000000E+00
 2.22525  0.0000000E+00
 2.24825  0.0000000E+00
 2.27125  0.0000000E+00
 2.29425  0.0000000E+00
 2.31725  0.0000000E+00
 2.34025  0.0000000E+00
 2.36325  0.0000000E+00
 2.38625  0.0000000E+00
 2.40925  0.0000000E+00
 2.43225  0.0000000E+00
 2.45525  0.0000000E+00
 2.47825  0.0000000E+00
 2.50125  0.0000000E+00
 2.52425  0.0000000E+00
 2.54725  0.0000000E+00
 2.57025  0.0000000E+00
 2.59325  0.0000000E+00
 2.61625  0.0000000E+00
 2.63925  0.0000000E+00
 2.66225  0.0000000E+00
 2.68525  0.0000000E+00
 2.70825  0.0000000E+00
 2.73125  0.0000000E+00
 2.75425  0.0000000E+00
 2.77725  0.0000000E+00
 2.80025  0.0000000E+00
 2.82325  37.0802
 2.84625  34.6504
 2.86925  35.4923
 2.89225  36.6234
 2.91525  37.2417
 2.93825  36.9364
 2.96125  35.7519
 2.98425  35.1935
 3.00725  36.2909
 3.03025  36.057
 3.05325  35.087
 3.07625  34.9687
 3.09925  35.6584
 3.12225  35.7147
 3.14525  35.9749
 3.16825  36.041
 3.19125  35.4688
 3.21425  35.4789
 3.23725  35.7798
 3.26025  35.7524
 3.28325  35.3136
 3.30625  34.6074
 3.32925  34.2931
 3.35225  34.6206
 3.37525  35.2839
 3.39825  35.0556
 3.42125  34.8111
 3.44425  34.1278
 3.46725  33.9616
 3.49025  34.2991
 3.51325  33.8211
 3.53625  33.965
 3.55925  33.8505
 3.58225  33.4553
 3.60525  32.9489
 3.62825  33.2596
 3.65125  33.6064
 3.67425  33.4542
 3.69725  33.3
 3.72025  33.3065
 3.74325  33.1598
 3.76625  33.129
 3.78925  33.1339
 3.81225  33.2711
 3.83525  33.1752
 3.85825  32.7136
 3.88125  32.4508
 3.90425  32.2202
 3.92725  32.1571
 3.95025  32.264
 3.97325  32.4802
 3.99625  32.5064
 4.01925  32.5873
 4.04225  32.3459
 4.06525  32.2743
 4.08825  32.514
 4.11125  32.6636
 4.13425  32.7089
 4.15725  32.6123
 4.18025  32.2848
 4.20325  32.3432
 4.22625  32.4834
 4.24925  32.4192
 4.27225  32.3511
 4.29525  32.307
 4.31825  32.171
 4.34125  32.1278
 4.36425  32.0337
 4.38725  32.0145
 4.41025  31.9894
 4.43325  32.2289
 4.45625  32.3699
 4.47925  32.2616
 4.50225  32.2724
 4.52525  32.3185
 4.54825  32.4013
 4.57125  32.3581
 4.59425  32.4169
 4.61725  32.6142
 4.64025  32.9033
 4.66325  33.0298
 4.68625  32.9954
 4.70925  33.0029
 4.73225  32.7662
 4.75525  32.3217
 4.77825  32.3447
 4.80125  32.4707
 4.82425  32.4688
 4.84725  32.6588
 4.87025  32.9331
 4.89325  32.9152
 4.91625  32.8269
 4.93925  32.8308
 4.96225  32.8783
 4.98525  33.0119
 5.00825  33.0944
 5.03125  33.161
 5.05425  33.0392
 5.07725  32.9844
 5.10025  33.1191
 5.12325  33.1574
 5.14625  33.5906
 5.16925  33.8118
 5.19225  33.9372
 5.21525  34.0292
 5.23825  34.0157
 5.26125  33.6454
 5.28425  33.4994
 5.30725  33.538
 5.33025  33.7637
 5.35325  34.0177
 5.37625  34.1513
 5.39925  34.2858
 5.42225  34.4216
 5.44525  34.426
 5.46825  34.5649
 5.49125  34.5778
 5.51425  34.5814
 5.53725  34.5326
 5.56025  34.5134
 5.58325  34.4579
 5.60625  34.6204
 5.62925  34.7107
 5.65225  34.7095
 5.67525  35.0001
 5.69825  35.127
 5.72125  35.2437
 5.74425  35.3384
 5.76725  35.427
 5.79025  35.7437
 5.81325  36.2409
 5.83625  36.2398
 5.85925  35.9003
 5.88225  35.8875
 5.90525  36.2188
 5.92825  36.9451
 5.95125  39.283
 5.97425  42.0282
 5.99725  42.8897
 6.02025  41.1406
 6.04325  38.8551
 6.06625  36.8802
 6.08925  36.378
 6.11225  36.4614
 6.13525  36.4862
 6.15825  36.4138
 6.18125  36.7087
 6.20425  36.9834
 6.22725  37.0645
 6.25025  37.0301
 6.27325  37.2433
 6.29625  37.3792
 6.31925  37.4794
 6.34225  37.8448
 6.36525  38.1038
 6.38825  38.0202
 6.41125  37.8652
 6.43425  37.9393
 6.45725  38.0767
 6.48025  38.1642
 6.50325  38.6252
 6.52625  39.0915
 6.54925  39.2306
 6.57225  39.3813
 6.59525  39.7005
 6.61825  40.1314
 6.64125  40.3247
 6.66425  40.2369
 6.68725  40.0539
 6.71025  39.9956
 6.73325  40.2925
 6.75625  40.6049
 6.77925  40.8287
 6.80225  41.0234
 6.82525  41.2741
 6.84825  41.4512
 6.87125  41.5797
 6.89425  41.6079
 6.91725  41.6344
 6.94025  41.7782
 6.96325  41.9036
 6.98625  41.9534
 7.00925  42.1205
 7.03225  42.389
 7.05525  42.501
 7.07825  42.3482
 7.10125  42.4332
 7.12425  42.6457
 7.14725  42.7571
 7.17025  42.8486
 7.19325  42.9781
 7.21625  43.0821
 7.23925  43.311
 7.26225  43.4237
 7.28525  43.4635
 7.30825  43.4279
 7.33125  43.6354
 7.35425  43.7212
 7.37725  43.7888
 7.40025  43.761
 7.42325  43.7396
 7.44625  43.8034
 7.46925  44.0702
 7.49225  44.2932
 7.51525  44.2274
 7.53825  44.2719
 7.56125  44.263
 7.58425  44.2784
 7.60725  44.3242
 7.63025  44.1877
 7.65325  44.0886
 7.67625  43.9965
 7.69925  44.0657
 7.72225  44.2935
 7.74525  44.6667
 7.76825  44.5397
 7.79125  44.2354
 7.81425  44.1938
 7.83725  44.122
 7.86025  44.1645
 7.88325  44.1101
 7.90625  44.0393
 7.92925  43.8528
 7.95225  43.629
 7.97525  43.3539
 7.99825  43.3505
 8.02125  43.3072
 8.04425  43.0782
 8.06725  42.906
 8.09025  42.705
 8.11325  42.6398
 8.13625  42.3214
 8.15925  41.8684
 8.18225  41.6272
 8.20525  41.4713
 8.22825  41.3072
 8.25125  41.1549
 8.27425  40.8358
 8.29725  40.5202
 8.32025  40.3293
 8.34325  40.0483
 8.36625  39.7377
 8.38925  39.3211
 8.41225  38.9221
 8.43525  38.6384
 8.45825  38.2913
 8.48125  38.1327
 8.50425  37.8592
 8.52725  37.5512
 8.55025  37.2859
 8.57325  37.0023
 8.59625  36.5592
 8.61925  36.1403
 8.64225  35.9016
 8.66525  35.5507
 8.68825  35.0487
 8.71125  34.6709
 8.73425  34.2685
 8.75725  33.9763
 8.78025  33.8156
 8.80325  33.3547
 8.82625  32.9408
 8.84925  32.6812
 8.87225  32.4905
 8.89525  32.2526
 8.91825  31.9851
 8.94125  31.5829
 8.96425  31.2431
 8.98725  30.8481
 9.01025  30.5207
 9.03325  30.2487
 9.05625  30.0931
 9.07925  29.8705
 9.10225  29.6035
 9.12525  29.3566
 9.14825  29.2012
 9.17125  28.9635
 9.19425  28.6824
 9.21725  28.369
 9.24025  28.0829
 9.26325  27.9044
 9.28625  27.7134
 9.30925  27.6901
 9.33225  27.6345
 9.35525  27.4458
 9.37825  27.4217
 9.40125  27.289
 9.42425  27.0861
 9.44725  26.8016
 9.47025  26.5515
 9.49325  26.425
 9.51625  26.3103
 9.53925  26.2028
 9.56225  26.0246
 9.58525  25.7809
 9.60825  25.813
 9.63125  25.8967
 9.65425  25.6872
 9.67725  25.3889
 9.70025  25.3201
 9.72325  25.3069
 9.74625  25.2901
 9.76925  25.2072
 9.79225  25.1313
 9.81525  24.9322
 9.83825  24.8156
 9.86125  24.753
 9.88425  24.6664
 9.90725  24.5786
 9.93025  24.5422
 9.95325  24.4506
 9.97625  24.366
 9.99925  24.2926
 10.0222  24.2657
 10.0453  24.152
 10.0683  24.0483
 10.0913  23.9286
 10.1143  23.8563
 10.1373  23.8553
 10.1603  23.7321
 10.1832  23.635
 10.2063  23.6492
 10.2293  23.6867
 10.2523  23.6279
 10.2752  23.5183
 10.2982  23.5449
 10.3213  23.5714
 10.3443  23.589
 10.3673  23.4829
 10.3902  23.4342
 10.4133  23.4475
 10.4363  23.3405
 10.4593  23.1574
 10.4823  23.0042
 10.5053  23.033
 10.5283  23.0824
 10.5512  23.1416
 10.5742  23.0761
 10.5973  23.0675
 10.6203  23.1194
 10.6433  23.1984
 10.6662  23.153
 10.6893  22.9755
 10.7123  22.8528
 10.7353  22.8283
 10.7583  22.7733
 10.7813  22.7476
 10.8043  22.6394
 10.8272  22.6549
 10.8503  22.703
 10.8733  22.7142
 10.8963  22.5699
 10.9192  22.5713
 10.9422  22.5273
 10.9653  22.4926
 10.9883  22.4714
 11.0113  22.4016
 11.0343  22.4909
 11.0573  22.4788
 11.0803  22.5314
 11.1033  22.4156
 11.1263  22.3432
 11.1493  22.2904
 11.1723  22.2853
 11.1953  22.2066
 11.2182  22.2173
 11.2413  22.2651
 11.2643  22.2883
 11.2873  22.287
 11.3102  22.3494
 11.3333  22.3722
 11.3563  22.3003
 11.3793  22.4053
 11.4023  22.5316
 11.4253  22.4868
 11.4483  22.516
 11.4713  22.6033
 11.4942  22.6793
 11.5173  22.753
 11.5403  23.3724
 11.5633  24.3333
 11.5862  25.1896
 11.6093  25.2054
 11.6323  24.2392
 11.6553  23.3175
 11.6783  22.8349
 11.7013  22.4991
 11.7243  22.465
 11.7473  22.5708
 11.7703  22.4129
 11.7933  22.2664
 11.8163  22.3291
 11.8393  22.285
 11.8622  22.2591
 11.8853  22.3213
 11.9083  22.3044
 11.9313  22.472
 11.9543  22.6766
 11.9773  22.9295
 12.0003  23.3022
 12.0233  23.4508
 12.0463  23.3249
 12.0693  23.205
 12.0923  23.3218
 12.1153  23.3736
 12.1382  23.3942
 12.1613  23.0893
 12.1843  22.7767
 12.2073  22.5288
 12.2302  22.4049
 12.2533  22.3163
 12.2763  22.2467
 12.2993  22.2245
 12.3223  22.279
 12.3453  22.3112
 12.3683  22.5432
 12.3913  22.5005
 12.4142  22.4146
 12.4373  22.4042
 12.4603  22.5058
 12.4833  22.5735
 12.5062  22.5934
 12.5292  22.5571
 12.5523  22.6583
 12.5753  22.6773
 12.5983  22.5715
 12.6212  22.5603
 12.6443  22.6053
 12.6673  22.7945
 12.6903  22.8502
 12.7133  22.8263
 12.7363  22.7165
 12.7593  22.757
 12.7822  22.8644
 12.8052  22.9811
 12.8283  23.1934
 12.8513  23.1974
 12.8742  23.1861
 12.8972  23.1596
 12.9203  23.3515
 12.9433  23.5343
 12.9663  23.6105
 12.9893  23.652
 13.0123  23.7865
 13.0353  23.965
 13.0582  24.1015
 13.0813  24.1795
 13.1043  24.6304
 13.1273  24.9033
 13.1502  25.0173
 13.1732  25.219
 13.1963  25.4644
 13.2193  25.7983
 13.2423  26.1146
 13.2652  26.4313
 13.2883  26.7591
 13.3113  27.0188
 13.3343  27.1591
 13.3573  27.448
 13.3803  27.634
 13.4033  27.8604
 13.4262  28.1659
 13.4492  28.5397
 13.4723  28.7831
 13.4953  29.0225
 13.5183  29.2119
 13.5412  29.4219
 13.5643  29.4384
 13.5873  29.3874
 13.6103  29.3788
 13.6333  29.3538
 13.6563  29.3346
 13.6793  29.3608
 13.7022  29.3161
 13.7253  29.1487
 13.7483  29.1088
 13.7713  29.0084
 13.7942  28.8811
 13.8172  28.8672
 13.8403  28.7872
 13.8633  28.7483
 13.8863  28.8572
 13.9093  29.2653
 13.9323  29.7513
 13.9553  30.0223
 13.9783  29.6815
 14.0013  28.8077
 14.0243  28.0897
 14.0473  27.6526
 14.0703  27.433
 14.0932  27.1231
 14.1163  27.0058
 14.1393  26.9602
 14.1623  26.8424
 14.1852  26.6194
 14.2083  26.5435
 14.2313  26.4575
 14.2543  26.2698
 14.2773  26.1848
 14.3003  26.2209
 14.3233  26.0913
 14.3463  25.9676
 14.3692  25.8272
 14.3923  25.7348
 14.4153  25.6794
 14.4383  25.6306
 14.4612  25.5528
 14.4843  25.4955
 14.5073  25.4765
 14.5303  25.5378
 14.5533  25.5118
 14.5763  25.4114
 14.5993  25.289
 14.6223  25.2091
 14.6453  25.1792
 14.6683  25.1871
 14.6913  25.1003
 14.7143  25.0339
 14.7372  25.032
 14.7603  24.9427
 14.7833  24.8703
 14.8063  24.7999
 14.8293  24.6897
 14.8523  24.6698
 14.8753  24.6812
 14.8983  24.7444
 14.9213  24.7662
 14.9443  24.677
 14.9673  24.614
 14.9903  24.6271
 15.0132  24.7516
 15.0363  24.7581
 15.0593  24.7193
 15.0823  24.721
 15.1052  24.7228
 15.1283  24.7641
 15.1513  24.9489
 15.1743  25.1584
 15.1973  25.1941
 15.2203  24.9954
 15.2433  24.7477
 15.2663  24.5068
 15.2892  24.5669
 15.3123  25.3756
 15.3353  25.2773
 15.3583  24.8275
 15.3812  24.4177
 15.4043  24.4265
 15.4273  24.3303
 15.4503  24.4418
 15.4733  24.4121
 15.4963  24.4237
 15.5193  24.414
 15.5423  24.3388
 15.5653  24.3196
 15.5883  24.2723
 15.6113  24.2385
 15.6343  24.3045
 15.6572  24.3985
 15.6803  24.3461
 15.7033  24.3637
 15.7263  24.395
 15.7492  24.3947
 15.7723  24.4295
 15.7953  24.4334
 15.8183  24.3827
 15.8413  24.3726
 15.8643  24.3649
 15.8873  24.3345
 15.9103  24.4424
 15.9332  24.5496
 15.9563  24.4859
 15.9793  24.4908
 16.0023  24.5407
 16.0253  24.5059
 16.0482  24.5406
 16.0713  24.522
 16.0943  24.4978
 16.1172  24.6653
 16.1403  24.7952
 16.1633  24.8586
 16.1863  25.1987
 16.2093  26.2456
 16.2323  27.9006
 16.2553  28.9003
 16.2783  27.8162
 16.3012  25.852
 16.3243  24.9593
 16.3472  24.7788
 16.3703  24.678
 16.3933  24.672
 16.4163  24.6463
 16.4393  24.5687
 16.4623  24.5204
 16.4853  24.4794
 16.5083  24.4306
 16.5312  24.4033
 16.5543  24.5024
 16.5773  24.5035
 16.6002  24.4647
 16.6233  24.3686
 16.6463  24.2808
 16.6693  24.3549
 16.6923  24.3584
 16.7153  24.2897
 16.7383  24.2688
 16.7613  24.3606
 16.7843  24.3114
 16.8073  24.1902
 16.8303  24.1675
 16.8533  24.1959
 16.8763  24.1911
 16.8992  24.2196
 16.9223  24.1061
 16.9453  24.0547
 16.9683  24.1085
 16.9913  24.1385
 17.0143  24.1269
 17.0373  24.0827
 17.0603  23.9685
 17.0832  24.0333
 17.1063  24.0219
 17.1293  24.0314
 17.1522  24.095
 17.1753  24.1207
 17.1983  24.0816
 17.2213  23.9928
 17.2443  23.9691
 17.2673  23.9388
 17.2903  23.9625
 17.3133  23.9413
 17.3362  23.8526
 17.3593  23.7923
 17.3823  23.7959
 17.4053  23.7011
 17.4283  23.7064
 17.4513  23.7544
 17.4743  23.7761
 17.4973  23.7242
 17.5203  23.7577
 17.5433  23.7426
 17.5663  23.679
 17.5893  23.621
 17.6123  23.5915
 17.6352  23.5651
 17.6583  23.5311
 17.6813  23.6649
 17.7042  23.7079
 17.7273  23.658
 17.7503  23.5847
 17.7733  23.6273
 17.7963  23.6279
 17.8193  23.5789
 17.8423  23.5595
 17.8653  23.4874
 17.8882  23.4622
 17.9113  23.5466
 17.9343  23.6063
 17.9573  23.5258
 17.9803  23.6095
 18.0033  23.7387
 18.0263  23.7253
 18.0493  23.8868
 18.0723  24.0363
 18.0953  24.2099
 18.1183  24.2323
 18.1413  24.1346
 18.1643  23.8639
 18.1872  23.5925
 18.2103  23.4732
 18.2333  23.3933
 18.2563  23.3923
 18.2793  23.3608
 18.3023  23.3527
 18.3253  23.4134
 18.3483  23.4864
 18.3712  23.4562
 18.3943  23.4451
 18.4173  23.4726
 18.4402  23.4944
 18.4633  23.4011
 18.4863  23.4631
 18.5093  23.49
 18.5323  23.4297
 18.5553  23.3448
 18.5783  23.2934
 18.6013  23.4562
 18.6242  23.4327
 18.6473  23.3426
 18.6703  23.2675
 18.6933  23.3659
 18.7163  23.3143
 18.7392  23.2736
 18.7623  23.3174
 18.7853  23.333
 18.8083  23.3143
 18.8313  23.2279
 18.8543  23.2726
 18.8773  23.3345
 18.9003  23.3373
 18.9232  23.4605
 18.9463  23.5263
 18.9693  23.3311
 18.9922  23.2483
 19.0153  23.2684
 19.0383  23.2794
 19.0613  23.2343
 19.0843  23.2919
 19.1073  23.3371
 19.1303  23.3071
 19.1533  23.3955
 19.1762  23.3549
 19.1993  23.2531
 19.2223  23.2455
 19.2453  23.3531
 19.2683  23.5015
 19.2913  23.4461
 19.3143  23.4474
 19.3373  23.3928
 19.3603  23.3519
 19.3833  23.4216
 19.4062  23.3823
 19.4293  23.4392
 19.4523  23.4291
 19.4752  23.4596
 19.4983  23.4182
 19.5213  23.4317
 19.5443  23.5311
 19.5673  23.4652
 19.5903  23.509
 19.6133  23.6114
 19.6363  23.7292
 19.6593  23.9362
 19.6823  24.203
 19.7053  24.5763
 19.7283  24.7996
 19.7513  24.736
 19.7742  24.4808
 19.7973  24.4404
 19.8203  24.8895
 19.8433  25.5822
 19.8663  25.758
 19.8893  25.3148
 19.9123  24.6251
 19.9353  24.0935
 19.9582  23.8344
 19.9813  23.6774
 20.0043  23.64
 20.0272  23.6134
 20.0503  23.6326
 20.0733  23.624
 20.0963  23.5879
 20.1193  23.6141
 20.1423  23.5804
 20.1653  23.5992
 20.1883  23.601
 20.2112  23.5221
 20.2343  23.4883
 20.2573  23.4961
 20.2803  23.4429
 20.3033  23.416
 20.3263  23.4003
 20.3493  23.532
 20.3723  23.613
 20.3953  23.6331
 20.4183  23.6494
 20.4413  23.5787
 20.4643  23.5679
 20.4873  23.552
 20.5102  23.5806
 20.5333  23.5851
 20.5563  23.6949
 20.5792  23.7152
 20.6023  23.7801
 20.6253  23.8577
 20.6483  23.8295
 20.6713  23.8549
 20.6943  23.9968
 20.7173  24.3717
 20.7403  24.6231
 20.7632  24.7513
 20.7863  24.5446
 20.8093  24.2755
 20.8323  23.9825
 20.8553  23.7894
 20.8783  23.7685
 20.9013  23.8747
 20.9243  23.8446
 20.9473  23.8333
 20.9703  23.7618
 20.9933  23.7906
 21.0163  23.7103
 21.0393  23.7221
 21.0622  23.6922
 21.0853  23.7629
 21.1083  23.7171
 21.1313  23.7977
 21.1543  23.8697
 21.1773  23.9242
 21.2003  23.8657
 21.2233  23.7556
 21.2462  23.7613
 21.2693  23.7933
 21.2923  23.7896
 21.3152  23.7234
 21.3383  23.8694
 21.3613  23.9988
 21.3843  23.9247
 21.4073  23.8297
 21.4303  23.8151
 21.4533  23.8092
 21.4763  23.8181
 21.4992  23.9073
 21.5223  23.9108
 21.5453  23.9446
 21.5683  23.9511
 21.5913  23.9103
 21.6142  23.9646
 21.6373  23.9383
 21.6603  23.9466
 21.6833  24.0159
 21.7063  23.9834
 21.7293  23.963
 21.7523  23.971
 21.7753  23.9633
 21.7982  23.9264
 21.8213  23.9391
 21.8443  23.8742
 21.8672  23.9685
 21.8903  23.9722
 21.9133  24.0435
 21.9363  24.0502
 21.9593  24.0479
 21.9823  24.0574
 22.0053  24.0794
 22.0283  24.0972
 22.0512  24.1538
 22.0743  24.325
 22.0973  24.2472
 22.1203  24.2119
 22.1433  24.2851
 22.1663  24.3074
 22.1893  24.2365
 22.2123  24.2254
 22.2353  24.2315
 22.2583  24.2679
 22.2813  24.2511
 22.3043  24.3186
 22.3273  24.3894
 22.3502  24.4333
 22.3733  24.3965
 22.3963  24.3478
 22.4193  24.3616
 22.4423  24.4875
 22.4653  24.4562
 22.4883  24.4092
 22.5113  24.549
 22.5343  24.5898
 22.5573  24.6044
 22.5803  24.6689
 22.6033  24.7479
 22.6263  24.8244
 22.6493  24.8415
 22.6723  24.8963
 22.6953  25.0164
 22.7183  25.0031
 22.7413  25.0153
 22.7643  25.0818
 22.7873  25.063
 22.8103  25.1406
 22.8333  25.2602
 22.8563  25.4018
 22.8793  25.4542
 22.9022  25.5717
 22.9253  25.7532
 22.9483  25.7583
 22.9713  25.8164
 22.9943  26.0422