File: test-data-xrd/xrd-map-34-ID-E/Data_0082.chi
F:\20151113_APS_34IDE\\Brian\Particle1\OCV\Data_0082.tif
2-Theta Angle (Degrees)
Intensity
       2000
 0.01725  0.0000000E+00
 0.04025  0.0000000E+00
 0.06325  0.0000000E+00
 0.08625  0.0000000E+00
 0.10925  0.0000000E+00
 0.13225  0.0000000E+00
 0.15525  0.0000000E+00
 0.17825  0.0000000E+00
 0.20125  0.0000000E+00
 0.22425  0.0000000E+00
 0.24725  0.0000000E+00
 0.27025  0.0000000E+00
 0.29325  0.0000000E+00
 0.31625  0.0000000E+00
 0.33925  0.0000000E+00
 0.36225  0.0000000E+00
 0.38525  0.0000000E+00
 0.40825  0.0000000E+00
 0.43125  0.0000000E+00
 0.45425  0.0000000E+00
 0.47725  0.0000000E+00
 0.50025  0.0000000E+00
 0.52325  0.0000000E+00
 0.54625  0.0000000E+00
 0.56925  0.0000000E+00
 0.59225  0.0000000E+00
 0.61525  0.0000000E+00
 0.63825  0.0000000E+00
 0.66125  0.0000000E+00
 0.68425  0.0000000E+00
 0.70725  0.0000000E+00
 0.73025  0.0000000E+00
 0.75325  0.0000000E+00
 0.77625  0.0000000E+00
 0.79925  0.0000000E+00
 0.82225  0.0000000E+00
 0.84525  0.0000000E+00
 0.86825  0.0000000E+00
 0.89125  0.0000000E+00
 0.91425  0.0000000E+00
 0.93725  0.0000000E+00
 0.96025  0.0000000E+00
 0.98325  0.0000000E+00
 1.00625  0.0000000E+00
 1.02925  0.0000000E+00
 1.05225  0.0000000E+00
 1.07525  0.0000000E+00
 1.09825  0.0000000E+00
 1.12125  0.0000000E+00
 1.14425  0.0000000E+00
 1.16725  0.0000000E+00
 1.19025  0.0000000E+00
 1.21325  0.0000000E+00
 1.23625  0.0000000E+00
 1.25925  0.0000000E+00
 1.28225  0.0000000E+00
 1.30525  0.0000000E+00
 1.32825  0.0000000E+00
 1.35125  0.0000000E+00
 1.37425  0.0000000E+00
 1.39725  0.0000000E+00
 1.42025  0.0000000E+00
 1.44325  0.0000000E+00
 1.46625  0.0000000E+00
 1.48925  0.0000000E+00
 1.51225  0.0000000E+00
 1.53525  0.0000000E+00
 1.55825  0.0000000E+00
 1.58125  0.0000000E+00
 1.60425  0.0000000E+00
 1.62725  0.0000000E+00
 1.65025  0.0000000E+00
 1.67325  0.0000000E+00
 1.69625  0.0000000E+00
 1.71925  0.0000000E+00
 1.74225  0.0000000E+00
 1.76525  0.0000000E+00
 1.78825  0.0000000E+00
 1.81125  0.0000000E+00
 1.83425  0.0000000E+00
 1.85725  0.0000000E+00
 1.88025  0.0000000E+00
 1.90325  0.0000000E+00
 1.92625  0.0000000E+00
 1.94925  0.0000000E+00
 1.97225  0.0000000E+00
 1.99525  0.0000000E+00
 2.01825  0.0000000E+00
 2.04125  0.0000000E+00
 2.06425  0.0000000E+00
 2.08725  0.0000000E+00
 2.11025  0.0000000E+00
 2.13325  0.0000000E+00
 2.15625  0.0000000E+00
 2.17925  0.0000000E+00
 2.20225  0.0000000E+00
 2.22525  0.0000000E+00
 2.24825  0.0000000E+00
 2.27125  0.0000000E+00
 2.29425  0.0000000E+00
 2.31725  0.0000000E+00
 2.34025  0.0000000E+00
 2.36325  0.0000000E+00
 2.38625  0.0000000E+00
 2.40925  0.0000000E+00
 2.43225  0.0000000E+00
 2.45525  0.0000000E+00
 2.47825  0.0000000E+00
 2.50125  0.0000000E+00
 2.52425  0.0000000E+00
 2.54725  0.0000000E+00
 2.57025  0.0000000E+00
 2.59325  0.0000000E+00
 2.61625  0.0000000E+00
 2.63925  0.0000000E+00
 2.66225  0.0000000E+00
 2.68525  0.0000000E+00
 2.70825  0.0000000E+00
 2.73125  0.0000000E+00
 2.75425  0.0000000E+00
 2.77725  0.0000000E+00
 2.80025  0.0000000E+00
 2.82325  34.1548
 2.84625  35.1635
 2.86925  35.3829
 2.89225  35.5846
 2.91525  35.2252
 2.93825  35.6878
 2.96125  35.7333
 2.98425  35.23
 3.00725  36.0803
 3.03025  36.0036
 3.05325  35.9987
 3.07625  36.0231
 3.09925  35.7845
 3.12225  35.501
 3.14525  35.3838
 3.16825  35.3071
 3.19125  35.4616
 3.21425  35.8436
 3.23725  35.8752
 3.26025  35.3382
 3.28325  34.6744
 3.30625  34.1494
 3.32925  34.065
 3.35225  34.5311
 3.37525  34.6202
 3.39825  34.3938
 3.42125  34.149
 3.44425  34.4594
 3.46725  34.8813
 3.49025  34.2782
 3.51325  33.3907
 3.53625  33.1307
 3.55925  32.9632
 3.58225  32.8055
 3.60525  33.0846
 3.62825  33.4107
 3.65125  33.5902
 3.67425  33.4561
 3.69725  33.2598
 3.72025  33.0611
 3.74325  33.1793
 3.76625  33.1452
 3.78925  32.7831
 3.81225  32.7025
 3.83525  32.8808
 3.85825  32.918
 3.88125  32.7675
 3.90425  32.476
 3.92725  32.5157
 3.95025  32.6891
 3.97325  33.1586
 3.99625  32.875
 4.01925  32.687
 4.04225  32.4647
 4.06525  32.5962
 4.08825  32.3469
 4.11125  32.1352
 4.13425  32.3158
 4.15725  32.5882
 4.18025  32.505
 4.20325  32.3147
 4.22625  32.1081
 4.24925  32.1486
 4.27225  32.2129
 4.29525  32.1642
 4.31825  32.1723
 4.34125  32.1492
 4.36425  31.9135
 4.38725  31.9046
 4.41025  32.0918
 4.43325  32.2679
 4.45625  32.3431
 4.47925  32.5
 4.50225  32.5475
 4.52525  32.5928
 4.54825  32.6508
 4.57125  32.6251
 4.59425  32.4672
 4.61725  32.4794
 4.64025  32.3096
 4.66325  32.3082
 4.68625  32.5102
 4.70925  32.661
 4.73225  32.6987
 4.75525  32.6338
 4.77825  32.5447
 4.80125  32.5086
 4.82425  32.4224
 4.84725  32.4123
 4.87025  32.7619
 4.89325  33.0506
 4.91625  33.1911
 4.93925  32.984
 4.96225  32.8683
 4.98525  33.0688
 5.00825  33.2222
 5.03125  33.1423
 5.05425  33.2703
 5.07725  33.3934
 5.10025  33.5292
 5.12325  33.6808
 5.14625  33.7282
 5.16925  33.6735
 5.19225  33.676
 5.21525  33.7332
 5.23825  33.8022
 5.26125  33.7399
 5.28425  33.9623
 5.30725  34.2655
 5.33025  34.4941
 5.35325  34.5044
 5.37625  34.4277
 5.39925  34.4372
 5.42225  34.4547
 5.44525  34.5086
 5.46825  34.655
 5.49125  34.6136
 5.51425  34.8162
 5.53725  34.9969
 5.56025  35.0631
 5.58325  35.074
 5.60625  35.1894
 5.62925  35.3091
 5.65225  35.3597
 5.67525  35.2848
 5.69825  35.2969
 5.72125  35.4271
 5.74425  35.5075
 5.76725  35.6587
 5.79025  35.7889
 5.81325  36.0051
 5.83625  36.3245
 5.85925  36.5486
 5.88225  37.1609
 5.90525  39.2108
 5.92825  44.2848
 5.95125  58.8702
 5.97425  68.9765
 5.99725  66.8206
 6.02025  53.0854
 6.04325  43.6223
 6.06625  39.4756
 6.08925  37.8887
 6.11225  37.5279
 6.13525  37.2836
 6.15825  37.1321
 6.18125  37.2346
 6.20425  37.3475
 6.22725  37.3883
 6.25025  37.4593
 6.27325  37.7398
 6.29625  37.8163
 6.31925  37.6715
 6.34225  37.8164
 6.36525  37.9888
 6.38825  38.2212
 6.41125  38.2262
 6.43425  38.1978
 6.45725  38.2968
 6.48025  38.4799
 6.50325  38.6705
 6.52625  38.9199
 6.54925  39.1133
 6.57225  39.1563
 6.59525  39.3563
 6.61825  39.6726
 6.64125  39.9297
 6.66425  40.1655
 6.68725  40.2121
 6.71025  40.3355
 6.73325  40.5497
 6.75625  40.8091
 6.77925  41.0096
 6.80225  41.0611
 6.82525  41.2657
 6.84825  41.2979
 6.87125  41.3712
 6.89425  41.4529
 6.91725  41.4947
 6.94025  41.7276
 6.96325  42.0434
 6.98625  42.2163
 7.00925  42.2619
 7.03225  42.3065
 7.05525  42.4325
 7.07825  42.4191
 7.10125  42.5346
 7.12425  42.4835
 7.14725  42.5725
 7.17025  42.8629
 7.19325  43.0389
 7.21625  43.071
 7.23925  43.1026
 7.26225  43.166
 7.28525  43.1171
 7.30825  43.1523
 7.33125  43.4572
 7.35425  43.5161
 7.37725  43.4997
 7.40025  43.6708
 7.42325  43.8612
 7.44625  43.9239
 7.46925  43.9204
 7.49225  43.9115
 7.51525  43.9966
 7.53825  43.9535
 7.56125  44.0191
 7.58425  44.0822
 7.60725  44.2025
 7.63025  44.1604
 7.65325  44.0262
 7.67625  43.8536
 7.69925  43.9334
 7.72225  44.1242
 7.74525  44.1391
 7.76825  44.1318
 7.79125  44.0979
 7.81425  43.9403
 7.83725  43.7359
 7.86025  43.674
 7.88325  43.5474
 7.90625  43.4057
 7.92925  43.3346
 7.95225  43.3598
 7.97525  43.2034
 7.99825  43.2034
 8.02125  43.0903
 8.04425  43.0223
 8.06725  42.9412
 8.09025  42.715
 8.11325  42.4991
 8.13625  42.1003
 8.15925  41.9059
 8.18225  41.7181
 8.20525  41.5827
 8.22825  41.3725
 8.25125  41.0329
 8.27425  40.8787
 8.29725  40.7037
 8.32025  40.4909
 8.34325  40.1931
 8.36625  39.7
 8.38925  39.3412
 8.41225  39.0758
 8.43525  38.733
 8.45825  38.2123
 8.48125  37.8771
 8.50425  37.6344
 8.52725  37.4504
 8.55025  37.0947
 8.57325  36.7136
 8.59625  36.3014
 8.61925  36.0638
 8.64225  35.9359
 8.66525  35.5394
 8.68825  35.0507
 8.71125  34.6732
 8.73425  34.2993
 8.75725  34.0336
 8.78025  33.8682
 8.80325  33.4348
 8.82625  32.9836
 8.84925  32.5779
 8.87225  32.2855
 8.89525  31.9741
 8.91825  31.7425
 8.94125  31.4228
 8.96425  31.1022
 8.98725  30.8121
 9.01025  30.4456
 9.03325  30.1636
 9.05625  29.853
 9.07925  29.6445
 9.10225  29.4906
 9.12525  29.3898
 9.14825  29.1727
 9.17125  28.7639
 9.19425  28.4861
 9.21725  28.228
 9.24025  27.9375
 9.26325  27.8079
 9.28625  27.703
 9.30925  27.5673
 9.33225  27.4513
 9.35525  27.346
 9.37825  27.2961
 9.40125  27.107
 9.42425  26.8945
 9.44725  26.6628
 9.47025  26.5401
 9.49325  26.455
 9.51625  26.3539
 9.53925  26.1936
 9.56225  26.0648
 9.58525  25.8777
 9.60825  25.8336
 9.63125  25.7101
 9.65425  25.5416
 9.67725  25.3981
 9.70025  25.3358
 9.72325  25.4173
 9.74625  25.2692
 9.76925  25.0386
 9.79225  24.9129
 9.81525  24.9516
 9.83825  24.8969
 9.86125  24.7466
 9.88425  24.6206
 9.90725  24.5587
 9.93025  24.4719
 9.95325  24.4526
 9.97625  24.3883
 9.99925  24.2546
 10.0222  24.2427
 10.0453  24.2331
 10.0683  24.193
 10.0913  24.0417
 10.1143  23.9143
 10.1373  23.9314
 10.1603  23.9677
 10.1832  23.8725
 10.2063  23.8052
 10.2293  23.7579
 10.2523  23.6606
 10.2752  23.5806
 10.2982  23.6893
 10.3213  23.6512
 10.3443  23.6113
 10.3673  23.5287
 10.3902  23.4842
 10.4133  23.4954
 10.4363  23.3427
 10.4593  23.3017
 10.4823  23.2944
 10.5053  23.294
 10.5283  23.1647
 10.5512  23.1389
 10.5742  23.1935
 10.5973  23.1974
 10.6203  23.2364
 10.6433  23.0967
 10.6662  23.056
 10.6893  23.0086
 10.7123  22.9712
 10.7353  22.9195
 10.7583  22.8802
 10.7813  22.9547
 10.8043  22.9218
 10.8272  22.792
 10.8503  22.7947
 10.8733  22.854
 10.8963  22.8393
 10.9192  22.668
 10.9422  22.585
 10.9653  22.5916
 10.9883  22.6046
 11.0113  22.6295
 11.0343  22.6894
 11.0573  22.5672
 11.0803  22.6082
 11.1033  22.6609
 11.1263  22.6155
 11.1493  22.5782
 11.1723  22.574
 11.1953  22.4577
 11.2182  22.4274
 11.2413  22.5143
 11.2643  22.5762
 11.2873  22.5374
 11.3102  22.6164
 11.3333  22.6738
 11.3563  22.6651
 11.3793  22.7094
 11.4023  22.8999
 11.4253  22.879
 11.4483  22.8556
 11.4713  22.9335
 11.4942  23.0333
 11.5173  23.5064
 11.5403  25.1153
 11.5633  27.9282
 11.5862  31.9644
 11.6093  33.6271
 11.6323  30.9799
 11.6553  26.5189
 11.6783  24.1037
 11.7013  23.1804
 11.7243  22.8572
 11.7473  22.71
 11.7703  22.628
 11.7933  22.6943
 11.8163  22.7404
 11.8393  22.715
 11.8622  22.6056
 11.8853  22.6053
 11.9083  22.7992
 11.9313  23.0957
 11.9543  23.5252
 11.9773  24.1281
 12.0003  24.526
 12.0233  24.1897
 12.0463  24.0141
 12.0693  24.8916
 12.0923  26.0476
 12.1153  26.5468
 12.1382  25.1286
 12.1613  23.9463
 12.1843  23.2546
 12.2073  22.9484
 12.2302  22.7687
 12.2533  22.6973
 12.2763  22.6498
 12.2993  22.6455
 12.3223  22.7084
 12.3453  22.7502
 12.3683  22.7409
 12.3913  22.6347
 12.4142  22.5884
 12.4373  22.6112
 12.4603  22.5791
 12.4833  22.6068
 12.5062  22.6426
 12.5292  22.7271
 12.5523  22.792
 12.5753  22.8126
 12.5983  22.8348
 12.6212  22.9251
 12.6443  22.9607
 12.6673  22.8883
 12.6903  22.862
 12.7133  22.9594
 12.7363  23.0147
 12.7593  23.0281
 12.7822  23.2107
 12.8052  23.2578
 12.8283  23.3159
 12.8513  23.3764
 12.8742  23.376
 12.8972  23.4419
 12.9203  23.5308
 12.9433  23.6112
 12.9663  23.75
 12.9893  23.8744
 13.0123  24.0206
 13.0353  24.2314
 13.0582  24.4288
 13.0813  24.5902
 13.1043  24.7002
 13.1273  24.9762
 13.1502  25.1762
 13.1732  25.4593
 13.1963  25.6486
 13.2193  25.9295
 13.2423  26.2879
 13.2652  26.5095
 13.2883  26.743
 13.3113  27.0554
 13.3343  27.3576
 13.3573  27.6906
 13.3803  27.9842
 13.4033  28.1137
 13.4262  28.2971
 13.4492  28.597
 13.4723  28.8046
 13.4953  29.0828
 13.5183  29.2948
 13.5412  29.4798
 13.5643  29.7252
 13.5873  29.9127
 13.6103  29.9064
 13.6333  29.8134
 13.6563  29.8393
 13.6793  29.9308
 13.7022  29.9004
 13.7253  29.8484
 13.7483  29.8948
 13.7713  29.9233
 13.7942  30.0336
 13.8172  30.1241
 13.8403  30.4968
 13.8633  31.6553
 13.8863  35.0572
 13.9093  42.8648
 13.9323  52.111
 13.9553  54.9975
 13.9783  49.1416
 14.0013  39.7792
 14.0243  33.1462
 14.0473  29.9704
 14.0703  28.855
 14.0932  28.3031
 14.1163  27.8848
 14.1393  27.5812
 14.1623  27.4568
 14.1852  27.3104
 14.2083  27.1016
 14.2313  26.8409
 14.2543  26.7227
 14.2773  26.5863
 14.3003  26.5094
 14.3233  26.4176
 14.3463  26.2805
 14.3692  26.2494
 14.3923  26.1953
 14.4153  26.1134
 14.4383  26.0282
 14.4612  25.8504
 14.4843  25.6929
 14.5073  25.6813
 14.5303  25.8302
 14.5533  25.7109
 14.5763  25.5439
 14.5993  25.4816
 14.6223  25.4908
 14.6453  25.4499
 14.6683  25.3198
 14.6913  25.1918
 14.7143  25.1828
 14.7372  25.1645
 14.7603  25.1576
 14.7833  25.0941
 14.8063  25.0541
 14.8293  25.0401
 14.8523  25.1454
 14.8753  25.0755
 14.8983  25.061
 14.9213  25.0296
 14.9443  24.9567
 14.9673  24.8696
 14.9903  24.8709
 15.0132  24.9508
 15.0363  24.9589
 15.0593  24.9884
 15.0823  24.989
 15.1052  25.1254
 15.1283  25.5828
 15.1513  26.9768
 15.1743  28.9834
 15.1973  29.916
 15.2203  29.0207
 15.2433  27.1495
 15.2663  25.7
 15.2892  24.989
 15.3123  24.791
 15.3353  24.7441
 15.3583  24.7352
 15.3812  24.6451
 15.4043  24.6079
 15.4273  24.4783
 15.4503  24.5014
 15.4733  24.437
 15.4963  24.5141
 15.5193  24.5741
 15.5423  24.5895
 15.5653  24.5777
 15.5883  24.5155
 15.6113  24.4786
 15.6343  24.4869
 15.6572  24.5781
 15.6803  24.612
 15.7033  24.5529
 15.7263  24.5948
 15.7492  24.5851
 15.7723  24.6036
 15.7953  24.69
 15.8183  24.7382
 15.8413  24.6819
 15.8643  24.6825
 15.8873  24.7906
 15.9103  24.8399
 15.9332  24.8109
 15.9563  24.8916
 15.9793  24.9194
 16.0023  24.8333
 16.0253  24.7449
 16.0482  24.7292
 16.0713  24.7108
 16.0943  24.7017
 16.1172  24.7809
 16.1403  24.8017
 16.1633  24.9182
 16.1863  25.1747
 16.2093  25.4898
 16.2323  25.84
 16.2553  26.1195
 16.2783  26.0132
 16.3012  25.4597
 16.3243  25.0761
 16.3472  24.8402
 16.3703  24.787
 16.3933  24.7677
 16.4163  24.744
 16.4393  24.6537
 16.4623  24.6506
 16.4853  24.6258
 16.5083  24.6511
 16.5312  24.6854
 16.5543  24.7271
 16.5773  24.6106
 16.6002  24.5989
 16.6233  24.6228
 16.6463  24.5725
 16.6693  24.6008
 16.6923  24.6196
 16.7153  24.5551
 16.7383  24.4148
 16.7613  24.3314
 16.7843  24.4413
 16.8073  24.5533
 16.8303  24.5312
 16.8533  24.5642
 16.8763  24.4989
 16.8992  24.4607
 16.9223  24.4275
 16.9453  24.3296
 16.9683  24.3307
 16.9913  24.3899
 17.0143  24.3642
 17.0373  24.2988
 17.0603  24.2761
 17.0832  24.2605
 17.1063  24.1799
 17.1293  24.1568
 17.1522  24.1767
 17.1753  24.1793
 17.1983  24.1897
 17.2213  24.2857
 17.2443  24.2643
 17.2673  24.2208
 17.2903  24.1999
 17.3133  24.1496
 17.3362  24.2194
 17.3593  24.1938
 17.3823  24.0837
 17.4053  23.974
 17.4283  23.8963
 17.4513  23.9701
 17.4743  24.0873
 17.4973  24.1256
 17.5203  24.0458
 17.5433  24.1064
 17.5663  23.9518
 17.5893  23.8839
 17.6123  23.958
 17.6352  23.9842
 17.6583  23.9947
 17.6813  24.0444
 17.7042  23.97
 17.7273  23.8954
 17.7503  23.909
 17.7733  23.9149
 17.7963  23.9891
 17.8193  23.8846
 17.8423  23.8606
 17.8653  23.9453
 17.8882  23.9879
 17.9113  24.035
 17.9343  24.1498
 17.9573  24.3571
 17.9803  24.9415
 18.0033  25.5302
 18.0263  25.6272
 18.0493  25.6165
 18.0723  26.1443
 18.0953  27.4777
 18.1183  27.711
 18.1413  27.1558
 18.1643  25.9602
 18.1872  24.829
 18.2103  24.1927
 18.2333  23.9412
 18.2563  23.8341
 18.2793  23.893
 18.3023  23.8823
 18.3253  23.7654
 18.3483  23.6932
 18.3712  23.7614
 18.3943  23.8307
 18.4173  23.831
 18.4402  23.7192
 18.4633  23.6695
 18.4863  23.6333
 18.5093  23.6492
 18.5323  23.6713
 18.5553  23.6894
 18.5783  23.7262
 18.6013  23.7452
 18.6242  23.6173
 18.6473  23.5909
 18.6703  23.6603
 18.6933  23.6468
 18.7163  23.609
 18.7392  23.5902
 18.7623  23.5465
 18.7853  23.6097
 18.8083  23.649
 18.8313  23.6433
 18.8543  23.5786
 18.8773  23.5309
 18.9003  23.5651
 18.9232  23.6777
 18.9463  23.7314
 18.9693  23.7269
 18.9922  23.7598
 19.0153  23.5978
 19.0383  23.6071
 19.0613  23.6771
 19.0843  23.7318
 19.1073  23.6673
 19.1303  23.69
 19.1533  23.7858
 19.1762  23.6936
 19.1993  23.672
 19.2223  23.6501
 19.2453  23.5986
 19.2683  23.5707
 19.2913  23.5079
 19.3143  23.5609
 19.3373  23.6409
 19.3603  23.7164
 19.3833  23.7736
 19.4062  23.7839
 19.4293  23.7359
 19.4523  23.7154
 19.4752  23.706
 19.4983  23.7383
 19.5213  23.8262
 19.5443  23.8467
 19.5673  23.7884
 19.5903  23.9163
 19.6133  23.987
 19.6363  24.3196
 19.6593  24.9422
 19.6823  25.8097
 19.7053  26.8877
 19.7283  27.3076
 19.7513  26.6645
 19.7742  25.7963
 19.7973  25.6265
 19.8203  26.3612
 19.8433  27.7266
 19.8663  28.3216
 19.8893  26.8417
 19.9123  25.6658
 19.9353  24.6447
 19.9582  24.1525
 19.9813  23.9568
 20.0043  23.9933
 20.0272  23.9219
 20.0503  23.864
 20.0733  23.8235
 20.0963  23.8404
 20.1193  23.8894
 20.1423  23.9054
 20.1653  23.9601
 20.1883  23.9358
 20.2112  23.8723
 20.2343  23.9198
 20.2573  23.8632
 20.2803  23.8006
 20.3033  23.7556
 20.3263  23.7806
 20.3493  23.8509
 20.3723  23.8645
 20.3953  23.8884
 20.4183  23.9094
 20.4413  23.8686
 20.4643  23.8212
 20.4873  23.7522
 20.5102  23.7948
 20.5333  23.799
 20.5563  23.9174
 20.5792  23.9679
 20.6023  23.9976
 20.6253  23.9812
 20.6483  24.0637
 20.6713  24.3146
 20.6943  24.605
 20.7173  25.1138
 20.7403  25.7894
 20.7632  26.3041
 20.7863  26.0444
 20.8093  25.3923
 20.8323  24.691
 20.8553  24.2715
 20.8783  24.0695
 20.9013  24.0271
 20.9243  24.1545
 20.9473  24.1417
 20.9703  24.0738
 20.9933  24.0052
 21.0163  23.9241
 21.0393  23.9619
 21.0622  24.0308
 21.0853  24.0177
 21.1083  23.9822
 21.1313  23.9828
 21.1543  23.896
 21.1773  23.993
 21.2003  24.0499
 21.2233  23.9558
 21.2462  24.028
 21.2693  24.0907
 21.2923  24.0582
 21.3152  23.9767
 21.3383  23.9684
 21.3613  24.0296
 21.3843  24.0619
 21.4073  24.0048
 21.4303  23.9682
 21.4533  23.9121
 21.4763  24.0196
 21.4992  24.1241
 21.5223  24.1176
 21.5453  24.0168
 21.5683  24.0935
 21.5913  24.2174
 21.6142  24.2216
 21.6373  24.1726
 21.6603  24.2153
 21.6833  24.2729
 21.7063  24.1823
 21.7293  24.2004
 21.7523  24.2583
 21.7753  24.2054
 21.7982  24.1847
 21.8213  24.1755
 21.8443  24.1195
 21.8672  24.2108
 21.8903  24.2978
 21.9133  24.4152
 21.9363  24.4553
 21.9593  24.3461
 21.9823  24.3772
 22.0053  24.3418
 22.0283  24.3384
 22.0512  24.4045
 22.0743  24.38
 22.0973  24.3464
 22.1203  24.4434
 22.1433  24.4565
 22.1663  24.4695
 22.1893  24.3583
 22.2123  24.2601
 22.2353  24.3737
 22.2583  24.5133
 22.2813  24.557
 22.3043  24.6178
 22.3273  24.6435
 22.3502  24.6847
 22.3733  24.6598
 22.3963  24.6835
 22.4193  24.6691
 22.4423  24.7364
 22.4653  24.7544
 22.4883  24.7035
 22.5113  24.7701
 22.5343  24.8017
 22.5573  24.9103
 22.5803  24.9783
 22.6033  24.9241
 22.6263  24.95
 22.6493  24.9576
 22.6723  25.0004
 22.6953  25.2239
 22.7183  25.3467
 22.7413  25.3601
 22.7643  25.3662
 22.7873  25.3617
 22.8103  25.5574
 22.8333  25.636
 22.8563  25.72
 22.8793  25.7588
 22.9022  25.8884
 22.9253  25.9482
 22.9483  26.0584
 22.9713  26.1874
 22.9943  26.5034