File: test-data-xrd/xrd-map-34-ID-E/Data_0117.chi
F:\20151113_APS_34IDE\\Brian\Particle1\OCV\Data_0117.tif
2-Theta Angle (Degrees)
Intensity
       2000
 0.01725  0.0000000E+00
 0.04025  0.0000000E+00
 0.06325  0.0000000E+00
 0.08625  0.0000000E+00
 0.10925  0.0000000E+00
 0.13225  0.0000000E+00
 0.15525  0.0000000E+00
 0.17825  0.0000000E+00
 0.20125  0.0000000E+00
 0.22425  0.0000000E+00
 0.24725  0.0000000E+00
 0.27025  0.0000000E+00
 0.29325  0.0000000E+00
 0.31625  0.0000000E+00
 0.33925  0.0000000E+00
 0.36225  0.0000000E+00
 0.38525  0.0000000E+00
 0.40825  0.0000000E+00
 0.43125  0.0000000E+00
 0.45425  0.0000000E+00
 0.47725  0.0000000E+00
 0.50025  0.0000000E+00
 0.52325  0.0000000E+00
 0.54625  0.0000000E+00
 0.56925  0.0000000E+00
 0.59225  0.0000000E+00
 0.61525  0.0000000E+00
 0.63825  0.0000000E+00
 0.66125  0.0000000E+00
 0.68425  0.0000000E+00
 0.70725  0.0000000E+00
 0.73025  0.0000000E+00
 0.75325  0.0000000E+00
 0.77625  0.0000000E+00
 0.79925  0.0000000E+00
 0.82225  0.0000000E+00
 0.84525  0.0000000E+00
 0.86825  0.0000000E+00
 0.89125  0.0000000E+00
 0.91425  0.0000000E+00
 0.93725  0.0000000E+00
 0.96025  0.0000000E+00
 0.98325  0.0000000E+00
 1.00625  0.0000000E+00
 1.02925  0.0000000E+00
 1.05225  0.0000000E+00
 1.07525  0.0000000E+00
 1.09825  0.0000000E+00
 1.12125  0.0000000E+00
 1.14425  0.0000000E+00
 1.16725  0.0000000E+00
 1.19025  0.0000000E+00
 1.21325  0.0000000E+00
 1.23625  0.0000000E+00
 1.25925  0.0000000E+00
 1.28225  0.0000000E+00
 1.30525  0.0000000E+00
 1.32825  0.0000000E+00
 1.35125  0.0000000E+00
 1.37425  0.0000000E+00
 1.39725  0.0000000E+00
 1.42025  0.0000000E+00
 1.44325  0.0000000E+00
 1.46625  0.0000000E+00
 1.48925  0.0000000E+00
 1.51225  0.0000000E+00
 1.53525  0.0000000E+00
 1.55825  0.0000000E+00
 1.58125  0.0000000E+00
 1.60425  0.0000000E+00
 1.62725  0.0000000E+00
 1.65025  0.0000000E+00
 1.67325  0.0000000E+00
 1.69625  0.0000000E+00
 1.71925  0.0000000E+00
 1.74225  0.0000000E+00
 1.76525  0.0000000E+00
 1.78825  0.0000000E+00
 1.81125  0.0000000E+00
 1.83425  0.0000000E+00
 1.85725  0.0000000E+00
 1.88025  0.0000000E+00
 1.90325  0.0000000E+00
 1.92625  0.0000000E+00
 1.94925  0.0000000E+00
 1.97225  0.0000000E+00
 1.99525  0.0000000E+00
 2.01825  0.0000000E+00
 2.04125  0.0000000E+00
 2.06425  0.0000000E+00
 2.08725  0.0000000E+00
 2.11025  0.0000000E+00
 2.13325  0.0000000E+00
 2.15625  0.0000000E+00
 2.17925  0.0000000E+00
 2.20225  0.0000000E+00
 2.22525  0.0000000E+00
 2.24825  0.0000000E+00
 2.27125  0.0000000E+00
 2.29425  0.0000000E+00
 2.31725  0.0000000E+00
 2.34025  0.0000000E+00
 2.36325  0.0000000E+00
 2.38625  0.0000000E+00
 2.40925  0.0000000E+00
 2.43225  0.0000000E+00
 2.45525  0.0000000E+00
 2.47825  0.0000000E+00
 2.50125  0.0000000E+00
 2.52425  0.0000000E+00
 2.54725  0.0000000E+00
 2.57025  0.0000000E+00
 2.59325  0.0000000E+00
 2.61625  0.0000000E+00
 2.63925  0.0000000E+00
 2.66225  0.0000000E+00
 2.68525  0.0000000E+00
 2.70825  0.0000000E+00
 2.73125  0.0000000E+00
 2.75425  0.0000000E+00
 2.77725  0.0000000E+00
 2.80025  0.0000000E+00
 2.82325  32.332
 2.84625  34.1921
 2.86925  34.1305
 2.89225  34.282
 2.91525  34.9453
 2.93825  35.3679
 2.96125  35.3881
 2.98425  35.464
 3.00725  36.1666
 3.03025  35.7339
 3.05325  35.355
 3.07625  35.0533
 3.09925  34.7283
 3.12225  34.6849
 3.14525  35.4244
 3.16825  35.8195
 3.19125  35.8108
 3.21425  35.216
 3.23725  35.0459
 3.26025  35.5526
 3.28325  35.5863
 3.30625  35.4971
 3.32925  35.0654
 3.35225  34.2093
 3.37525  33.714
 3.39825  33.6758
 3.42125  33.2912
 3.44425  33.5383
 3.46725  33.9894
 3.49025  34.5844
 3.51325  34.0916
 3.53625  33.5027
 3.55925  33.4842
 3.58225  33.6191
 3.60525  33.6196
 3.62825  33.4405
 3.65125  33.2569
 3.67425  33.1925
 3.69725  33.0157
 3.72025  32.5377
 3.74325  32.2611
 3.76625  32.3257
 3.78925  32.2333
 3.81225  32.0512
 3.83525  31.9186
 3.85825  32.0483
 3.88125  32.5132
 3.90425  32.6494
 3.92725  32.7036
 3.95025  32.7985
 3.97325  32.7504
 3.99625  32.1842
 4.01925  31.8319
 4.04225  31.8125
 4.06525  31.8341
 4.08825  31.9986
 4.11125  32.0644
 4.13425  31.9973
 4.15725  31.7888
 4.18025  31.2628
 4.20325  31.2282
 4.22625  31.563
 4.24925  31.3878
 4.27225  31.4154
 4.29525  31.5136
 4.31825  31.6996
 4.34125  31.6767
 4.36425  31.7187
 4.38725  31.9184
 4.41025  31.8106
 4.43325  31.9388
 4.45625  31.8102
 4.47925  31.8474
 4.50225  31.8335
 4.52525  31.9932
 4.54825  32.1902
 4.57125  32.3993
 4.59425  32.4175
 4.61725  32.3947
 4.64025  32.499
 4.66325  32.4878
 4.68625  32.3704
 4.70925  32.3251
 4.73225  32.5074
 4.75525  32.499
 4.77825  32.247
 4.80125  32.1086
 4.82425  32.151
 4.84725  32.1456
 4.87025  32.2125
 4.89325  32.2146
 4.91625  32.3567
 4.93925  32.2976
 4.96225  32.3344
 4.98525  32.4624
 5.00825  32.6923
 5.03125  32.8532
 5.05425  32.9073
 5.07725  32.8647
 5.10025  32.8616
 5.12325  32.9382
 5.14625  33.1201
 5.16925  33.3268
 5.19225  33.4436
 5.21525  33.4218
 5.23825  33.4456
 5.26125  33.5292
 5.28425  33.5449
 5.30725  33.7095
 5.33025  33.9534
 5.35325  33.8829
 5.37625  33.7208
 5.39925  33.7803
 5.42225  33.7801
 5.44525  33.819
 5.46825  34.0553
 5.49125  34.2175
 5.51425  34.271
 5.53725  34.4253
 5.56025  34.5898
 5.58325  34.5977
 5.60625  34.7707
 5.62925  34.8625
 5.65225  34.8208
 5.67525  34.9693
 5.69825  35.2014
 5.72125  35.3143
 5.74425  35.5256
 5.76725  35.4591
 5.79025  35.6207
 5.81325  35.8841
 5.83625  35.9977
 5.85925  36.2537
 5.88225  36.8835
 5.90525  38.461
 5.92825  42.8126
 5.95125  55.19
 5.97425  74.2671
 5.99725  82.08
 6.02025  68.4223
 6.04325  50.2613
 6.06625  41.1166
 6.08925  38.303
 6.11225  37.3997
 6.13525  37.0048
 6.15825  36.6848
 6.18125  36.7332
 6.20425  36.7897
 6.22725  36.7764
 6.25025  36.6169
 6.27325  36.9981
 6.29625  37.2378
 6.31925  37.2499
 6.34225  37.4265
 6.36525  37.5306
 6.38825  37.7425
 6.41125  37.931
 6.43425  38.1031
 6.45725  38.1191
 6.48025  38.1265
 6.50325  38.2955
 6.52625  38.4615
 6.54925  38.6294
 6.57225  38.7689
 6.59525  39.1023
 6.61825  39.4226
 6.64125  39.7531
 6.66425  39.9855
 6.68725  39.8672
 6.71025  39.7969
 6.73325  40.0027
 6.75625  40.193
 6.77925  40.35
 6.80225  40.526
 6.82525  40.726
 6.84825  40.9643
 6.87125  41.2206
 6.89425  41.4308
 6.91725  41.3832
 6.94025  41.1362
 6.96325  41.1121
 6.98625  41.3206
 7.00925  41.5735
 7.03225  41.8385
 7.05525  42.1256
 7.07825  42.2287
 7.10125  42.3314
 7.12425  42.5406
 7.14725  42.6886
 7.17025  42.6377
 7.19325  42.6932
 7.21625  43.0176
 7.23925  43.0258
 7.26225  42.8829
 7.28525  42.8893
 7.30825  43.0101
 7.33125  43.2325
 7.35425  43.3328
 7.37725  43.2321
 7.40025  43.3303
 7.42325  43.4867
 7.44625  43.6038
 7.46925  43.6494
 7.49225  43.6407
 7.51525  43.7701
 7.53825  43.702
 7.56125  43.6883
 7.58425  43.672
 7.60725  43.6092
 7.63025  43.4661
 7.65325  43.5104
 7.67625  43.5825
 7.69925  43.6182
 7.72225  43.5677
 7.74525  43.6451
 7.76825  43.5603
 7.79125  43.4678
 7.81425  43.314
 7.83725  43.3379
 7.86025  43.44
 7.88325  43.3523
 7.90625  43.2205
 7.92925  43.0644
 7.95225  42.9287
 7.97525  42.8441
 7.99825  42.8798
 8.02125  42.8714
 8.04425  42.591
 8.06725  42.2811
 8.09025  42.187
 8.11325  42.1628
 8.13625  42.0812
 8.15925  41.8323
 8.18225  41.5502
 8.20525  41.1472
 8.22825  40.8854
 8.25125  40.761
 8.27425  40.5223
 8.29725  40.4554
 8.32025  40.3543
 8.34325  39.976
 8.36625  39.6041
 8.38925  39.2322
 8.41225  38.9312
 8.43525  38.5101
 8.45825  37.9975
 8.48125  37.5192
 8.50425  37.3995
 8.52725  37.2525
 8.55025  36.7438
 8.57325  36.2381
 8.59625  35.9053
 8.61925  35.638
 8.64225  35.4059
 8.66525  35.2266
 8.68825  34.9037
 8.71125  34.4107
 8.73425  33.9785
 8.75725  33.5385
 8.78025  33.4105
 8.80325  32.9829
 8.82625  32.5901
 8.84925  32.3803
 8.87225  32.1387
 8.89525  31.6367
 8.91825  31.2262
 8.94125  30.9667
 8.96425  30.7135
 8.98725  30.3457
 9.01025  30.0023
 9.03325  29.7435
 9.05625  29.6763
 9.07925  29.4716
 9.10225  29.2137
 9.12525  28.9751
 9.14825  28.7791
 9.17125  28.5596
 9.19425  28.3701
 9.21725  28.2356
 9.24025  27.9892
 9.26325  27.675
 9.28625  27.4766
 9.30925  27.3993
 9.33225  27.2707
 9.35525  26.9788
 9.37825  26.706
 9.40125  26.5939
 9.42425  26.4808
 9.44725  26.4247
 9.47025  26.3002
 9.49325  26.3429
 9.51625  26.183
 9.53925  25.9097
 9.56225  25.6596
 9.58525  25.4845
 9.60825  25.5057
 9.63125  25.4258
 9.65425  25.2443
 9.67725  25.0608
 9.70025  24.9185
 9.72325  24.9839
 9.74625  24.916
 9.76925  24.8284
 9.79225  24.7695
 9.81525  24.6822
 9.83825  24.6154
 9.86125  24.6002
 9.88425  24.5313
 9.90725  24.383
 9.93025  24.2948
 9.95325  24.3197
 9.97625  24.2116
 9.99925  24.0508
 10.0222  23.9618
 10.0453  23.9497
 10.0683  23.8783
 10.0913  23.7708
 10.1143  23.7358
 10.1373  23.6898
 10.1603  23.6187
 10.1832  23.594
 10.2063  23.5508
 10.2293  23.4871
 10.2523  23.2729
 10.2752  23.1771
 10.2982  23.2551
 10.3213  23.1988
 10.3443  23.1302
 10.3673  23.0814
 10.3902  23.1284
 10.4133  23.2391
 10.4363  23.3699
 10.4593  23.5438
 10.4823  23.4329
 10.5053  23.1727
 10.5283  22.9857
 10.5512  22.9303
 10.5742  22.9411
 10.5973  22.9158
 10.6203  22.8365
 10.6433  22.6951
 10.6662  22.6268
 10.6893  22.5383
 10.7123  22.5603
 10.7353  22.6419
 10.7583  22.6134
 10.7813  22.5687
 10.8043  22.5797
 10.8272  22.5086
 10.8503  22.4578
 10.8733  22.5046
 10.8963  22.3884
 10.9192  22.3659
 10.9422  22.4279
 10.9653  22.3923
 10.9883  22.3841
 11.0113  22.3707
 11.0343  22.403
 11.0573  22.3158
 11.0803  22.248
 11.1033  22.3858
 11.1263  22.3374
 11.1493  22.2074
 11.1723  22.1524
 11.1953  22.0321
 11.2182  21.9994
 11.2413  22.0574
 11.2643  22.1542
 11.2873  22.3119
 11.3102  22.1727
 11.3333  22.075
 11.3563  22.1594
 11.3793  22.3368
 11.4023  22.4519
 11.4253  22.5127
 11.4483  22.436
 11.4713  22.5026
 11.4942  22.4418
 11.5173  22.5403
 11.5403  22.9614
 11.5633  23.5071
 11.5862  23.9376
 11.6093  23.8768
 11.6323  23.4358
 11.6553  22.8932
 11.6783  22.533
 11.7013  22.3012
 11.7243  22.1534
 11.7473  22.0522
 11.7703  22.0655
 11.7933  22.0864
 11.8163  22.2647
 11.8393  22.2734
 11.8622  22.1619
 11.8853  22.128
 11.9083  22.1889
 11.9313  22.297
 11.9543  22.4894
 11.9773  22.6878
 12.0003  22.8096
 12.0233  22.8524
 12.0463  22.8103
 12.0693  22.8584
 12.0923  23.136
 12.1153  23.1328
 12.1382  22.8374
 12.1613  22.4961
 12.1843  22.2974
 12.2073  22.239
 12.2302  22.2271
 12.2533  22.3029
 12.2763  22.3467
 12.2993  22.2922
 12.3223  22.1853
 12.3453  22.153
 12.3683  22.1323
 12.3913  22.2868
 12.4142  22.3335
 12.4373  22.3625
 12.4603  22.3481
 12.4833  22.3217
 12.5062  22.3343
 12.5292  22.4472
 12.5523  22.557
 12.5753  22.6221
 12.5983  22.6592
 12.6212  22.6289
 12.6443  22.441
 12.6673  22.4905
 12.6903  22.5671
 12.7133  22.6988
 12.7363  22.7303
 12.7593  22.7884
 12.7822  22.7739
 12.8052  22.7409
 12.8283  22.8459
 12.8513  22.9156
 12.8742  23.1264
 12.8972  23.198
 12.9203  23.2849
 12.9433  23.4831
 12.9663  23.5498
 12.9893  23.6294
 13.0123  23.6935
 13.0353  23.8225
 13.0582  23.961
 13.0813  24.1385
 13.1043  24.3588
 13.1273  24.6919
 13.1502  24.9011
 13.1732  25.0897
 13.1963  25.2546
 13.2193  25.52
 13.2423  25.8228
 13.2652  26.1068
 13.2883  26.3931
 13.3113  26.6855
 13.3343  27.0223
 13.3573  27.3505
 13.3803  27.5437
 13.4033  27.7152
 13.4262  27.9404
 13.4492  28.1882
 13.4723  28.4925
 13.4953  28.8102
 13.5183  29.0441
 13.5412  29.0021
 13.5643  29.0223
 13.5873  29.2084
 13.6103  29.2649
 13.6333  29.2165
 13.6563  29.2305
 13.6793  29.2528
 13.7022  29.272
 13.7253  29.2506
 13.7483  29.2225
 13.7713  29.1199
 13.7942  29.0005
 13.8172  28.926
 13.8403  28.9548
 13.8633  29.1133
 13.8863  29.668
 13.9093  31.0543
 13.9323  33.4655
 13.9553  35.335
 13.9783  34.5498
 14.0013  31.9883
 14.0243  29.3863
 14.0473  28.1774
 14.0703  27.7616
 14.0932  27.3942
 14.1163  27.1111
 14.1393  26.895
 14.1623  26.8065
 14.1852  26.6046
 14.2083  26.4745
 14.2313  26.3237
 14.2543  26.0645
 14.2773  25.9531
 14.3003  25.8559
 14.3233  25.7871
 14.3463  25.7178
 14.3692  25.7353
 14.3923  25.693
 14.4153  25.6381
 14.4383  25.5876
 14.4612  25.4233
 14.4843  25.2701
 14.5073  25.2654
 14.5303  25.2357
 14.5533  25.219
 14.5763  25.099
 14.5993  25.1138
 14.6223  25.1235
 14.6453  25.059
 14.6683  25.0441
 14.6913  24.9598
 14.7143  24.8866
 14.7372  24.8233
 14.7603  24.8467
 14.7833  24.7882
 14.8063  24.6983
 14.8293  24.7445
 14.8523  24.7894
 14.8753  24.6807
 14.8983  24.6034
 14.9213  24.581
 14.9443  24.5564
 14.9673  24.4784
 14.9903  24.4266
 15.0132  24.4558
 15.0363  24.4704
 15.0593  24.4507
 15.0823  24.5146
 15.1052  24.6089
 15.1283  24.7234
 15.1513  25.1161
 15.1743  25.559
 15.1973  25.629
 15.2203  25.3608
 15.2433  24.9952
 15.2663  24.5807
 15.2892  24.3938
 15.3123  24.3623
 15.3353  24.2718
 15.3583  24.2168
 15.3812  24.2564
 15.4043  24.3117
 15.4273  24.2917
 15.4503  24.2715
 15.4733  24.0818
 15.4963  24.0633
 15.5193  24.1134
 15.5423  24.2018
 15.5653  24.2257
 15.5883  24.2685
 15.6113  24.2517
 15.6343  24.2702
 15.6572  24.2462
 15.6803  24.2063
 15.7033  24.2164
 15.7263  24.2557
 15.7492  24.1982
 15.7723  24.2394
 15.7953  24.2684
 15.8183  24.3315
 15.8413  24.2387
 15.8643  24.1899
 15.8873  24.2584
 15.9103  24.3009
 15.9332  24.227
 15.9563  24.1822
 15.9793  24.2488
 16.0023  24.3887
 16.0253  24.4783
 16.0482  24.4814
 16.0713  24.3533
 16.0943  24.3398
 16.1172  24.4931
 16.1403  24.5772
 16.1633  24.5373
 16.1863  24.6135
 16.2093  24.7861
 16.2323  25.1486
 16.2553  25.4419
 16.2783  25.3701
 16.3012  24.9005
 16.3243  24.5617
 16.3472  24.4004
 16.3703  24.3902
 16.3933  24.4464
 16.4163  24.4978
 16.4393  24.5012
 16.4623  24.5223
 16.4853  24.4421
 16.5083  24.3571
 16.5312  24.3963
 16.5543  24.3699
 16.5773  24.2643
 16.6002  24.1966
 16.6233  24.2192
 16.6463  24.2494
 16.6693  24.2891
 16.6923  24.302
 16.7153  24.211
 16.7383  24.1364
 16.7613  24.0814
 16.7843  24.0009
 16.8073  24.051
 16.8303  24.0485
 16.8533  24.0197
 16.8763  24.0504
 16.8992  23.9782
 16.9223  23.9862
 16.9453  24.0021
 16.9683  23.9909
 16.9913  24.0755
 17.0143  23.9746
 17.0373  23.9182
 17.0603  23.8223
 17.0832  23.9203
 17.1063  23.9567
 17.1293  23.9497
 17.1522  23.9064
 17.1753  23.8493
 17.1983  23.8655
 17.2213  23.8798
 17.2443  23.7882
 17.2673  23.729
 17.2903  23.7774
 17.3133  23.7978
 17.3362  23.815
 17.3593  23.7759
 17.3823  23.7095
 17.4053  23.6824
 17.4283  23.66
 17.4513  23.5693
 17.4743  23.5892
 17.4973  23.5511
 17.5203  23.4881
 17.5433  23.558
 17.5663  23.5876
 17.5893  23.5442
 17.6123  23.5209
 17.6352  23.4344
 17.6583  23.3128
 17.6813  23.5501
 17.7042  23.7031
 17.7273  23.5003
 17.7503  23.4659
 17.7733  23.3849
 17.7963  23.4195
 17.8193  23.4653
 17.8423  23.4543
 17.8653  23.4943
 17.8882  23.4573
 17.9113  23.5263
 17.9343  23.4681
 17.9573  23.4993
 17.9803  23.5029
 18.0033  23.7559
 18.0263  23.932
 18.0493  24.1503
 18.0723  24.1029
 18.0953  24.0595
 18.1183  23.94
 18.1413  23.762
 18.1643  23.5745
 18.1872  23.4582
 18.2103  23.4104
 18.2333  23.3745
 18.2563  23.3224
 18.2793  23.2997
 18.3023  23.3174
 18.3253  23.2594
 18.3483  23.2973
 18.3712  23.3017
 18.3943  23.2963
 18.4173  23.3349
 18.4402  23.2198
 18.4633  23.2053
 18.4863  23.2473
 18.5093  23.2308
 18.5323  23.2188
 18.5553  23.1972
 18.5783  23.2426
 18.6013  23.2855
 18.6242  23.2208
 18.6473  23.2844
 18.6703  23.2798
 18.6933  23.3356
 18.7163  23.2269
 18.7392  23.1252
 18.7623  23.0535
 18.7853  23.0765
 18.8083  23.1242
 18.8313  23.1472
 18.8543  23.0997
 18.8773  23.1839
 18.9003  23.2254
 18.9232  23.2414
 18.9463  23.3062
 18.9693  23.1953
 18.9922  23.1439
 19.0153  23.1848
 19.0383  23.1519
 19.0613  23.0986
 19.0843  23.162
 19.1073  23.1155
 19.1303  23.067
 19.1533  23.1607
 19.1762  23.2085
 19.1993  23.2768
 19.2223  23.366
 19.2453  23.2453
 19.2683  23.2656
 19.2913  23.2426
 19.3143  23.2615
 19.3373  23.2595
 19.3603  23.2186
 19.3833  23.2495
 19.4062  23.2637
 19.4293  23.3915
 19.4523  23.4347
 19.4752  23.3773
 19.4983  23.4319
 19.5213  23.4645
 19.5443  23.5175
 19.5673  23.586
 19.5903  23.6158
 19.6133  23.6855
 19.6363  24.0529
 19.6593  24.8554
 19.6823  26.7559
 19.7053  27.5066
 19.7283  27.2444
 19.7513  25.8509
 19.7742  24.9268
 19.7973  24.6139
 19.8203  24.7228
 19.8433  25.006
 19.8663  24.9879
 19.8893  24.6392
 19.9123  24.2645
 19.9353  23.8579
 19.9582  23.5954
 19.9813  23.5106
 20.0043  23.4314
 20.0272  23.4308
 20.0503  23.4202
 20.0733  23.3806
 20.0963  23.4097
 20.1193  23.5056
 20.1423  23.5377
 20.1653  23.4917
 20.1883  23.3967
 20.2112  23.383
 20.2343  23.4839
 20.2573  23.4889
 20.2803  23.5073
 20.3033  23.448
 20.3263  23.4088
 20.3493  23.484
 20.3723  23.4907
 20.3953  23.4779
 20.4183  23.5286
 20.4413  23.4519
 20.4643  23.4633
 20.4873  23.5196
 20.5102  23.439
 20.5333  23.398
 20.5563  23.5916
 20.5792  23.6442
 20.6023  23.7281
 20.6253  23.7482
 20.6483  23.7365
 20.6713  23.7814
 20.6943  24.1084
 20.7173  24.7054
 20.7403  25.398
 20.7632  25.7318
 20.7863  25.3675
 20.8093  24.5329
 20.8323  23.9165
 20.8553  23.8015
 20.8783  23.7526
 20.9013  23.7427
 20.9243  23.7806
 20.9473  23.7623
 20.9703  23.6354
 20.9933  23.5825
 21.0163  23.6122
 21.0393  23.6488
 21.0622  23.6361
 21.0853  23.6597
 21.1083  23.6097
 21.1313  23.7088
 21.1543  23.5847
 21.1773  23.6101
 21.2003  23.5788
 21.2233  23.5543
 21.2462  23.6341
 21.2693  23.6182
 21.2923  23.6301
 21.3152  23.6534
 21.3383  23.634
 21.3613  23.6478
 21.3843  23.6477
 21.4073  23.6321
 21.4303  23.6682
 21.4533  23.6698
 21.4763  23.7032
 21.4992  23.6843
 21.5223  23.6475
 21.5453  23.6992
 21.5683  23.6859
 21.5913  23.6933
 21.6142  23.7246
 21.6373  23.7003
 21.6603  23.6903
 21.6833  23.7607
 21.7063  23.7512
 21.7293  23.7835
 21.7523  23.7656
 21.7753  23.8138
 21.7982  23.8356
 21.8213  23.8713
 21.8443  23.7981
 21.8672  23.8997
 21.8903  24.0005
 21.9133  23.9879
 21.9363  23.9003
 21.9593  23.8319
 21.9823  23.7882
 22.0053  23.8573
 22.0283  23.9161
 22.0512  23.9399
 22.0743  23.9621
 22.0973  24.2831
 22.1203  24.4042
 22.1433  24.1438
 22.1663  23.9278
 22.1893  23.8856
 22.2123  23.9218
 22.2353  24.0798
 22.2583  24.1575
 22.2813  24.14
 22.3043  24.2106
 22.3273  24.2849
 22.3502  24.3125
 22.3733  24.3132
 22.3963  24.2831
 22.4193  24.2146
 22.4423  24.3111
 22.4653  24.3983
 22.4883  24.3875
 22.5113  24.453
 22.5343  24.523
 22.5573  24.5154
 22.5803  24.4873
 22.6033  24.5748
 22.6263  24.712
 22.6493  24.7123
 22.6723  24.6893
 22.6953  24.895
 22.7183  24.8935
 22.7413  24.8578
 22.7643  24.951
 22.7873  24.8956
 22.8103  25.0277
 22.8333  25.1885
 22.8563  25.2412
 22.8793  25.291
 22.9022  25.4156
 22.9253  25.5991
 22.9483  25.6809
 22.9713  25.7532
 22.9943  25.958