File: test-data-xrd/xrd-map-34-ID-E/Data_0112.chi
F:\20151113_APS_34IDE\\Brian\Particle1\OCV\Data_0112.tif
2-Theta Angle (Degrees)
Intensity
       2000
 0.01725  0.0000000E+00
 0.04025  0.0000000E+00
 0.06325  0.0000000E+00
 0.08625  0.0000000E+00
 0.10925  0.0000000E+00
 0.13225  0.0000000E+00
 0.15525  0.0000000E+00
 0.17825  0.0000000E+00
 0.20125  0.0000000E+00
 0.22425  0.0000000E+00
 0.24725  0.0000000E+00
 0.27025  0.0000000E+00
 0.29325  0.0000000E+00
 0.31625  0.0000000E+00
 0.33925  0.0000000E+00
 0.36225  0.0000000E+00
 0.38525  0.0000000E+00
 0.40825  0.0000000E+00
 0.43125  0.0000000E+00
 0.45425  0.0000000E+00
 0.47725  0.0000000E+00
 0.50025  0.0000000E+00
 0.52325  0.0000000E+00
 0.54625  0.0000000E+00
 0.56925  0.0000000E+00
 0.59225  0.0000000E+00
 0.61525  0.0000000E+00
 0.63825  0.0000000E+00
 0.66125  0.0000000E+00
 0.68425  0.0000000E+00
 0.70725  0.0000000E+00
 0.73025  0.0000000E+00
 0.75325  0.0000000E+00
 0.77625  0.0000000E+00
 0.79925  0.0000000E+00
 0.82225  0.0000000E+00
 0.84525  0.0000000E+00
 0.86825  0.0000000E+00
 0.89125  0.0000000E+00
 0.91425  0.0000000E+00
 0.93725  0.0000000E+00
 0.96025  0.0000000E+00
 0.98325  0.0000000E+00
 1.00625  0.0000000E+00
 1.02925  0.0000000E+00
 1.05225  0.0000000E+00
 1.07525  0.0000000E+00
 1.09825  0.0000000E+00
 1.12125  0.0000000E+00
 1.14425  0.0000000E+00
 1.16725  0.0000000E+00
 1.19025  0.0000000E+00
 1.21325  0.0000000E+00
 1.23625  0.0000000E+00
 1.25925  0.0000000E+00
 1.28225  0.0000000E+00
 1.30525  0.0000000E+00
 1.32825  0.0000000E+00
 1.35125  0.0000000E+00
 1.37425  0.0000000E+00
 1.39725  0.0000000E+00
 1.42025  0.0000000E+00
 1.44325  0.0000000E+00
 1.46625  0.0000000E+00
 1.48925  0.0000000E+00
 1.51225  0.0000000E+00
 1.53525  0.0000000E+00
 1.55825  0.0000000E+00
 1.58125  0.0000000E+00
 1.60425  0.0000000E+00
 1.62725  0.0000000E+00
 1.65025  0.0000000E+00
 1.67325  0.0000000E+00
 1.69625  0.0000000E+00
 1.71925  0.0000000E+00
 1.74225  0.0000000E+00
 1.76525  0.0000000E+00
 1.78825  0.0000000E+00
 1.81125  0.0000000E+00
 1.83425  0.0000000E+00
 1.85725  0.0000000E+00
 1.88025  0.0000000E+00
 1.90325  0.0000000E+00
 1.92625  0.0000000E+00
 1.94925  0.0000000E+00
 1.97225  0.0000000E+00
 1.99525  0.0000000E+00
 2.01825  0.0000000E+00
 2.04125  0.0000000E+00
 2.06425  0.0000000E+00
 2.08725  0.0000000E+00
 2.11025  0.0000000E+00
 2.13325  0.0000000E+00
 2.15625  0.0000000E+00
 2.17925  0.0000000E+00
 2.20225  0.0000000E+00
 2.22525  0.0000000E+00
 2.24825  0.0000000E+00
 2.27125  0.0000000E+00
 2.29425  0.0000000E+00
 2.31725  0.0000000E+00
 2.34025  0.0000000E+00
 2.36325  0.0000000E+00
 2.38625  0.0000000E+00
 2.40925  0.0000000E+00
 2.43225  0.0000000E+00
 2.45525  0.0000000E+00
 2.47825  0.0000000E+00
 2.50125  0.0000000E+00
 2.52425  0.0000000E+00
 2.54725  0.0000000E+00
 2.57025  0.0000000E+00
 2.59325  0.0000000E+00
 2.61625  0.0000000E+00
 2.63925  0.0000000E+00
 2.66225  0.0000000E+00
 2.68525  0.0000000E+00
 2.70825  0.0000000E+00
 2.73125  0.0000000E+00
 2.75425  0.0000000E+00
 2.77725  0.0000000E+00
 2.80025  0.0000000E+00
 2.82325  30.4589
 2.84625  33.555
 2.86925  35.1991
 2.89225  35.3968
 2.91525  35.0365
 2.93825  34.5847
 2.96125  34.8973
 2.98425  35.2437
 3.00725  34.9668
 3.03025  35.3688
 3.05325  35.3133
 3.07625  34.7124
 3.09925  34.0164
 3.12225  33.6897
 3.14525  33.8604
 3.16825  34.2236
 3.19125  34.062
 3.21425  34.1499
 3.23725  34.7136
 3.26025  34.7645
 3.28325  34.7899
 3.30625  35.1602
 3.32925  35.1474
 3.35225  34.7954
 3.37525  34.6199
 3.39825  34.3121
 3.42125  33.9522
 3.44425  33.8902
 3.46725  33.5369
 3.49025  33.4102
 3.51325  33.1834
 3.53625  33.3486
 3.55925  33.5264
 3.58225  33.2749
 3.60525  32.8301
 3.62825  33.091
 3.65125  33.383
 3.67425  33.1828
 3.69725  32.8015
 3.72025  32.6326
 3.74325  32.9282
 3.76625  32.9971
 3.78925  32.2804
 3.81225  32.0937
 3.83525  32.4143
 3.85825  32.7713
 3.88125  32.6113
 3.90425  32.1157
 3.92725  32.0613
 3.95025  32.1662
 3.97325  32.1635
 3.99625  31.8917
 4.01925  31.7966
 4.04225  31.5244
 4.06525  31.4461
 4.08825  31.76
 4.11125  32.1602
 4.13425  32.35
 4.15725  32.2725
 4.18025  31.8435
 4.20325  31.5883
 4.22625  31.8946
 4.24925  31.9445
 4.27225  31.6112
 4.29525  31.6136
 4.31825  31.7297
 4.34125  31.7969
 4.36425  31.9303
 4.38725  32.0546
 4.41025  32.0715
 4.43325  31.7853
 4.45625  31.8791
 4.47925  32.0517
 4.50225  32.3574
 4.52525  32.345
 4.54825  32.1391
 4.57125  32.091
 4.59425  32.1621
 4.61725  32.3025
 4.64025  32.249
 4.66325  32.3195
 4.68625  32.4121
 4.70925  32.7492
 4.73225  32.8715
 4.75525  32.4052
 4.77825  32.1264
 4.80125  32.1151
 4.82425  32.0761
 4.84725  31.9715
 4.87025  31.9636
 4.89325  32.0564
 4.91625  32.2633
 4.93925  32.4658
 4.96225  32.6171
 4.98525  32.7248
 5.00825  32.8902
 5.03125  32.9004
 5.05425  32.9916
 5.07725  32.871
 5.10025  33.2157
 5.12325  33.5035
 5.14625  33.5962
 5.16925  33.565
 5.19225  33.6553
 5.21525  33.7002
 5.23825  33.6418
 5.26125  33.462
 5.28425  33.4515
 5.30725  33.5089
 5.33025  33.7551
 5.35325  33.8436
 5.37625  33.866
 5.39925  34.087
 5.42225  34.0845
 5.44525  33.9238
 5.46825  33.6543
 5.49125  33.7041
 5.51425  34.1416
 5.53725  34.4167
 5.56025  34.5304
 5.58325  34.8123
 5.60625  35.1153
 5.62925  34.9704
 5.65225  35.0199
 5.67525  35.2275
 5.69825  35.4133
 5.72125  35.4468
 5.74425  35.5873
 5.76725  35.6499
 5.79025  35.6537
 5.81325  35.6693
 5.83625  35.8512
 5.85925  36.0885
 5.88225  36.9978
 5.90525  38.8378
 5.92825  41.3734
 5.95125  50.1277
 5.97425  59.7272
 5.99725  58.5291
 6.02025  49.0917
 6.04325  40.26
 6.06625  38.4166
 6.08925  37.3737
 6.11225  36.9333
 6.13525  36.521
 6.15825  36.3689
 6.18125  36.4326
 6.20425  36.4755
 6.22725  36.6904
 6.25025  36.9197
 6.27325  37.1001
 6.29625  37.2264
 6.31925  37.333
 6.34225  37.6695
 6.36525  37.9816
 6.38825  37.9413
 6.41125  37.8924
 6.43425  38.1146
 6.45725  38.3735
 6.48025  38.4232
 6.50325  38.6231
 6.52625  38.8117
 6.54925  38.9093
 6.57225  38.8788
 6.59525  38.8303
 6.61825  39.0444
 6.64125  39.334
 6.66425  39.7465
 6.68725  39.6817
 6.71025  39.5753
 6.73325  39.7255
 6.75625  39.9469
 6.77925  40.3409
 6.80225  40.632
 6.82525  40.9785
 6.84825  41.1535
 6.87125  41.1817
 6.89425  41.2238
 6.91725  41.4132
 6.94025  41.5234
 6.96325  41.5101
 6.98625  41.7083
 7.00925  41.8303
 7.03225  41.8383
 7.05525  41.9
 7.07825  42.0048
 7.10125  42.3195
 7.12425  42.6131
 7.14725  42.484
 7.17025  42.4118
 7.19325  42.5918
 7.21625  42.8039
 7.23925  42.8873
 7.26225  42.9985
 7.28525  42.8865
 7.30825  42.9426
 7.33125  43.1056
 7.35425  43.1852
 7.37725  43.1474
 7.40025  43.2983
 7.42325  43.6262
 7.44625  43.7581
 7.46925  43.7192
 7.49225  43.8507
 7.51525  43.679
 7.53825  43.7282
 7.56125  43.8338
 7.58425  43.7055
 7.60725  43.8581
 7.63025  43.8667
 7.65325  43.8282
 7.67625  43.7642
 7.69925  43.8204
 7.72225  43.8686
 7.74525  43.9261
 7.76825  43.9865
 7.79125  44.0871
 7.81425  44.0218
 7.83725  43.7908
 7.86025  43.6167
 7.88325  43.4803
 7.90625  43.5308
 7.92925  43.5455
 7.95225  43.313
 7.97525  43.0548
 7.99825  42.9
 8.02125  42.776
 8.04425  42.8033
 8.06725  42.6929
 8.09025  42.6265
 8.11325  42.3734
 8.13625  42.0492
 8.15925  41.903
 8.18225  41.6602
 8.20525  41.5717
 8.22825  41.3684
 8.25125  40.9711
 8.27425  40.6796
 8.29725  40.2715
 8.32025  40.0974
 8.34325  39.7979
 8.36625  39.4076
 8.38925  38.9852
 8.41225  38.694
 8.43525  38.4127
 8.45825  38.1844
 8.48125  37.9018
 8.50425  37.6443
 8.52725  37.3573
 8.55025  36.9602
 8.57325  36.608
 8.59625  36.1292
 8.61925  35.8063
 8.64225  35.5895
 8.66525  35.2589
 8.68825  35.0794
 8.71125  34.8885
 8.73425  34.4653
 8.75725  33.8822
 8.78025  33.5603
 8.80325  33.2687
 8.82625  33.0345
 8.84925  32.5992
 8.87225  32.3269
 8.89525  32.0544
 8.91825  31.7296
 8.94125  31.2963
 8.96425  31.0865
 8.98725  30.9203
 9.01025  30.4831
 9.03325  30.0752
 9.05625  29.8426
 9.07925  29.7461
 9.10225  29.4042
 9.12525  29.1544
 9.14825  28.8834
 9.17125  28.5835
 9.19425  28.2923
 9.21725  28.2059
 9.24025  28.2036
 9.26325  27.9768
 9.28625  27.6435
 9.30925  27.4665
 9.33225  27.3099
 9.35525  27.14
 9.37825  27.015
 9.40125  26.886
 9.42425  26.8096
 9.44725  26.7322
 9.47025  26.54
 9.49325  26.4446
 9.51625  26.3523
 9.53925  26.2356
 9.56225  26.0119
 9.58525  25.9853
 9.60825  26.019
 9.63125  25.7513
 9.65425  25.4254
 9.67725  25.1677
 9.70025  25.1199
 9.72325  25.2389
 9.74625  25.0677
 9.76925  24.8803
 9.79225  24.7662
 9.81525  24.7511
 9.83825  24.7234
 9.86125  24.5646
 9.88425  24.3705
 9.90725  24.2944
 9.93025  24.2966
 9.95325  24.1951
 9.97625  24.2087
 9.99925  24.103
 10.0222  23.9311
 10.0453  23.872
 10.0683  23.8814
 10.0913  23.9161
 10.1143  23.8755
 10.1373  23.7306
 10.1603  23.6901
 10.1832  23.6623
 10.2063  23.6713
 10.2293  23.6818
 10.2523  23.6097
 10.2752  23.6403
 10.2982  23.5761
 10.3213  23.334
 10.3443  23.2356
 10.3673  23.206
 10.3902  23.3086
 10.4133  23.4067
 10.4363  23.3211
 10.4593  23.2439
 10.4823  23.1251
 10.5053  23.0324
 10.5283  23.0761
 10.5512  23.0378
 10.5742  22.9939
 10.5973  22.9046
 10.6203  22.9092
 10.6433  22.8817
 10.6662  22.8471
 10.6893  22.8008
 10.7123  22.7821
 10.7353  22.7857
 10.7583  22.7425
 10.7813  22.6522
 10.8043  22.5313
 10.8272  22.5443
 10.8503  22.5571
 10.8733  22.6467
 10.8963  22.6149
 10.9192  22.6723
 10.9422  22.5605
 10.9653  22.4981
 10.9883  22.4285
 11.0113  22.3721
 11.0343  22.4728
 11.0573  22.4176
 11.0803  22.4195
 11.1033  22.4632
 11.1263  22.4949
 11.1493  22.4804
 11.1723  22.4782
 11.1953  22.3697
 11.2182  22.2571
 11.2413  22.1808
 11.2643  22.1384
 11.2873  22.1068
 11.3102  22.1801
 11.3333  22.3402
 11.3563  22.36
 11.3793  22.4382
 11.4023  22.5736
 11.4253  22.5817
 11.4483  22.6035
 11.4713  22.7676
 11.4942  22.8318
 11.5173  23.0903
 11.5403  24.2604
 11.5633  26.7548
 11.5862  28.4585
 11.6093  28.2942
 11.6323  25.9084
 11.6553  24.2014
 11.6783  23.086
 11.7013  22.5478
 11.7243  22.2814
 11.7473  22.3674
 11.7703  22.3848
 11.7933  22.3183
 11.8163  22.298
 11.8393  22.3041
 11.8622  22.2799
 11.8853  22.3391
 11.9083  22.4627
 11.9313  22.6617
 11.9543  22.7906
 11.9773  22.8091
 12.0003  22.772
 12.0233  22.7744
 12.0463  23.0057
 12.0693  23.6756
 12.0923  24.5151
 12.1153  24.671
 12.1382  24.0898
 12.1613  23.3215
 12.1843  22.834
 12.2073  22.5819
 12.2302  22.4317
 12.2533  22.3821
 12.2763  22.3673
 12.2993  22.3408
 12.3223  22.3258
 12.3453  22.3101
 12.3683  22.2665
 12.3913  22.2945
 12.4142  22.3442
 12.4373  22.3277
 12.4603  22.3073
 12.4833  22.4488
 12.5062  22.4304
 12.5292  22.4139
 12.5523  22.4703
 12.5753  22.6015
 12.5983  22.6802
 12.6212  22.7374
 12.6443  22.6441
 12.6673  22.5908
 12.6903  22.7641
 12.7133  22.8895
 12.7363  22.9222
 12.7593  22.9642
 12.7822  23.0342
 12.8052  23.0814
 12.8283  23.1508
 12.8513  23.1667
 12.8742  23.2662
 12.8972  23.322
 12.9203  23.5347
 12.9433  23.605
 12.9663  23.6828
 12.9893  23.7526
 13.0123  23.9398
 13.0353  24.0198
 13.0582  24.149
 13.0813  24.2838
 13.1043  24.6317
 13.1273  24.982
 13.1502  25.1322
 13.1732  25.2953
 13.1963  25.458
 13.2193  25.7766
 13.2423  26.1217
 13.2652  26.4003
 13.2883  26.6252
 13.3113  26.9199
 13.3343  27.211
 13.3573  27.4492
 13.3803  27.7116
 13.4033  27.9934
 13.4262  28.0979
 13.4492  28.2707
 13.4723  28.5602
 13.4953  28.8927
 13.5183  29.1143
 13.5412  29.266
 13.5643  29.2898
 13.5873  29.406
 13.6103  29.5348
 13.6333  29.5098
 13.6563  29.5106
 13.6793  29.5408
 13.7022  29.3699
 13.7253  29.2742
 13.7483  29.3704
 13.7713  29.3789
 13.7942  29.3712
 13.8172  29.4191
 13.8403  29.3547
 13.8633  29.7427
 13.8863  31.3744
 13.9093  34.4633
 13.9323  38.2806
 13.9553  40.5331
 13.9783  39.2632
 14.0013  35.0795
 14.0243  30.7857
 14.0473  28.5983
 14.0703  27.92
 14.0932  27.6016
 14.1163  27.5165
 14.1393  27.4328
 14.1623  27.1833
 14.1852  26.8677
 14.2083  26.6424
 14.2313  26.529
 14.2543  26.4034
 14.2773  26.2948
 14.3003  26.2316
 14.3233  26.2206
 14.3463  26.0326
 14.3692  25.8793
 14.3923  25.8034
 14.4153  25.7419
 14.4383  25.7084
 14.4612  25.635
 14.4843  25.6008
 14.5073  25.5882
 14.5303  25.4534
 14.5533  25.3895
 14.5763  25.3729
 14.5993  25.2874
 14.6223  25.2206
 14.6453  25.1459
 14.6683  25.0897
 14.6913  25.1136
 14.7143  25.1133
 14.7372  24.978
 14.7603  24.8648
 14.7833  24.7812
 14.8063  24.7842
 14.8293  24.8129
 14.8523  24.8203
 14.8753  24.7191
 14.8983  24.7363
 14.9213  24.7199
 14.9443  24.7207
 14.9673  24.7359
 14.9903  24.6684
 15.0132  24.6643
 15.0363  24.6644
 15.0593  24.6903
 15.0823  24.6396
 15.1052  24.5884
 15.1283  24.7016
 15.1513  25.2674
 15.1743  25.9646
 15.1973  26.3058
 15.2203  26.1378
 15.2433  25.4944
 15.2663  24.9285
 15.2892  24.6572
 15.3123  24.5737
 15.3353  24.3937
 15.3583  24.2781
 15.3812  24.2855
 15.4043  24.3473
 15.4273  24.3612
 15.4503  24.3261
 15.4733  24.2583
 15.4963  24.2819
 15.5193  24.2283
 15.5423  24.2773
 15.5653  24.3403
 15.5883  24.4095
 15.6113  24.3718
 15.6343  24.2635
 15.6572  24.3392
 15.6803  24.2911
 15.7033  24.3539
 15.7263  24.3544
 15.7492  24.2596
 15.7723  24.3317
 15.7953  24.4103
 15.8183  24.4688
 15.8413  24.4401
 15.8643  24.4238
 15.8873  24.4209
 15.9103  24.4371
 15.9332  24.4151
 15.9563  24.4017
 15.9793  24.4126
 16.0023  24.4737
 16.0253  24.4681
 16.0482  24.4997
 16.0713  24.5616
 16.0943  24.5662
 16.1172  24.6554
 16.1403  24.7153
 16.1633  24.7547
 16.1863  25.0308
 16.2093  25.7269
 16.2323  26.9129
 16.2553  27.7951
 16.2783  27.1835
 16.3012  25.7427
 16.3243  24.937
 16.3472  24.7143
 16.3703  24.5409
 16.3933  24.5042
 16.4163  24.5308
 16.4393  24.4899
 16.4623  24.413
 16.4853  24.4345
 16.5083  24.4883
 16.5312  24.4161
 16.5543  24.3441
 16.5773  24.304
 16.6002  24.3856
 16.6233  24.3682
 16.6463  24.2848
 16.6693  24.3678
 16.6923  24.3426
 16.7153  24.3664
 16.7383  24.3066
 16.7613  24.2835
 16.7843  24.2456
 16.8073  24.2499
 16.8303  24.313
 16.8533  24.2399
 16.8763  24.1967
 16.8992  24.1862
 16.9223  24.2094
 16.9453  24.2184
 16.9683  24.1905
 16.9913  24.1906
 17.0143  24.1668
 17.0373  24.1389
 17.0603  24.0393
 17.0832  24.0507
 17.1063  24.0852
 17.1293  24.1826
 17.1522  24.2529
 17.1753  24.1226
 17.1983  24.1236
 17.2213  24.1168
 17.2443  24.0808
 17.2673  24.0214
 17.2903  23.9876
 17.3133  23.9696
 17.3362  24.028
 17.3593  23.9955
 17.3823  23.984
 17.4053  23.932
 17.4283  23.8073
 17.4513  23.7827
 17.4743  23.8695
 17.4973  23.817
 17.5203  23.7286
 17.5433  23.7448
 17.5663  23.7365
 17.5893  23.7568
 17.6123  23.84
 17.6352  23.7667
 17.6583  23.6672
 17.6813  23.6286
 17.7042  23.6813
 17.7273  23.6567
 17.7503  23.513
 17.7733  23.6206
 17.7963  23.7581
 17.8193  23.6685
 17.8423  23.6265
 17.8653  23.6695
 17.8882  23.6416
 17.9113  23.4766
 17.9343  23.6575
 17.9573  23.7111
 17.9803  23.6959
 18.0033  23.849
 18.0263  23.9356
 18.0493  24.06
 18.0723  24.3534
 18.0953  24.6103
 18.1183  24.6148
 18.1413  24.3334
 18.1643  24.051
 18.1872  23.7753
 18.2103  23.6263
 18.2333  23.5389
 18.2563  23.5903
 18.2793  23.6064
 18.3023  23.5913
 18.3253  23.6337
 18.3483  23.6623
 18.3712  23.5305
 18.3943  23.4496
 18.4173  23.5245
 18.4402  23.5148
 18.4633  23.4522
 18.4863  23.3921
 18.5093  23.3461
 18.5323  23.3058
 18.5553  23.3486
 18.5783  23.4399
 18.6013  23.5224
 18.6242  23.4325
 18.6473  23.3451
 18.6703  23.2803
 18.6933  23.368
 18.7163  23.3944
 18.7392  23.3401
 18.7623  23.3474
 18.7853  23.3289
 18.8083  23.2927
 18.8313  23.3583
 18.8543  23.363
 18.8773  23.2634
 18.9003  23.2293
 18.9232  23.3507
 18.9463  23.4491
 18.9693  23.3048
 18.9922  23.2877
 19.0153  23.3282
 19.0383  23.4541
 19.0613  23.4781
 19.0843  23.5048
 19.1073  23.4215
 19.1303  23.4141
 19.1533  23.473
 19.1762  23.3611
 19.1993  23.4423
 19.2223  23.4779
 19.2453  23.4923
 19.2683  23.4928
 19.2913  23.5125
 19.3143  23.6112
 19.3373  23.5689
 19.3603  23.4615
 19.3833  23.4673
 19.4062  23.5509
 19.4293  23.584
 19.4523  23.6417
 19.4752  23.644
 19.4983  23.4873
 19.5213  23.5848
 19.5443  23.6743
 19.5673  23.7479
 19.5903  23.8914
 19.6133  23.9919
 19.6363  24.2777
 19.6593  24.9475
 19.6823  26.4522
 19.7053  28.2897
 19.7283  28.9426
 19.7513  28.0911
 19.7742  26.5766
 19.7973  25.8866
 19.8203  25.9532
 19.8433  28.518
 19.8663  32.4401
 19.8893  33.6622
 19.9123  30.3499
 19.9353  25.6313
 19.9582  24.2647
 19.9813  24.0506
 20.0043  23.914
 20.0272  23.8409
 20.0503  23.7785
 20.0733  23.72
 20.0963  23.7386
 20.1193  23.8125
 20.1423  23.7339
 20.1653  23.6953
 20.1883  23.6584
 20.2112  23.6953
 20.2343  23.6889
 20.2573  23.5906
 20.2803  23.494
 20.3033  23.5406
 20.3263  23.5937
 20.3493  23.6134
 20.3723  23.6111
 20.3953  23.565
 20.4183  23.5846
 20.4413  23.6016
 20.4643  23.6308
 20.4873  23.6251
 20.5102  23.5667
 20.5333  23.5323
 20.5563  23.6177
 20.5792  23.6358
 20.6023  23.7897
 20.6253  23.8296
 20.6483  23.8616
 20.6713  23.9763
 20.6943  24.3029
 20.7173  24.8369
 20.7403  25.7969
 20.7632  26.5821
 20.7863  26.4586
 20.8093  25.5133
 20.8323  24.6081
 20.8553  24.2857
 20.8783  24.0666
 20.9013  23.8605
 20.9243  23.7574
 20.9473  23.8413
 20.9703  23.7996
 20.9933  23.8131
 21.0163  23.8685
 21.0393  23.8484
 21.0622  23.7718
 21.0853  23.7793
 21.1083  23.8311
 21.1313  23.9362
 21.1543  23.7954
 21.1773  23.749
 21.2003  23.7724
 21.2233  23.8199
 21.2462  23.7728
 21.2693  23.7563
 21.2923  23.7562
 21.3152  23.8141
 21.3383  23.8292
 21.3613  23.8222
 21.3843  23.7489
 21.4073  23.848
 21.4303  23.8671
 21.4533  23.8205
 21.4763  23.8503
 21.4992  23.9472
 21.5223  23.8945
 21.5453  23.9224
 21.5683  23.8412
 21.5913  23.8574
 21.6142  24.0314
 21.6373  24.0898
 21.6603  24.0322
 21.6833  23.9892
 21.7063  23.9301
 21.7293  23.9658
 21.7523  23.921
 21.7753  23.9179
 21.7982  23.993
 21.8213  24.117
 21.8443  24.0938
 21.8672  24.0526
 21.8903  24.0361
 21.9133  24.0634
 21.9363  24.0857
 21.9593  24.0659
 21.9823  24.0624
 22.0053  24.008
 22.0283  24.1068
 22.0512  24.1324
 22.0743  24.1825
 22.0973  24.1805
 22.1203  24.2754
 22.1433  24.3177
 22.1663  24.2458
 22.1893  24.2562
 22.2123  24.2751
 22.2353  24.2845
 22.2583  24.2628
 22.2813  24.2383
 22.3043  24.3493
 22.3273  24.4562
 22.3502  24.4551
 22.3733  24.493
 22.3963  24.4389
 22.4193  24.3509
 22.4423  24.4708
 22.4653  24.5818
 22.4883  24.5783
 22.5113  24.6249
 22.5343  24.585
 22.5573  24.671
 22.5803  24.6611
 22.6033  24.6269
 22.6263  24.7658
 22.6493  24.764
 22.6723  24.8157
 22.6953  24.8895
 22.7183  24.9884
 22.7413  25.0141
 22.7643  25.0602
 22.7873  25.0851
 22.8103  25.1798
 22.8333  25.4741
 22.8563  25.7307
 22.8793  25.537
 22.9022  25.5378
 22.9253  25.6167
 22.9483  25.649
 22.9713  25.8275
 22.9943  26.0431