File: test-data-xrd/xrd-map-34-ID-E/Data_0106.chi
F:\20151113_APS_34IDE\\Brian\Particle1\OCV\Data_0106.tif
2-Theta Angle (Degrees)
Intensity
       2000
 0.01725  0.0000000E+00
 0.04025  0.0000000E+00
 0.06325  0.0000000E+00
 0.08625  0.0000000E+00
 0.10925  0.0000000E+00
 0.13225  0.0000000E+00
 0.15525  0.0000000E+00
 0.17825  0.0000000E+00
 0.20125  0.0000000E+00
 0.22425  0.0000000E+00
 0.24725  0.0000000E+00
 0.27025  0.0000000E+00
 0.29325  0.0000000E+00
 0.31625  0.0000000E+00
 0.33925  0.0000000E+00
 0.36225  0.0000000E+00
 0.38525  0.0000000E+00
 0.40825  0.0000000E+00
 0.43125  0.0000000E+00
 0.45425  0.0000000E+00
 0.47725  0.0000000E+00
 0.50025  0.0000000E+00
 0.52325  0.0000000E+00
 0.54625  0.0000000E+00
 0.56925  0.0000000E+00
 0.59225  0.0000000E+00
 0.61525  0.0000000E+00
 0.63825  0.0000000E+00
 0.66125  0.0000000E+00
 0.68425  0.0000000E+00
 0.70725  0.0000000E+00
 0.73025  0.0000000E+00
 0.75325  0.0000000E+00
 0.77625  0.0000000E+00
 0.79925  0.0000000E+00
 0.82225  0.0000000E+00
 0.84525  0.0000000E+00
 0.86825  0.0000000E+00
 0.89125  0.0000000E+00
 0.91425  0.0000000E+00
 0.93725  0.0000000E+00
 0.96025  0.0000000E+00
 0.98325  0.0000000E+00
 1.00625  0.0000000E+00
 1.02925  0.0000000E+00
 1.05225  0.0000000E+00
 1.07525  0.0000000E+00
 1.09825  0.0000000E+00
 1.12125  0.0000000E+00
 1.14425  0.0000000E+00
 1.16725  0.0000000E+00
 1.19025  0.0000000E+00
 1.21325  0.0000000E+00
 1.23625  0.0000000E+00
 1.25925  0.0000000E+00
 1.28225  0.0000000E+00
 1.30525  0.0000000E+00
 1.32825  0.0000000E+00
 1.35125  0.0000000E+00
 1.37425  0.0000000E+00
 1.39725  0.0000000E+00
 1.42025  0.0000000E+00
 1.44325  0.0000000E+00
 1.46625  0.0000000E+00
 1.48925  0.0000000E+00
 1.51225  0.0000000E+00
 1.53525  0.0000000E+00
 1.55825  0.0000000E+00
 1.58125  0.0000000E+00
 1.60425  0.0000000E+00
 1.62725  0.0000000E+00
 1.65025  0.0000000E+00
 1.67325  0.0000000E+00
 1.69625  0.0000000E+00
 1.71925  0.0000000E+00
 1.74225  0.0000000E+00
 1.76525  0.0000000E+00
 1.78825  0.0000000E+00
 1.81125  0.0000000E+00
 1.83425  0.0000000E+00
 1.85725  0.0000000E+00
 1.88025  0.0000000E+00
 1.90325  0.0000000E+00
 1.92625  0.0000000E+00
 1.94925  0.0000000E+00
 1.97225  0.0000000E+00
 1.99525  0.0000000E+00
 2.01825  0.0000000E+00
 2.04125  0.0000000E+00
 2.06425  0.0000000E+00
 2.08725  0.0000000E+00
 2.11025  0.0000000E+00
 2.13325  0.0000000E+00
 2.15625  0.0000000E+00
 2.17925  0.0000000E+00
 2.20225  0.0000000E+00
 2.22525  0.0000000E+00
 2.24825  0.0000000E+00
 2.27125  0.0000000E+00
 2.29425  0.0000000E+00
 2.31725  0.0000000E+00
 2.34025  0.0000000E+00
 2.36325  0.0000000E+00
 2.38625  0.0000000E+00
 2.40925  0.0000000E+00
 2.43225  0.0000000E+00
 2.45525  0.0000000E+00
 2.47825  0.0000000E+00
 2.50125  0.0000000E+00
 2.52425  0.0000000E+00
 2.54725  0.0000000E+00
 2.57025  0.0000000E+00
 2.59325  0.0000000E+00
 2.61625  0.0000000E+00
 2.63925  0.0000000E+00
 2.66225  0.0000000E+00
 2.68525  0.0000000E+00
 2.70825  0.0000000E+00
 2.73125  0.0000000E+00
 2.75425  0.0000000E+00
 2.77725  0.0000000E+00
 2.80025  0.0000000E+00
 2.82325  32.2333
 2.84625  34.4986
 2.86925  34.8857
 2.89225  34.84
 2.91525  34.3239
 2.93825  33.9155
 2.96125  33.9174
 2.98425  33.9675
 3.00725  34.686
 3.03025  35.1073
 3.05325  34.3248
 3.07625  33.9467
 3.09925  33.9703
 3.12225  33.8287
 3.14525  34.178
 3.16825  34.8976
 3.19125  34.96
 3.21425  35.0983
 3.23725  35.0424
 3.26025  34.7741
 3.28325  34.6844
 3.30625  34.4982
 3.32925  34.7874
 3.35225  34.7927
 3.37525  34.4601
 3.39825  33.9805
 3.42125  34.0346
 3.44425  34.217
 3.46725  34.1834
 3.49025  33.9651
 3.51325  33.5361
 3.53625  33.6592
 3.55925  33.572
 3.58225  33.5612
 3.60525  33.1248
 3.62825  32.8657
 3.65125  33.1405
 3.67425  33.2182
 3.69725  33.1181
 3.72025  32.8738
 3.74325  32.6966
 3.76625  32.4872
 3.78925  32.4958
 3.81225  32.4183
 3.83525  32.444
 3.85825  32.2815
 3.88125  32.1686
 3.90425  32.0842
 3.92725  32.0472
 3.95025  32.4712
 3.97325  32.6961
 3.99625  32.5584
 4.01925  32.4757
 4.04225  32.2534
 4.06525  32.1642
 4.08825  32.3523
 4.11125  32.5115
 4.13425  32.4622
 4.15725  32.3427
 4.18025  31.9862
 4.20325  31.89
 4.22625  31.9465
 4.24925  31.8379
 4.27225  31.7029
 4.29525  31.548
 4.31825  31.9962
 4.34125  32.1666
 4.36425  31.7006
 4.38725  31.439
 4.41025  31.892
 4.43325  32.1355
 4.45625  31.9357
 4.47925  32.0998
 4.50225  32.2397
 4.52525  32.307
 4.54825  32.2459
 4.57125  32.208
 4.59425  32.331
 4.61725  32.3369
 4.64025  32.3881
 4.66325  32.412
 4.68625  32.5312
 4.70925  32.4463
 4.73225  32.3025
 4.75525  32.3096
 4.77825  32.3397
 4.80125  32.4465
 4.82425  32.585
 4.84725  32.6364
 4.87025  32.6949
 4.89325  32.6948
 4.91625  32.7105
 4.93925  32.5668
 4.96225  32.5279
 4.98525  32.801
 5.00825  32.934
 5.03125  33.0481
 5.05425  32.9195
 5.07725  32.9217
 5.10025  33.1234
 5.12325  33.1223
 5.14625  33.3583
 5.16925  33.4834
 5.19225  33.5765
 5.21525  33.6034
 5.23825  33.6833
 5.26125  33.5854
 5.28425  33.5971
 5.30725  33.661
 5.33025  33.4778
 5.35325  33.4745
 5.37625  33.6236
 5.39925  34.0227
 5.42225  34.1349
 5.44525  34.097
 5.46825  34.1572
 5.49125  34.1562
 5.51425  34.3761
 5.53725  34.6638
 5.56025  34.8311
 5.58325  34.9016
 5.60625  34.987
 5.62925  34.8645
 5.65225  34.848
 5.67525  35.0055
 5.69825  35.1524
 5.72125  35.3783
 5.74425  35.5729
 5.76725  35.6343
 5.79025  35.6655
 5.81325  35.6321
 5.83625  35.7362
 5.85925  35.8396
 5.88225  36.2586
 5.90525  37.0272
 5.92825  38.7903
 5.95125  43.7607
 5.97425  50.7632
 5.99725  52.5785
 6.02025  46.9576
 6.04325  40.9988
 6.06625  38.1194
 6.08925  37.1537
 6.11225  36.705
 6.13525  36.6219
 6.15825  36.5895
 6.18125  36.8489
 6.20425  37.1413
 6.22725  37.1635
 6.25025  37.0804
 6.27325  37.1704
 6.29625  37.2915
 6.31925  37.2686
 6.34225  37.4462
 6.36525  37.5425
 6.38825  37.8018
 6.41125  38.183
 6.43425  38.3103
 6.45725  38.2394
 6.48025  38.3012
 6.50325  38.4943
 6.52625  38.8175
 6.54925  38.8862
 6.57225  38.8541
 6.59525  39.0308
 6.61825  39.1036
 6.64125  39.4092
 6.66425  39.8162
 6.68725  39.9778
 6.71025  40.0135
 6.73325  40.135
 6.75625  40.3646
 6.77925  40.6636
 6.80225  40.8141
 6.82525  40.9373
 6.84825  41.1256
 6.87125  41.2082
 6.89425  41.3689
 6.91725  41.5729
 6.94025  41.6312
 6.96325  41.7623
 6.98625  41.804
 7.00925  41.9326
 7.03225  42.2001
 7.05525  42.3582
 7.07825  42.4484
 7.10125  42.4732
 7.12425  42.5987
 7.14725  42.6416
 7.17025  42.8551
 7.19325  43.0148
 7.21625  42.9638
 7.23925  43.0918
 7.26225  43.3527
 7.28525  43.5323
 7.30825  43.4495
 7.33125  43.3691
 7.35425  43.4644
 7.37725  43.5695
 7.40025  43.7415
 7.42325  43.9885
 7.44625  43.9726
 7.46925  43.8236
 7.49225  43.6504
 7.51525  43.8232
 7.53825  43.9505
 7.56125  43.7847
 7.58425  43.7266
 7.60725  43.8182
 7.63025  43.776
 7.65325  43.8255
 7.67625  43.9704
 7.69925  44.05
 7.72225  43.9131
 7.74525  43.9218
 7.76825  43.8891
 7.79125  43.8128
 7.81425  43.8345
 7.83725  43.8389
 7.86025  43.8594
 7.88325  43.658
 7.90625  43.5372
 7.92925  43.4883
 7.95225  43.3167
 7.97525  43.1821
 7.99825  43.1286
 8.02125  43.059
 8.04425  42.8021
 8.06725  42.702
 8.09025  42.6026
 8.11325  42.4698
 8.13625  42.2311
 8.15925  41.9115
 8.18225  41.7454
 8.20525  41.4307
 8.22825  41.0988
 8.25125  40.9812
 8.27425  40.8528
 8.29725  40.6038
 8.32025  40.2329
 8.34325  39.8487
 8.36625  39.3646
 8.38925  39.0106
 8.41225  38.6522
 8.43525  38.3363
 8.45825  38.119
 8.48125  37.9309
 8.50425  37.6512
 8.52725  37.2732
 8.55025  36.9339
 8.57325  36.538
 8.59625  36.1742
 8.61925  35.7961
 8.64225  35.5295
 8.66525  35.3263
 8.68825  35.0002
 8.71125  34.698
 8.73425  34.1858
 8.75725  33.78
 8.78025  33.5791
 8.80325  33.2458
 8.82625  33.025
 8.84925  32.6974
 8.87225  32.4762
 8.89525  32.1211
 8.91825  31.5722
 8.94125  31.0428
 8.96425  30.7542
 8.98725  30.5012
 9.01025  30.1577
 9.03325  29.936
 9.05625  29.7565
 9.07925  29.5865
 9.10225  29.4544
 9.12525  29.1968
 9.14825  28.9748
 9.17125  28.7362
 9.19425  28.4974
 9.21725  28.1595
 9.24025  28.0323
 9.26325  27.8771
 9.28625  27.6492
 9.30925  27.495
 9.33225  27.3592
 9.35525  27.2675
 9.37825  27.0717
 9.40125  26.8168
 9.42425  26.6663
 9.44725  26.5281
 9.47025  26.5278
 9.49325  26.4123
 9.51625  26.2252
 9.53925  26.0023
 9.56225  25.9306
 9.58525  25.7725
 9.60825  25.6724
 9.63125  25.4372
 9.65425  25.3554
 9.67725  25.3042
 9.70025  25.2118
 9.72325  25.2184
 9.74625  25.133
 9.76925  25.1417
 9.79225  25.0189
 9.81525  24.935
 9.83825  24.7987
 9.86125  24.6675
 9.88425  24.5603
 9.90725  24.5014
 9.93025  24.4162
 9.95325  24.1947
 9.97625  24.1143
 9.99925  24.0778
 10.0222  24.0458
 10.0453  24.0287
 10.0683  23.9818
 10.0913  23.9374
 10.1143  23.933
 10.1373  23.8707
 10.1603  23.838
 10.1832  23.6634
 10.2063  23.5515
 10.2293  23.5434
 10.2523  23.5033
 10.2752  23.4211
 10.2982  23.4101
 10.3213  23.3939
 10.3443  23.3826
 10.3673  23.328
 10.3902  23.3326
 10.4133  23.3186
 10.4363  23.1137
 10.4593  22.9897
 10.4823  22.9927
 10.5053  22.9843
 10.5283  22.9247
 10.5512  22.889
 10.5742  22.9664
 10.5973  22.8869
 10.6203  22.8575
 10.6433  22.8981
 10.6662  22.8645
 10.6893  22.7972
 10.7123  22.8914
 10.7353  22.8438
 10.7583  22.7128
 10.7813  22.6872
 10.8043  22.5687
 10.8272  22.5158
 10.8503  22.5947
 10.8733  22.6432
 10.8963  22.5711
 10.9192  22.5261
 10.9422  22.4635
 10.9653  22.3868
 10.9883  22.3225
 11.0113  22.346
 11.0343  22.3746
 11.0573  22.3258
 11.0803  22.3277
 11.1033  22.3517
 11.1263  22.4036
 11.1493  22.4085
 11.1723  22.3738
 11.1953  22.3105
 11.2182  22.3107
 11.2413  22.2521
 11.2643  22.2672
 11.2873  22.2827
 11.3102  22.3204
 11.3333  22.3723
 11.3563  22.3432
 11.3793  22.3296
 11.4023  22.487
 11.4253  22.5027
 11.4483  22.4536
 11.4713  22.494
 11.4942  22.5987
 11.5173  22.7693
 11.5403  23.1712
 11.5633  24.0264
 11.5862  24.7754
 11.6093  24.6773
 11.6323  23.9777
 11.6553  23.2694
 11.6783  22.7498
 11.7013  22.4743
 11.7243  22.291
 11.7473  22.2168
 11.7703  22.1663
 11.7933  22.2147
 11.8163  22.3249
 11.8393  22.3761
 11.8622  22.2891
 11.8853  22.3244
 11.9083  22.3782
 11.9313  22.4624
 11.9543  22.5604
 11.9773  22.7805
 12.0003  22.8632
 12.0233  22.9388
 12.0463  23.0878
 12.0693  23.5458
 12.0923  24.1113
 12.1153  24.258
 12.1382  23.7839
 12.1613  23.114
 12.1843  22.7134
 12.2073  22.4908
 12.2302  22.4098
 12.2533  22.3936
 12.2763  22.3795
 12.2993  22.4686
 12.3223  22.4728
 12.3453  22.4584
 12.3683  22.5209
 12.3913  22.4873
 12.4142  22.4237
 12.4373  22.4879
 12.4603  22.6413
 12.4833  22.726
 12.5062  22.5148
 12.5292  22.3892
 12.5523  22.4447
 12.5753  22.4692
 12.5983  22.4956
 12.6212  22.6453
 12.6443  22.6371
 12.6673  22.6644
 12.6903  22.7175
 12.7133  22.8033
 12.7363  22.8352
 12.7593  22.7629
 12.7822  22.7759
 12.8052  22.8458
 12.8283  22.9964
 12.8513  23.0497
 12.8742  23.1637
 12.8972  23.3632
 12.9203  23.4283
 12.9433  23.5491
 12.9663  23.6307
 12.9893  23.6402
 13.0123  23.7855
 13.0353  23.9979
 13.0582  24.1746
 13.0813  24.2878
 13.1043  24.5881
 13.1273  24.948
 13.1502  25.0846
 13.1732  25.1407
 13.1963  25.4007
 13.2193  25.7589
 13.2423  26.074
 13.2652  26.3002
 13.2883  26.6754
 13.3113  26.9211
 13.3343  27.2366
 13.3573  27.5827
 13.3803  27.7846
 13.4033  28.0395
 13.4262  28.3313
 13.4492  28.5742
 13.4723  28.7329
 13.4953  28.9874
 13.5183  29.1881
 13.5412  29.3097
 13.5643  29.4208
 13.5873  29.5062
 13.6103  29.5206
 13.6333  29.5458
 13.6563  29.4884
 13.6793  29.466
 13.7022  29.4141
 13.7253  29.3838
 13.7483  29.3402
 13.7713  29.3034
 13.7942  29.3492
 13.8172  29.4328
 13.8403  29.6442
 13.8633  30.2541
 13.8863  31.9833
 13.9093  35.915
 13.9323  41.5344
 13.9553  45.9968
 13.9783  44.4654
 14.0013  38.1234
 14.0243  31.9599
 14.0473  29.1852
 14.0703  28.3719
 14.0932  28.0465
 14.1163  27.7267
 14.1393  27.3968
 14.1623  27.0836
 14.1852  26.8238
 14.2083  26.6773
 14.2313  26.5472
 14.2543  26.4096
 14.2773  26.268
 14.3003  26.1401
 14.3233  25.9662
 14.3463  25.8997
 14.3692  25.93
 14.3923  25.9987
 14.4153  25.9535
 14.4383  25.8028
 14.4612  25.6552
 14.4843  25.5531
 14.5073  25.4737
 14.5303  25.4549
 14.5533  25.5204
 14.5763  25.4346
 14.5993  25.3061
 14.6223  25.255
 14.6453  25.2935
 14.6683  25.0974
 14.6913  25.0999
 14.7143  25.1144
 14.7372  25.2656
 14.7603  25.1123
 14.7833  24.9676
 14.8063  24.9077
 14.8293  24.8287
 14.8523  24.7661
 14.8753  24.7946
 14.8983  24.8737
 14.9213  24.8029
 14.9443  24.6801
 14.9673  24.5878
 14.9903  24.5527
 15.0132  24.6097
 15.0363  24.6838
 15.0593  24.6762
 15.0823  24.6374
 15.1052  24.8076
 15.1283  25.0707
 15.1513  25.6438
 15.1743  26.7182
 15.1973  27.4711
 15.2203  27.1032
 15.2433  26.1072
 15.2663  25.269
 15.2892  24.8558
 15.3123  24.6822
 15.3353  24.5912
 15.3583  24.5001
 15.3812  24.4715
 15.4043  24.5288
 15.4273  24.4606
 15.4503  24.4163
 15.4733  24.3246
 15.4963  24.2667
 15.5193  24.1821
 15.5423  24.1811
 15.5653  24.1597
 15.5883  24.3348
 15.6113  24.3836
 15.6343  24.3678
 15.6572  24.3571
 15.6803  24.404
 15.7033  24.4212
 15.7263  24.455
 15.7492  24.4794
 15.7723  24.4555
 15.7953  24.4285
 15.8183  24.4105
 15.8413  24.3539
 15.8643  24.4024
 15.8873  24.4206
 15.9103  24.3905
 15.9332  24.3725
 15.9563  24.2925
 15.9793  24.3441
 16.0023  24.3246
 16.0253  24.4506
 16.0482  24.5243
 16.0713  24.5542
 16.0943  24.5923
 16.1172  24.6881
 16.1403  24.736
 16.1633  24.7631
 16.1863  24.8044
 16.2093  25.042
 16.2323  25.3456
 16.2553  25.6188
 16.2783  25.6438
 16.3012  25.1751
 16.3243  24.7743
 16.3472  24.6606
 16.3703  24.5527
 16.3933  24.4999
 16.4163  24.4372
 16.4393  24.4964
 16.4623  24.5705
 16.4853  24.5971
 16.5083  24.531
 16.5312  24.374
 16.5543  24.324
 16.5773  24.3162
 16.6002  24.3404
 16.6233  24.4231
 16.6463  24.7105
 16.6693  24.7071
 16.6923  24.5096
 16.7153  24.3897
 16.7383  24.39
 16.7613  24.4029
 16.7843  24.375
 16.8073  24.4119
 16.8303  24.266
 16.8533  24.1736
 16.8763  24.1859
 16.8992  24.229
 16.9223  24.1818
 16.9453  24.1374
 16.9683  24.1393
 16.9913  24.1401
 17.0143  24.0956
 17.0373  23.9878
 17.0603  23.9445
 17.0832  24.0394
 17.1063  24.1161
 17.1293  24.1352
 17.1522  24.1776
 17.1753  24.0925
 17.1983  23.9983
 17.2213  23.9445
 17.2443  23.9617
 17.2673  23.9649
 17.2903  23.9195
 17.3133  23.9138
 17.3362  23.8783
 17.3593  23.8419
 17.3823  23.7949
 17.4053  23.716
 17.4283  23.6849
 17.4513  23.732
 17.4743  23.7864
 17.4973  23.7646
 17.5203  23.7016
 17.5433  23.7186
 17.5663  23.633
 17.5893  23.6757
 17.6123  23.6678
 17.6352  23.7329
 17.6583  23.6939
 17.6813  23.736
 17.7042  23.7234
 17.7273  23.6665
 17.7503  23.62
 17.7733  23.5845
 17.7963  23.6565
 17.8193  23.6213
 17.8423  23.606
 17.8653  23.6501
 17.8882  23.6297
 17.9113  23.6861
 17.9343  23.6628
 17.9573  23.6331
 17.9803  23.6913
 18.0033  23.9039
 18.0263  23.9866
 18.0493  24.05
 18.0723  24.0892
 18.0953  24.3742
 18.1183  24.4035
 18.1413  24.1783
 18.1643  23.9154
 18.1872  23.7236
 18.2103  23.5905
 18.2333  23.4689
 18.2563  23.3929
 18.2793  23.3532
 18.3023  23.3886
 18.3253  23.386
 18.3483  23.3948
 18.3712  23.4188
 18.3943  23.4719
 18.4173  23.436
 18.4402  23.3741
 18.4633  23.3323
 18.4863  23.3395
 18.5093  23.2939
 18.5323  23.342
 18.5553  23.3336
 18.5783  23.3368
 18.6013  23.3796
 18.6242  23.3745
 18.6473  23.4031
 18.6703  23.3699
 18.6933  23.3315
 18.7163  23.3185
 18.7392  23.3492
 18.7623  23.315
 18.7853  23.246
 18.8083  23.2358
 18.8313  23.2864
 18.8543  23.2753
 18.8773  23.2071
 18.9003  23.225
 18.9232  23.3368
 18.9463  23.4578
 18.9693  23.3925
 18.9922  23.3839
 19.0153  23.4031
 19.0383  23.4338
 19.0613  23.4284
 19.0843  23.4147
 19.1073  23.3834
 19.1303  23.3551
 19.1533  23.374
 19.1762  23.2676
 19.1993  23.24
 19.2223  23.3333
 19.2453  23.3597
 19.2683  23.3791
 19.2913  23.3385
 19.3143  23.4288
 19.3373  23.4631
 19.3603  23.3117
 19.3833  23.34
 19.4062  23.4109
 19.4293  23.4726
 19.4523  23.4925
 19.4752  23.5763
 19.4983  23.5963
 19.5213  23.5817
 19.5443  23.6383
 19.5673  23.7027
 19.5903  23.7311
 19.6133  23.8946
 19.6363  24.1727
 19.6593  24.8377
 19.6823  26.3772
 19.7053  27.7765
 19.7283  27.4182
 19.7513  26.1235
 19.7742  25.3555
 19.7973  25.5552
 19.8203  26.4115
 19.8433  27.2064
 19.8663  27.1218
 19.8893  26.1656
 19.9123  25.069
 19.9353  24.2539
 19.9582  23.886
 19.9813  23.7552
 20.0043  23.679
 20.0272  23.5938
 20.0503  23.6044
 20.0733  23.5814
 20.0963  23.6609
 20.1193  23.6869
 20.1423  23.6087
 20.1653  23.6306
 20.1883  23.5666
 20.2112  23.5339
 20.2343  23.536
 20.2573  23.4584
 20.2803  23.4991
 20.3033  23.5264
 20.3263  23.4636
 20.3493  23.5189
 20.3723  23.4781
 20.3953  23.4822
 20.4183  23.626
 20.4413  23.6056
 20.4643  23.5754
 20.4873  23.5692
 20.5102  23.6178
 20.5333  23.5333
 20.5563  23.5701
 20.5792  23.5823
 20.6023  23.7011
 20.6253  23.8368
 20.6483  23.9926
 20.6713  24.2073
 20.6943  24.7706
 20.7173  25.9553
 20.7403  27.0126
 20.7632  27.5019
 20.7863  26.8531
 20.8093  25.6187
 20.8323  24.5906
 20.8553  24.1701
 20.8783  23.9418
 20.9013  23.9676
 20.9243  23.9425
 20.9473  23.8749
 20.9703  23.8085
 20.9933  23.8512
 21.0163  23.8256
 21.0393  23.8525
 21.0622  23.7854
 21.0853  23.7395
 21.1083  23.6644
 21.1313  23.6376
 21.1543  23.6355
 21.1773  23.684
 21.2003  23.76
 21.2233  23.7554
 21.2462  23.6597
 21.2693  23.5877
 21.2923  23.6366
 21.3152  23.7028
 21.3383  23.6955
 21.3613  23.7694
 21.3843  23.8028
 21.4073  23.7384
 21.4303  23.7494
 21.4533  23.6925
 21.4763  23.7498
 21.4992  23.7768
 21.5223  23.7612
 21.5453  23.7929
 21.5683  23.789
 21.5913  23.848
 21.6142  23.9658
 21.6373  23.947
 21.6603  23.9171
 21.6833  23.852
 21.7063  23.8704
 21.7293  23.8385
 21.7523  23.8892
 21.7753  23.9614
 21.7982  24.0303
 21.8213  24.1471
 21.8443  23.9547
 21.8672  24.0256
 21.8903  23.9629
 21.9133  23.9906
 21.9363  24.0395
 21.9593  24.0802
 21.9823  24.1364
 22.0053  24.2057
 22.0283  24.1631
 22.0512  24.0802
 22.0743  24.0454
 22.0973  24.0548
 22.1203  24.1381
 22.1433  24.187
 22.1663  24.1673
 22.1893  24.1034
 22.2123  24.1455
 22.2353  24.2966
 22.2583  24.317
 22.2813  24.271
 22.3043  24.2775
 22.3273  24.2673
 22.3502  24.2627
 22.3733  24.3324
 22.3963  24.371
 22.4193  24.2863
 22.4423  24.3315
 22.4653  24.4859
 22.4883  24.5618
 22.5113  24.5897
 22.5343  24.5878
 22.5573  24.6572
 22.5803  24.6502
 22.6033  24.705
 22.6263  24.7661
 22.6493  24.8153
 22.6723  24.8589
 22.6953  25.0155
 22.7183  25.0311
 22.7413  25.0862
 22.7643  25.1339
 22.7873  25.143
 22.8103  25.216
 22.8333  25.2425
 22.8563  25.2979
 22.8793  25.458
 22.9022  25.6573
 22.9253  25.842
 22.9483  25.8409
 22.9713  26.0251
 22.9943  26.2999