File: test-data-xrd/xrd-map-34-ID-E/Data_0132.chi
F:\20151113_APS_34IDE\\Brian\Particle1\OCV\Data_0132.tif
2-Theta Angle (Degrees)
Intensity
       2000
 0.01725  0.0000000E+00
 0.04025  0.0000000E+00
 0.06325  0.0000000E+00
 0.08625  0.0000000E+00
 0.10925  0.0000000E+00
 0.13225  0.0000000E+00
 0.15525  0.0000000E+00
 0.17825  0.0000000E+00
 0.20125  0.0000000E+00
 0.22425  0.0000000E+00
 0.24725  0.0000000E+00
 0.27025  0.0000000E+00
 0.29325  0.0000000E+00
 0.31625  0.0000000E+00
 0.33925  0.0000000E+00
 0.36225  0.0000000E+00
 0.38525  0.0000000E+00
 0.40825  0.0000000E+00
 0.43125  0.0000000E+00
 0.45425  0.0000000E+00
 0.47725  0.0000000E+00
 0.50025  0.0000000E+00
 0.52325  0.0000000E+00
 0.54625  0.0000000E+00
 0.56925  0.0000000E+00
 0.59225  0.0000000E+00
 0.61525  0.0000000E+00
 0.63825  0.0000000E+00
 0.66125  0.0000000E+00
 0.68425  0.0000000E+00
 0.70725  0.0000000E+00
 0.73025  0.0000000E+00
 0.75325  0.0000000E+00
 0.77625  0.0000000E+00
 0.79925  0.0000000E+00
 0.82225  0.0000000E+00
 0.84525  0.0000000E+00
 0.86825  0.0000000E+00
 0.89125  0.0000000E+00
 0.91425  0.0000000E+00
 0.93725  0.0000000E+00
 0.96025  0.0000000E+00
 0.98325  0.0000000E+00
 1.00625  0.0000000E+00
 1.02925  0.0000000E+00
 1.05225  0.0000000E+00
 1.07525  0.0000000E+00
 1.09825  0.0000000E+00
 1.12125  0.0000000E+00
 1.14425  0.0000000E+00
 1.16725  0.0000000E+00
 1.19025  0.0000000E+00
 1.21325  0.0000000E+00
 1.23625  0.0000000E+00
 1.25925  0.0000000E+00
 1.28225  0.0000000E+00
 1.30525  0.0000000E+00
 1.32825  0.0000000E+00
 1.35125  0.0000000E+00
 1.37425  0.0000000E+00
 1.39725  0.0000000E+00
 1.42025  0.0000000E+00
 1.44325  0.0000000E+00
 1.46625  0.0000000E+00
 1.48925  0.0000000E+00
 1.51225  0.0000000E+00
 1.53525  0.0000000E+00
 1.55825  0.0000000E+00
 1.58125  0.0000000E+00
 1.60425  0.0000000E+00
 1.62725  0.0000000E+00
 1.65025  0.0000000E+00
 1.67325  0.0000000E+00
 1.69625  0.0000000E+00
 1.71925  0.0000000E+00
 1.74225  0.0000000E+00
 1.76525  0.0000000E+00
 1.78825  0.0000000E+00
 1.81125  0.0000000E+00
 1.83425  0.0000000E+00
 1.85725  0.0000000E+00
 1.88025  0.0000000E+00
 1.90325  0.0000000E+00
 1.92625  0.0000000E+00
 1.94925  0.0000000E+00
 1.97225  0.0000000E+00
 1.99525  0.0000000E+00
 2.01825  0.0000000E+00
 2.04125  0.0000000E+00
 2.06425  0.0000000E+00
 2.08725  0.0000000E+00
 2.11025  0.0000000E+00
 2.13325  0.0000000E+00
 2.15625  0.0000000E+00
 2.17925  0.0000000E+00
 2.20225  0.0000000E+00
 2.22525  0.0000000E+00
 2.24825  0.0000000E+00
 2.27125  0.0000000E+00
 2.29425  0.0000000E+00
 2.31725  0.0000000E+00
 2.34025  0.0000000E+00
 2.36325  0.0000000E+00
 2.38625  0.0000000E+00
 2.40925  0.0000000E+00
 2.43225  0.0000000E+00
 2.45525  0.0000000E+00
 2.47825  0.0000000E+00
 2.50125  0.0000000E+00
 2.52425  0.0000000E+00
 2.54725  0.0000000E+00
 2.57025  0.0000000E+00
 2.59325  0.0000000E+00
 2.61625  0.0000000E+00
 2.63925  0.0000000E+00
 2.66225  0.0000000E+00
 2.68525  0.0000000E+00
 2.70825  0.0000000E+00
 2.73125  0.0000000E+00
 2.75425  0.0000000E+00
 2.77725  0.0000000E+00
 2.80025  0.0000000E+00
 2.82325  33.2084
 2.84625  34.8448
 2.86925  34.8486
 2.89225  33.8495
 2.91525  33.4816
 2.93825  34.0728
 2.96125  35.3415
 2.98425  36.0557
 3.00725  36.5898
 3.03025  37.1769
 3.05325  36.7224
 3.07625  36.1838
 3.09925  35.837
 3.12225  35.6042
 3.14525  35.6734
 3.16825  35.669
 3.19125  35.3862
 3.21425  35.133
 3.23725  34.8105
 3.26025  35.0729
 3.28325  35.0551
 3.30625  34.8649
 3.32925  34.2555
 3.35225  34.0282
 3.37525  33.721
 3.39825  33.8825
 3.42125  33.7438
 3.44425  33.6998
 3.46725  34.0058
 3.49025  34.1533
 3.51325  33.7927
 3.53625  33.9486
 3.55925  33.951
 3.58225  33.5855
 3.60525  33.5708
 3.62825  33.5316
 3.65125  33.4414
 3.67425  33.3372
 3.69725  33.6433
 3.72025  33.6616
 3.74325  33.1437
 3.76625  32.9319
 3.78925  32.7563
 3.81225  32.5121
 3.83525  32.7645
 3.85825  32.8397
 3.88125  33.0378
 3.90425  33.1275
 3.92725  33.0034
 3.95025  32.8358
 3.97325  32.8965
 3.99625  32.8337
 4.01925  32.8305
 4.04225  32.7035
 4.06525  32.7315
 4.08825  32.8931
 4.11125  32.8426
 4.13425  32.6575
 4.15725  32.5129
 4.18025  32.3609
 4.20325  32.5316
 4.22625  32.836
 4.24925  32.6551
 4.27225  32.1077
 4.29525  32.2371
 4.31825  32.5195
 4.34125  32.6393
 4.36425  32.6257
 4.38725  32.8079
 4.41025  32.7227
 4.43325  32.611
 4.45625  32.5754
 4.47925  32.5896
 4.50225  32.8439
 4.52525  32.8285
 4.54825  32.5909
 4.57125  32.4451
 4.59425  32.6389
 4.61725  32.6713
 4.64025  32.5407
 4.66325  32.5903
 4.68625  32.853
 4.70925  33.0049
 4.73225  33.0059
 4.75525  32.6821
 4.77825  32.4453
 4.80125  32.3198
 4.82425  32.2476
 4.84725  32.4687
 4.87025  32.8289
 4.89325  33.0946
 4.91625  33.0482
 4.93925  33.0151
 4.96225  32.8771
 4.98525  32.8556
 5.00825  33.1116
 5.03125  33.2463
 5.05425  33.3683
 5.07725  33.4068
 5.10025  33.5032
 5.12325  33.5318
 5.14625  33.6519
 5.16925  33.9994
 5.19225  34.1946
 5.21525  34.0384
 5.23825  33.9955
 5.26125  34.0396
 5.28425  34.1367
 5.30725  34.2983
 5.33025  34.4315
 5.35325  34.5694
 5.37625  34.6409
 5.39925  34.4905
 5.42225  34.4318
 5.44525  34.5565
 5.46825  34.4896
 5.49125  34.4495
 5.51425  34.4275
 5.53725  34.6533
 5.56025  34.4605
 5.58325  34.5362
 5.60625  34.7001
 5.62925  34.8028
 5.65225  34.8591
 5.67525  35.1063
 5.69825  35.2075
 5.72125  35.2751
 5.74425  35.3219
 5.76725  35.2743
 5.79025  35.2716
 5.81325  35.2994
 5.83625  35.4007
 5.85925  35.442
 5.88225  35.7033
 5.90525  35.9979
 5.92825  36.0317
 5.95125  36.4712
 5.97425  37.0179
 5.99725  36.8549
 6.02025  36.5563
 6.04325  36.4944
 6.06625  36.3163
 6.08925  36.4488
 6.11225  36.5563
 6.13525  36.4937
 6.15825  36.3538
 6.18125  36.4922
 6.20425  36.5825
 6.22725  36.9247
 6.25025  37.2535
 6.27325  37.6433
 6.29625  37.9352
 6.31925  37.9825
 6.34225  38.1062
 6.36525  38.2628
 6.38825  38.4692
 6.41125  38.6425
 6.43425  38.7305
 6.45725  38.7509
 6.48025  38.8125
 6.50325  39.1097
 6.52625  39.2361
 6.54925  39.3841
 6.57225  39.6063
 6.59525  39.7119
 6.61825  39.7813
 6.64125  40.1011
 6.66425  40.3908
 6.68725  40.3065
 6.71025  40.2164
 6.73325  40.3961
 6.75625  40.853
 6.77925  41.1991
 6.80225  41.2955
 6.82525  41.4236
 6.84825  41.6872
 6.87125  41.8983
 6.89425  41.978
 6.91725  42.1791
 6.94025  42.2491
 6.96325  42.2828
 6.98625  42.2719
 7.00925  42.4584
 7.03225  42.7672
 7.05525  43.1213
 7.07825  43.1808
 7.10125  43.3009
 7.12425  43.0531
 7.14725  43.3115
 7.17025  43.5623
 7.19325  43.6981
 7.21625  43.866
 7.23925  43.8782
 7.26225  43.8159
 7.28525  43.6783
 7.30825  43.5683
 7.33125  43.6377
 7.35425  43.8979
 7.37725  43.9964
 7.40025  44.1068
 7.42325  44.0959
 7.44625  44.1654
 7.46925  44.2848
 7.49225  44.3615
 7.51525  44.3724
 7.53825  44.3621
 7.56125  44.323
 7.58425  44.408
 7.60725  44.5379
 7.63025  44.5596
 7.65325  44.5638
 7.67625  44.4245
 7.69925  44.2594
 7.72225  44.0469
 7.74525  44.1051
 7.76825  44.1904
 7.79125  44.2486
 7.81425  44.4428
 7.83725  44.5311
 7.86025  44.3211
 7.88325  44.204
 7.90625  44.4047
 7.92925  44.6707
 7.95225  44.5455
 7.97525  44.204
 7.99825  44.0278
 8.02125  43.5109
 8.04425  43.5029
 8.06725  43.3328
 8.09025  43.2152
 8.11325  43.2046
 8.13625  42.8765
 8.15925  42.5856
 8.18225  42.3239
 8.20525  42.0499
 8.22825  41.7407
 8.25125  41.5113
 8.27425  41.2266
 8.29725  40.7977
 8.32025  40.4657
 8.34325  40.1013
 8.36625  39.9935
 8.38925  39.7076
 8.41225  39.4724
 8.43525  39.1985
 8.45825  38.8965
 8.48125  38.495
 8.50425  38.2239
 8.52725  37.8768
 8.55025  37.4045
 8.57325  36.9806
 8.59625  36.6057
 8.61925  36.2367
 8.64225  35.817
 8.66525  35.4145
 8.68825  35.2266
 8.71125  35.0369
 8.73425  34.7296
 8.75725  34.3429
 8.78025  33.9278
 8.80325  33.5319
 8.82625  33.1352
 8.84925  32.9704
 8.87225  32.6833
 8.89525  32.128
 8.91825  31.8531
 8.94125  31.6969
 8.96425  31.5142
 8.98725  31.1189
 9.01025  30.7875
 9.03325  30.4998
 9.05625  30.1418
 9.07925  29.7809
 9.10225  29.494
 9.12525  29.404
 9.14825  29.3132
 9.17125  29.115
 9.19425  28.8547
 9.21725  28.5757
 9.24025  28.1844
 9.26325  27.9742
 9.28625  27.8172
 9.30925  27.5891
 9.33225  27.4094
 9.35525  27.3567
 9.37825  27.2905
 9.40125  27.2419
 9.42425  27.1384
 9.44725  26.9559
 9.47025  26.776
 9.49325  26.6634
 9.51625  26.469
 9.53925  26.146
 9.56225  25.9479
 9.58525  25.891
 9.60825  25.8308
 9.63125  25.6291
 9.65425  25.5595
 9.67725  25.554
 9.70025  25.4108
 9.72325  25.3207
 9.74625  25.1332
 9.76925  25.0979
 9.79225  25.0709
 9.81525  24.9335
 9.83825  24.8143
 9.86125  24.725
 9.88425  24.5552
 9.90725  24.5153
 9.93025  24.3884
 9.95325  24.3193
 9.97625  24.2736
 9.99925  24.2339
 10.0222  24.231
 10.0453  24.1925
 10.0683  24.0883
 10.0913  24.0122
 10.1143  23.8992
 10.1373  23.8669
 10.1603  23.9143
 10.1832  23.8836
 10.2063  23.7506
 10.2293  23.7253
 10.2523  23.6419
 10.2752  23.525
 10.2982  23.6237
 10.3213  23.5506
 10.3443  23.4776
 10.3673  23.454
 10.3902  23.4883
 10.4133  23.5107
 10.4363  23.4844
 10.4593  23.4278
 10.4823  23.2557
 10.5053  23.1911
 10.5283  23.1055
 10.5512  23.0128
 10.5742  22.895
 10.5973  22.8565
 10.6203  22.8252
 10.6433  22.9501
 10.6662  22.9532
 10.6893  22.9738
 10.7123  22.9978
 10.7353  22.9077
 10.7583  22.8105
 10.7813  22.6978
 10.8043  22.5326
 10.8272  22.539
 10.8503  22.5507
 10.8733  22.5245
 10.8963  22.5121
 10.9192  22.5725
 10.9422  22.549
 10.9653  22.4818
 10.9883  22.4229
 11.0113  22.4293
 11.0343  22.4257
 11.0573  22.3674
 11.0803  22.4388
 11.1033  22.5366
 11.1263  22.5409
 11.1493  22.4836
 11.1723  22.4029
 11.1953  22.2335
 11.2182  22.251
 11.2413  22.2271
 11.2643  22.1786
 11.2873  22.189
 11.3102  22.3114
 11.3333  22.4121
 11.3563  22.4525
 11.3793  22.5337
 11.4023  22.6034
 11.4253  22.5015
 11.4483  22.3971
 11.4713  22.3089
 11.4942  22.3286
 11.5173  22.338
 11.5403  22.5122
 11.5633  22.778
 11.5862  22.9754
 11.6093  22.8238
 11.6323  22.6112
 11.6553  22.3998
 11.6783  22.4035
 11.7013  22.3588
 11.7243  22.3195
 11.7473  22.2858
 11.7703  22.168
 11.7933  22.1811
 11.8163  22.22
 11.8393  22.1546
 11.8622  22.0416
 11.8853  22.0334
 11.9083  22.0243
 11.9313  22.0884
 11.9543  22.1892
 11.9773  22.2272
 12.0003  22.247
 12.0233  22.2744
 12.0463  22.3578
 12.0693  22.4803
 12.0923  22.5415
 12.1153  22.4489
 12.1382  22.4065
 12.1613  22.3268
 12.1843  22.1837
 12.2073  22.235
 12.2302  22.2515
 12.2533  22.2342
 12.2763  22.1359
 12.2993  22.1838
 12.3223  22.2225
 12.3453  22.2981
 12.3683  22.3252
 12.3913  22.362
 12.4142  22.4121
 12.4373  22.4033
 12.4603  22.4398
 12.4833  22.4498
 12.5062  22.3732
 12.5292  22.3067
 12.5523  22.4814
 12.5753  22.5263
 12.5983  22.5514
 12.6212  22.6229
 12.6443  22.6473
 12.6673  22.7172
 12.6903  22.9691
 12.7133  22.9799
 12.7363  22.8839
 12.7593  22.9163
 12.7822  22.9593
 12.8052  23.078
 12.8283  23.2172
 12.8513  23.2312
 12.8742  23.2632
 12.8972  23.3142
 12.9203  23.4067
 12.9433  23.5671
 12.9663  23.7051
 12.9893  23.9149
 13.0123  24.0016
 13.0353  24.0744
 13.0582  24.1999
 13.0813  24.3052
 13.1043  24.5633
 13.1273  24.7533
 13.1502  24.9718
 13.1732  25.1971
 13.1963  25.4654
 13.2193  25.7572
 13.2423  26.2011
 13.2652  26.3865
 13.2883  26.6453
 13.3113  26.9766
 13.3343  27.1339
 13.3573  27.4451
 13.3803  27.7755
 13.4033  28.0713
 13.4262  28.2595
 13.4492  28.478
 13.4723  28.7858
 13.4953  29.0683
 13.5183  29.2245
 13.5412  29.2858
 13.5643  29.315
 13.5873  29.3592
 13.6103  29.3644
 13.6333  29.4204
 13.6563  29.3909
 13.6793  29.3826
 13.7022  29.2962
 13.7253  29.1553
 13.7483  29.1431
 13.7713  29.1549
 13.7942  28.9999
 13.8172  28.7016
 13.8403  28.5287
 13.8633  28.4233
 13.8863  28.3378
 13.9093  28.46
 13.9323  28.6803
 13.9553  28.7406
 13.9783  28.3654
 14.0013  27.7868
 14.0243  27.3169
 14.0473  27.1476
 14.0703  27.3272
 14.0932  27.3131
 14.1163  27.1032
 14.1393  26.8731
 14.1623  26.6747
 14.1852  26.6041
 14.2083  26.4681
 14.2313  26.3122
 14.2543  26.2257
 14.2773  26.0968
 14.3003  25.9708
 14.3233  25.9068
 14.3463  25.9605
 14.3692  25.9791
 14.3923  25.878
 14.4153  25.8831
 14.4383  25.8352
 14.4612  25.6572
 14.4843  25.5253
 14.5073  25.4605
 14.5303  25.3672
 14.5533  25.3431
 14.5763  25.2822
 14.5993  25.1678
 14.6223  25.169
 14.6453  25.1453
 14.6683  25.0885
 14.6913  25.1064
 14.7143  25.0788
 14.7372  25.0422
 14.7603  25.0116
 14.7833  24.9375
 14.8063  24.7951
 14.8293  24.6656
 14.8523  24.7497
 14.8753  24.7182
 14.8983  24.7023
 14.9213  24.8668
 14.9443  24.8886
 14.9673  24.8083
 14.9903  24.8131
 15.0132  24.8389
 15.0363  24.7212
 15.0593  24.5913
 15.0823  24.6265
 15.1052  24.6206
 15.1283  24.602
 15.1513  24.6072
 15.1743  24.7057
 15.1973  24.7067
 15.2203  24.7163
 15.2433  24.6332
 15.2663  24.4959
 15.2892  24.41
 15.3123  24.3816
 15.3353  24.2902
 15.3583  24.3067
 15.3812  24.3403
 15.4043  24.3595
 15.4273  24.4017
 15.4503  24.3802
 15.4733  24.3653
 15.4963  24.4092
 15.5193  24.3944
 15.5423  24.2453
 15.5653  24.3051
 15.5883  24.397
 15.6113  24.441
 15.6343  24.3905
 15.6572  24.4114
 15.6803  24.4721
 15.7033  24.5679
 15.7263  24.5822
 15.7492  24.4991
 15.7723  24.4646
 15.7953  24.4475
 15.8183  24.4717
 15.8413  24.4661
 15.8643  24.4765
 15.8873  24.4742
 15.9103  24.4841
 15.9332  24.5366
 15.9563  24.518
 15.9793  24.5896
 16.0023  24.5641
 16.0253  24.5337
 16.0482  24.5917
 16.0713  24.5838
 16.0943  24.5061
 16.1172  24.6531
 16.1403  24.6791
 16.1633  24.7039
 16.1863  24.7292
 16.2093  24.7713
 16.2323  24.8495
 16.2553  24.9361
 16.2783  25.0265
 16.3012  24.8726
 16.3243  24.7033
 16.3472  24.5339
 16.3703  24.4999
 16.3933  24.5406
 16.4163  24.4748
 16.4393  24.4831
 16.4623  24.4707
 16.4853  24.4159
 16.5083  24.5223
 16.5312  24.4799
 16.5543  24.4798
 16.5773  24.3666
 16.6002  24.3301
 16.6233  24.2989
 16.6463  24.2444
 16.6693  24.2629
 16.6923  24.3257
 16.7153  24.3699
 16.7383  24.364
 16.7613  24.2707
 16.7843  24.273
 16.8073  24.2698
 16.8303  24.221
 16.8533  24.2329
 16.8763  24.1976
 16.8992  24.1855
 16.9223  24.2661
 16.9453  24.2697
 16.9683  24.1789
 16.9913  24.107
 17.0143  24.0525
 17.0373  24.0698
 17.0603  23.9949
 17.0832  24.1035
 17.1063  24.1775
 17.1293  24.1196
 17.1522  24.0643
 17.1753  24.0482
 17.1983  23.9962
 17.2213  23.9881
 17.2443  23.9997
 17.2673  23.9274
 17.2903  23.8937
 17.3133  23.9277
 17.3362  23.8696
 17.3593  23.7987
 17.3823  23.7597
 17.4053  23.7365
 17.4283  23.7044
 17.4513  23.6734
 17.4743  23.7576
 17.4973  23.7593
 17.5203  23.68
 17.5433  23.6837
 17.5663  23.6471
 17.5893  23.6678
 17.6123  23.7177
 17.6352  23.67
 17.6583  23.6407
 17.6813  23.6825
 17.7042  23.6276
 17.7273  23.5639
 17.7503  23.5892
 17.7733  23.6856
 17.7963  23.7264
 17.8193  23.594
 17.8423  23.5193
 17.8653  23.5359
 17.8882  23.5451
 17.9113  23.5673
 17.9343  23.4861
 17.9573  23.3556
 17.9803  23.3213
 18.0033  23.3887
 18.0263  23.4682
 18.0493  23.5073
 18.0723  23.5805
 18.0953  23.7234
 18.1183  23.6894
 18.1413  23.5634
 18.1643  23.7822
 18.1872  24.2246
 18.2103  23.9356
 18.2333  23.8733
 18.2563  23.8156
 18.2793  23.5313
 18.3023  23.4211
 18.3253  23.321
 18.3483  23.3386
 18.3712  23.3539
 18.3943  23.3599
 18.4173  23.3641
 18.4402  23.3673
 18.4633  23.3998
 18.4863  23.4528
 18.5093  23.3713
 18.5323  23.2637
 18.5553  23.2812
 18.5783  23.6168
 18.6013  23.8256
 18.6242  23.7398
 18.6473  23.686
 18.6703  23.6585
 18.6933  23.7853
 18.7163  23.5583
 18.7392  23.3726
 18.7623  23.3658
 18.7853  23.3214
 18.8083  23.2738
 18.8313  23.2885
 18.8543  23.3
 18.8773  23.2602
 18.9003  23.2531
 18.9232  23.3395
 18.9463  23.4224
 18.9693  23.3248
 18.9922  23.242
 19.0153  23.2472
 19.0383  23.2568
 19.0613  23.2406
 19.0843  23.2254
 19.1073  23.2103
 19.1303  23.2093
 19.1533  23.2032
 19.1762  23.2351
 19.1993  23.2669
 19.2223  23.2878
 19.2453  23.3226
 19.2683  23.3793
 19.2913  23.3197
 19.3143  23.3822
 19.3373  23.3838
 19.3603  23.3426
 19.3833  23.256
 19.4062  23.3197
 19.4293  23.3114
 19.4523  23.3209
 19.4752  23.2401
 19.4983  23.2205
 19.5213  23.2493
 19.5443  23.3335
 19.5673  23.309
 19.5903  23.2616
 19.6133  23.2095
 19.6363  23.2882
 19.6593  23.3482
 19.6823  23.4762
 19.7053  23.6146
 19.7283  23.6614
 19.7513  23.5941
 19.7742  23.4555
 19.7973  23.4746
 19.8203  23.5688
 19.8433  23.5674
 19.8663  23.5785
 19.8893  23.651
 19.9123  23.6443
 19.9353  23.4718
 19.9582  23.4533
 19.9813  23.475
 20.0043  23.5239
 20.0272  23.5034
 20.0503  23.5357
 20.0733  23.4806
 20.0963  23.4252
 20.1193  23.4885
 20.1423  23.4192
 20.1653  23.4131
 20.1883  23.4137
 20.2112  23.3991
 20.2343  23.4312
 20.2573  23.3735
 20.2803  23.2993
 20.3033  23.2965
 20.3263  23.3497
 20.3493  23.5138
 20.3723  23.766
 20.3953  23.6974
 20.4183  23.517
 20.4413  23.4623
 20.4643  23.3895
 20.4873  23.3713
 20.5102  23.3307
 20.5333  23.3352
 20.5563  23.4597
 20.5792  23.5577
 20.6023  23.6556
 20.6253  23.6262
 20.6483  23.6003
 20.6713  23.5073
 20.6943  23.4945
 20.7173  23.5886
 20.7403  23.7917
 20.7632  23.8981
 20.7863  23.8221
 20.8093  23.7412
 20.8323  23.7895
 20.8553  23.8693
 20.8783  23.767
 20.9013  23.6571
 20.9243  23.5991
 20.9473  23.536
 20.9703  23.4456
 20.9933  23.527
 21.0163  23.5766
 21.0393  23.6686
 21.0622  23.6405
 21.0853  23.6067
 21.1083  23.5829
 21.1313  23.6267
 21.1543  23.5135
 21.1773  23.5915
 21.2003  23.6601
 21.2233  23.703
 21.2462  23.7233
 21.2693  23.701
 21.2923  23.6839
 21.3152  23.6288
 21.3383  23.635
 21.3613  23.8203
 21.3843  23.9886
 21.4073  23.8592
 21.4303  23.6763
 21.4533  23.6313
 21.4763  23.6553
 21.4992  23.7492
 21.5223  23.834
 21.5453  23.9535
 21.5683  23.9217
 21.5913  23.8917
 21.6142  23.889
 21.6373  23.9108
 21.6603  23.921
 21.6833  23.919
 21.7063  23.8571
 21.7293  23.9146
 21.7523  23.9514
 21.7753  23.9288
 21.7982  23.9531
 21.8213  23.9181
 21.8443  23.8286
 21.8672  23.8625
 21.8903  23.8385
 21.9133  23.9218
 21.9363  23.8693
 21.9593  23.9443
 21.9823  23.9828
 22.0053  24.0219
 22.0283  24.1067
 22.0512  24.1235
 22.0743  24.2455
 22.0973  24.4855
 22.1203  24.203
 22.1433  24.0747
 22.1663  24.107
 22.1893  24.1307
 22.2123  24.1229
 22.2353  24.1656
 22.2583  24.2839
 22.2813  24.221
 22.3043  24.3063
 22.3273  24.3417
 22.3502  24.3348
 22.3733  24.2913
 22.3963  24.2858
 22.4193  24.2536
 22.4423  24.3104
 22.4653  24.3605
 22.4883  24.3715
 22.5113  24.3942
 22.5343  24.5138
 22.5573  24.5497
 22.5803  24.6157
 22.6033  24.6622
 22.6263  24.6545
 22.6493  24.6905
 22.6723  24.7892
 22.6953  24.8924
 22.7183  24.891
 22.7413  24.9918
 22.7643  25.0368
 22.7873  24.9275
 22.8103  25.1081
 22.8333  25.1603
 22.8563  25.1791
 22.8793  25.2471
 22.9022  25.3642
 22.9253  25.5769
 22.9483  25.6857
 22.9713  25.8445
 22.9943  26.0164