File: test-data-xrd/xrd-map-34-ID-E/Data_0056.chi
F:\20151113_APS_34IDE\\Brian\Particle1\OCV\Data_0056.tif
2-Theta Angle (Degrees)
Intensity
       2000
 0.01725  0.0000000E+00
 0.04025  0.0000000E+00
 0.06325  0.0000000E+00
 0.08625  0.0000000E+00
 0.10925  0.0000000E+00
 0.13225  0.0000000E+00
 0.15525  0.0000000E+00
 0.17825  0.0000000E+00
 0.20125  0.0000000E+00
 0.22425  0.0000000E+00
 0.24725  0.0000000E+00
 0.27025  0.0000000E+00
 0.29325  0.0000000E+00
 0.31625  0.0000000E+00
 0.33925  0.0000000E+00
 0.36225  0.0000000E+00
 0.38525  0.0000000E+00
 0.40825  0.0000000E+00
 0.43125  0.0000000E+00
 0.45425  0.0000000E+00
 0.47725  0.0000000E+00
 0.50025  0.0000000E+00
 0.52325  0.0000000E+00
 0.54625  0.0000000E+00
 0.56925  0.0000000E+00
 0.59225  0.0000000E+00
 0.61525  0.0000000E+00
 0.63825  0.0000000E+00
 0.66125  0.0000000E+00
 0.68425  0.0000000E+00
 0.70725  0.0000000E+00
 0.73025  0.0000000E+00
 0.75325  0.0000000E+00
 0.77625  0.0000000E+00
 0.79925  0.0000000E+00
 0.82225  0.0000000E+00
 0.84525  0.0000000E+00
 0.86825  0.0000000E+00
 0.89125  0.0000000E+00
 0.91425  0.0000000E+00
 0.93725  0.0000000E+00
 0.96025  0.0000000E+00
 0.98325  0.0000000E+00
 1.00625  0.0000000E+00
 1.02925  0.0000000E+00
 1.05225  0.0000000E+00
 1.07525  0.0000000E+00
 1.09825  0.0000000E+00
 1.12125  0.0000000E+00
 1.14425  0.0000000E+00
 1.16725  0.0000000E+00
 1.19025  0.0000000E+00
 1.21325  0.0000000E+00
 1.23625  0.0000000E+00
 1.25925  0.0000000E+00
 1.28225  0.0000000E+00
 1.30525  0.0000000E+00
 1.32825  0.0000000E+00
 1.35125  0.0000000E+00
 1.37425  0.0000000E+00
 1.39725  0.0000000E+00
 1.42025  0.0000000E+00
 1.44325  0.0000000E+00
 1.46625  0.0000000E+00
 1.48925  0.0000000E+00
 1.51225  0.0000000E+00
 1.53525  0.0000000E+00
 1.55825  0.0000000E+00
 1.58125  0.0000000E+00
 1.60425  0.0000000E+00
 1.62725  0.0000000E+00
 1.65025  0.0000000E+00
 1.67325  0.0000000E+00
 1.69625  0.0000000E+00
 1.71925  0.0000000E+00
 1.74225  0.0000000E+00
 1.76525  0.0000000E+00
 1.78825  0.0000000E+00
 1.81125  0.0000000E+00
 1.83425  0.0000000E+00
 1.85725  0.0000000E+00
 1.88025  0.0000000E+00
 1.90325  0.0000000E+00
 1.92625  0.0000000E+00
 1.94925  0.0000000E+00
 1.97225  0.0000000E+00
 1.99525  0.0000000E+00
 2.01825  0.0000000E+00
 2.04125  0.0000000E+00
 2.06425  0.0000000E+00
 2.08725  0.0000000E+00
 2.11025  0.0000000E+00
 2.13325  0.0000000E+00
 2.15625  0.0000000E+00
 2.17925  0.0000000E+00
 2.20225  0.0000000E+00
 2.22525  0.0000000E+00
 2.24825  0.0000000E+00
 2.27125  0.0000000E+00
 2.29425  0.0000000E+00
 2.31725  0.0000000E+00
 2.34025  0.0000000E+00
 2.36325  0.0000000E+00
 2.38625  0.0000000E+00
 2.40925  0.0000000E+00
 2.43225  0.0000000E+00
 2.45525  0.0000000E+00
 2.47825  0.0000000E+00
 2.50125  0.0000000E+00
 2.52425  0.0000000E+00
 2.54725  0.0000000E+00
 2.57025  0.0000000E+00
 2.59325  0.0000000E+00
 2.61625  0.0000000E+00
 2.63925  0.0000000E+00
 2.66225  0.0000000E+00
 2.68525  0.0000000E+00
 2.70825  0.0000000E+00
 2.73125  0.0000000E+00
 2.75425  0.0000000E+00
 2.77725  0.0000000E+00
 2.80025  0.0000000E+00
 2.82325  39.298
 2.84625  35.0228
 2.86925  34.9233
 2.89225  35.5105
 2.91525  35.4808
 2.93825  35.5431
 2.96125  35.045
 2.98425  35.139
 3.00725  35.7577
 3.03025  36.0349
 3.05325  35.5408
 3.07625  35.8367
 3.09925  35.9504
 3.12225  36.0483
 3.14525  36.1006
 3.16825  36.0182
 3.19125  36.2058
 3.21425  36.3129
 3.23725  36.1527
 3.26025  35.8271
 3.28325  35.6629
 3.30625  35.0316
 3.32925  35.0411
 3.35225  35.1363
 3.37525  35.167
 3.39825  35.3795
 3.42125  34.9854
 3.44425  34.5754
 3.46725  34.4542
 3.49025  34.4523
 3.51325  33.8156
 3.53625  33.7104
 3.55925  33.9768
 3.58225  33.8726
 3.60525  33.8773
 3.62825  33.4796
 3.65125  33.3145
 3.67425  33.7492
 3.69725  33.637
 3.72025  33.5952
 3.74325  33.4045
 3.76625  33.2635
 3.78925  33.0689
 3.81225  32.9372
 3.83525  33.0009
 3.85825  32.8592
 3.88125  32.7123
 3.90425  32.4435
 3.92725  32.4134
 3.95025  32.4416
 3.97325  32.5931
 3.99625  32.8345
 4.01925  32.7115
 4.04225  32.7036
 4.06525  32.6805
 4.08825  32.223
 4.11125  32.071
 4.13425  32.0204
 4.15725  32.2336
 4.18025  32.0321
 4.20325  32.1509
 4.22625  32.6203
 4.24925  32.5782
 4.27225  32.4405
 4.29525  32.2603
 4.31825  32.271
 4.34125  32.2617
 4.36425  32.5092
 4.38725  32.5914
 4.41025  32.6333
 4.43325  32.5415
 4.45625  32.6263
 4.47925  32.9146
 4.50225  33.0451
 4.52525  33.1128
 4.54825  32.9982
 4.57125  32.6238
 4.59425  32.5613
 4.61725  32.7438
 4.64025  32.6477
 4.66325  32.6448
 4.68625  32.5302
 4.70925  32.7415
 4.73225  32.7751
 4.75525  32.4398
 4.77825  32.2804
 4.80125  32.581
 4.82425  32.7837
 4.84725  32.7712
 4.87025  32.5224
 4.89325  32.4552
 4.91625  32.8367
 4.93925  33.1084
 4.96225  33.1462
 4.98525  33.2535
 5.00825  33.2104
 5.03125  33.1784
 5.05425  33.1651
 5.07725  33.2893
 5.10025  33.4786
 5.12325  33.5229
 5.14625  33.7033
 5.16925  33.9661
 5.19225  33.9886
 5.21525  34.0998
 5.23825  34.3006
 5.26125  34.3416
 5.28425  34.2914
 5.30725  34.2982
 5.33025  34.2615
 5.35325  34.4276
 5.37625  34.58
 5.39925  34.7413
 5.42225  34.8724
 5.44525  34.8618
 5.46825  35.2206
 5.49125  35.3795
 5.51425  35.438
 5.53725  35.361
 5.56025  35.3325
 5.58325  35.5009
 5.60625  35.6192
 5.62925  35.6947
 5.65225  36.096
 5.67525  36.3641
 5.69825  36.3424
 5.72125  36.515
 5.74425  36.923
 5.76725  37.539
 5.79025  38.2093
 5.81325  38.8034
 5.83625  39.5047
 5.85925  40.4987
 5.88225  42.3015
 5.90525  47.4009
 5.92825  58.387
 5.95125  110.376
 5.97425  190.262
 5.99725  222.112
 6.02025  149.098
 6.04325  80.2066
 6.06625  55.8013
 6.08925  43.8
 6.11225  41.2128
 6.13525  39.9644
 6.15825  39.2982
 6.18125  38.944
 6.20425  38.4971
 6.22725  38.4972
 6.25025  38.4812
 6.27325  38.4199
 6.29625  38.4081
 6.31925  38.3161
 6.34225  38.3583
 6.36525  38.4073
 6.38825  38.4517
 6.41125  38.6774
 6.43425  38.8407
 6.45725  39.1081
 6.48025  39.2004
 6.50325  39.437
 6.52625  39.5291
 6.54925  39.5821
 6.57225  39.756
 6.59525  39.8318
 6.61825  39.9574
 6.64125  40.3206
 6.66425  40.6045
 6.68725  40.6111
 6.71025  40.5731
 6.73325  40.49
 6.75625  40.7291
 6.77925  41.1608
 6.80225  41.5355
 6.82525  41.7718
 6.84825  41.9614
 6.87125  42.0136
 6.89425  42.0779
 6.91725  42.0067
 6.94025  42.0504
 6.96325  42.1898
 6.98625  42.3382
 7.00925  42.443
 7.03225  42.5791
 7.05525  42.605
 7.07825  42.7131
 7.10125  42.9492
 7.12425  43.2354
 7.14725  43.3491
 7.17025  43.3961
 7.19325  43.3709
 7.21625  43.4235
 7.23925  43.3707
 7.26225  43.3907
 7.28525  43.5144
 7.30825  43.7713
 7.33125  43.9901
 7.35425  44.0765
 7.37725  44.0787
 7.40025  44.1421
 7.42325  44.2373
 7.44625  44.2147
 7.46925  44.2026
 7.49225  44.2437
 7.51525  44.2824
 7.53825  44.263
 7.56125  44.3082
 7.58425  44.339
 7.60725  44.4696
 7.63025  44.541
 7.65325  44.436
 7.67625  44.2056
 7.69925  44.1562
 7.72225  44.3336
 7.74525  44.468
 7.76825  44.2031
 7.79125  44.0036
 7.81425  43.9727
 7.83725  44.1755
 7.86025  44.197
 7.88325  44.1446
 7.90625  43.9754
 7.92925  43.9421
 7.95225  43.8216
 7.97525  43.53
 7.99825  43.4621
 8.02125  43.3393
 8.04425  43.217
 8.06725  43.1008
 8.09025  42.9108
 8.11325  42.769
 8.13625  42.4576
 8.15925  42.2677
 8.18225  42.2597
 8.20525  42.0986
 8.22825  41.7653
 8.25125  41.5705
 8.27425  41.3545
 8.29725  40.8606
 8.32025  40.5238
 8.34325  40.3152
 8.36625  39.9519
 8.38925  39.6756
 8.41225  39.3587
 8.43525  39.2119
 8.45825  39.0069
 8.48125  38.4952
 8.50425  38.0002
 8.52725  37.7641
 8.55025  37.3836
 8.57325  37.0327
 8.59625  36.7593
 8.61925  36.2417
 8.64225  35.6956
 8.66525  35.0967
 8.68825  34.8157
 8.71125  34.66
 8.73425  34.432
 8.75725  33.9926
 8.78025  33.5385
 8.80325  33.1429
 8.82625  32.918
 8.84925  32.6499
 8.87225  32.4521
 8.89525  32.1541
 8.91825  31.8247
 8.94125  31.4055
 8.96425  31.029
 8.98725  30.6379
 9.01025  30.3197
 9.03325  30.0666
 9.05625  30.0163
 9.07925  29.9121
 9.10225  29.7142
 9.12525  29.4088
 9.14825  29.2296
 9.17125  28.9584
 9.19425  28.6071
 9.21725  28.4103
 9.24025  28.2213
 9.26325  28.0688
 9.28625  27.7662
 9.30925  27.4964
 9.33225  27.191
 9.35525  27.0202
 9.37825  27.07
 9.40125  27.0094
 9.42425  26.9502
 9.44725  26.7668
 9.47025  26.6032
 9.49325  26.5507
 9.51625  26.3515
 9.53925  26.074
 9.56225  25.9609
 9.58525  25.9375
 9.60825  25.8274
 9.63125  25.7782
 9.65425  25.5763
 9.67725  25.3322
 9.70025  25.2339
 9.72325  25.1998
 9.74625  25.0692
 9.76925  25.0745
 9.79225  25.0693
 9.81525  24.9291
 9.83825  24.7175
 9.86125  24.5611
 9.88425  24.474
 9.90725  24.5081
 9.93025  24.3517
 9.95325  24.2225
 9.97625  24.2725
 9.99925  24.2874
 10.0222  24.2012
 10.0453  24.1994
 10.0683  24.0492
 10.0913  23.898
 10.1143  23.8683
 10.1373  23.8484
 10.1603  23.7995
 10.1832  23.763
 10.2063  23.6705
 10.2293  23.5785
 10.2523  23.5252
 10.2752  23.5341
 10.2982  23.5742
 10.3213  23.5193
 10.3443  23.3866
 10.3673  23.2892
 10.3902  23.2944
 10.4133  23.2994
 10.4363  23.3071
 10.4593  23.3405
 10.4823  23.3054
 10.5053  23.2209
 10.5283  23.1626
 10.5512  23.0974
 10.5742  23.1013
 10.5973  23.028
 10.6203  22.9992
 10.6433  22.9972
 10.6662  23.0847
 10.6893  23.0551
 10.7123  23.0421
 10.7353  22.9991
 10.7583  22.868
 10.7813  22.7603
 10.8043  22.7024
 10.8272  22.6475
 10.8503  22.5998
 10.8733  22.5597
 10.8963  22.4549
 10.9192  22.5829
 10.9422  22.5589
 10.9653  22.5592
 10.9883  22.4791
 11.0113  22.5349
 11.0343  22.5777
 11.0573  22.4585
 11.0803  22.4189
 11.1033  22.435
 11.1263  22.5357
 11.1493  22.5603
 11.1723  22.5125
 11.1953  22.4525
 11.2182  22.3514
 11.2413  22.3382
 11.2643  22.4547
 11.2873  22.5144
 11.3102  22.5193
 11.3333  22.5308
 11.3563  22.5227
 11.3793  22.6342
 11.4023  22.6794
 11.4253  22.6821
 11.4483  22.7632
 11.4713  22.7945
 11.4942  22.7738
 11.5173  22.973
 11.5403  23.6962
 11.5633  25.2456
 11.5862  26.5864
 11.6093  26.6188
 11.6323  24.9933
 11.6553  23.4609
 11.6783  22.8321
 11.7013  22.5482
 11.7243  22.5108
 11.7473  22.5295
 11.7703  22.477
 11.7933  22.4387
 11.8163  22.4023
 11.8393  22.396
 11.8622  22.428
 11.8853  22.4769
 11.9083  22.5223
 11.9313  22.6793
 11.9543  23.0258
 11.9773  23.5576
 12.0003  23.8787
 12.0233  23.6821
 12.0463  23.4696
 12.0693  23.9123
 12.0923  25.1546
 12.1153  26.4622
 12.1382  27.0807
 12.1613  24.9294
 12.1843  23.2822
 12.2073  22.8079
 12.2302  22.6293
 12.2533  22.5979
 12.2763  22.6053
 12.2993  22.6891
 12.3223  22.7099
 12.3453  22.6079
 12.3683  22.5021
 12.3913  22.5637
 12.4142  22.6199
 12.4373  22.61
 12.4603  22.586
 12.4833  22.6194
 12.5062  22.6553
 12.5292  22.6662
 12.5523  22.7214
 12.5753  22.7068
 12.5983  22.7208
 12.6212  22.8116
 12.6443  22.8486
 12.6673  22.7199
 12.6903  22.7754
 12.7133  22.8722
 12.7363  22.8437
 12.7593  22.9385
 12.7822  22.9592
 12.8052  23.0744
 12.8283  23.2255
 12.8513  23.3269
 12.8742  23.4889
 12.8972  23.5251
 12.9203  23.5812
 12.9433  23.7031
 12.9663  23.755
 12.9893  23.8679
 13.0123  23.9585
 13.0353  24.1189
 13.0582  24.2419
 13.0813  24.3314
 13.1043  24.6598
 13.1273  25.0095
 13.1502  25.2717
 13.1732  25.5307
 13.1963  25.7939
 13.2193  26.0726
 13.2423  26.4827
 13.2652  26.638
 13.2883  26.7982
 13.3113  27.1248
 13.3343  27.4454
 13.3573  27.7002
 13.3803  27.9874
 13.4033  28.2764
 13.4262  28.3919
 13.4492  28.5969
 13.4723  28.7587
 13.4953  29.0562
 13.5183  29.2867
 13.5412  29.4359
 13.5643  29.5788
 13.5873  29.7076
 13.6103  29.7587
 13.6333  29.7327
 13.6563  29.7022
 13.6793  29.7249
 13.7022  29.6246
 13.7253  29.5396
 13.7483  29.4916
 13.7713  29.4434
 13.7942  29.3482
 13.8172  29.2742
 13.8403  29.1868
 13.8633  29.3317
 13.8863  29.857
 13.9093  31.5996
 13.9323  33.9724
 13.9553  34.9615
 13.9783  33.3315
 14.0013  30.6605
 14.0243  28.9956
 14.0473  28.1071
 14.0703  27.8128
 14.0932  27.5861
 14.1163  27.3508
 14.1393  27.2045
 14.1623  27.0476
 14.1852  26.922
 14.2083  26.7184
 14.2313  26.6267
 14.2543  26.5176
 14.2773  26.4816
 14.3003  26.3892
 14.3233  26.2024
 14.3463  26.0891
 14.3692  26.1052
 14.3923  26.0518
 14.4153  25.9342
 14.4383  25.9099
 14.4612  25.8437
 14.4843  25.7588
 14.5073  25.7406
 14.5303  25.7206
 14.5533  25.6747
 14.5763  25.6138
 14.5993  25.4491
 14.6223  25.4249
 14.6453  25.3875
 14.6683  25.3524
 14.6913  25.3662
 14.7143  25.3273
 14.7372  25.2913
 14.7603  25.1937
 14.7833  25.1198
 14.8063  25.0423
 14.8293  24.8886
 14.8523  24.8757
 14.8753  24.93
 14.8983  24.9331
 14.9213  24.9862
 14.9443  24.9563
 14.9673  24.8916
 14.9903  24.9121
 15.0132  24.9405
 15.0363  25.0312
 15.0593  25.0217
 15.0823  24.9199
 15.1052  25.0096
 15.1283  25.498
 15.1513  26.3765
 15.1743  27.272
 15.1973  27.359
 15.2203  26.3967
 15.2433  25.4003
 15.2663  24.9306
 15.2892  24.8304
 15.3123  24.8199
 15.3353  24.7552
 15.3583  24.6991
 15.3812  24.5652
 15.4043  24.5434
 15.4273  24.5348
 15.4503  24.449
 15.4733  24.4149
 15.4963  24.5516
 15.5193  24.6186
 15.5423  24.5058
 15.5653  24.424
 15.5883  24.5623
 15.6113  24.6291
 15.6343  24.5249
 15.6572  24.5149
 15.6803  24.5813
 15.7033  24.6918
 15.7263  24.6168
 15.7492  24.5952
 15.7723  24.6346
 15.7953  24.6419
 15.8183  24.6816
 15.8413  24.6343
 15.8643  24.5631
 15.8873  24.5547
 15.9103  24.5323
 15.9332  24.5889
 15.9563  24.5745
 15.9793  24.6027
 16.0023  24.656
 16.0253  24.75
 16.0482  24.7669
 16.0713  24.7744
 16.0943  24.8169
 16.1172  24.8831
 16.1403  24.9568
 16.1633  25.2029
 16.1863  25.6158
 16.2093  26.6477
 16.2323  27.938
 16.2553  28.5629
 16.2783  27.5598
 16.3012  25.9232
 16.3243  25.0675
 16.3472  24.8261
 16.3703  24.7707
 16.3933  24.7668
 16.4163  24.6921
 16.4393  24.7469
 16.4623  24.7408
 16.4853  24.7302
 16.5083  24.7143
 16.5312  24.6271
 16.5543  24.6164
 16.5773  24.6105
 16.6002  24.6021
 16.6233  24.6107
 16.6463  24.6606
 16.6693  24.7051
 16.6923  24.6238
 16.7153  24.5649
 16.7383  24.5257
 16.7613  24.3812
 16.7843  24.3913
 16.8073  24.3657
 16.8303  24.46
 16.8533  24.5372
 16.8763  24.559
 16.8992  24.637
 16.9223  24.4817
 16.9453  24.3656
 16.9683  24.3054
 16.9913  24.3325
 17.0143  24.3415
 17.0373  24.2923
 17.0603  24.1956
 17.0832  24.1696
 17.1063  24.1252
 17.1293  24.1614
 17.1522  24.202
 17.1753  24.1921
 17.1983  24.1073
 17.2213  24.1272
 17.2443  24.0875
 17.2673  24.0501
 17.2903  24.0414
 17.3133  23.9908
 17.3362  24.0163
 17.3593  24.0448
 17.3823  24.1012
 17.4053  24.0956
 17.4283  24.083
 17.4513  23.9574
 17.4743  23.9298
 17.4973  24.0094
 17.5203  23.9101
 17.5433  23.8793
 17.5663  23.8463
 17.5893  23.8152
 17.6123  23.7941
 17.6352  23.9127
 17.6583  23.9687
 17.6813  23.9855
 17.7042  24.0124
 17.7273  23.8382
 17.7503  23.7512
 17.7733  23.79
 17.7963  23.8434
 17.8193  23.8574
 17.8423  23.7819
 17.8653  23.7604
 17.8882  23.7643
 17.9113  23.8395
 17.9343  23.8208
 17.9573  23.8618
 17.9803  24.0531
 18.0033  24.3802
 18.0263  24.5778
 18.0493  24.8545
 18.0723  25.4462
 18.0953  26.1702
 18.1183  27.2269
 18.1413  28.2006
 18.1643  27.375
 18.1872  25.181
 18.2103  24.0777
 18.2333  23.8261
 18.2563  23.7212
 18.2793  23.6406
 18.3023  23.5655
 18.3253  23.5734
 18.3483  23.589
 18.3712  23.6441
 18.3943  23.6722
 18.4173  23.6593
 18.4402  23.6072
 18.4633  23.705
 18.4863  23.714
 18.5093  23.6743
 18.5323  23.5765
 18.5553  23.5615
 18.5783  23.615
 18.6013  23.6042
 18.6242  23.6056
 18.6473  23.6392
 18.6703  23.6278
 18.6933  23.5891
 18.7163  23.5095
 18.7392  23.4255
 18.7623  23.4568
 18.7853  23.5097
 18.8083  23.55
 18.8313  23.5039
 18.8543  23.4973
 18.8773  23.4676
 18.9003  23.4429
 18.9232  23.5601
 18.9463  23.5057
 18.9693  23.3303
 18.9922  23.2994
 19.0153  23.4123
 19.0383  23.5384
 19.0613  23.5316
 19.0843  23.5814
 19.1073  23.55
 19.1303  23.4592
 19.1533  23.5182
 19.1762  23.535
 19.1993  23.5711
 19.2223  23.5986
 19.2453  23.4977
 19.2683  23.5595
 19.2913  23.5476
 19.3143  23.5464
 19.3373  23.5733
 19.3603  23.5661
 19.3833  23.5955
 19.4062  23.6234
 19.4293  23.6975
 19.4523  23.6919
 19.4752  23.6836
 19.4983  23.6908
 19.5213  23.7169
 19.5443  23.784
 19.5673  23.7457
 19.5903  23.8951
 19.6133  23.9286
 19.6363  24.0563
 19.6593  24.6118
 19.6823  25.5993
 19.7053  26.5182
 19.7283  26.5791
 19.7513  25.9013
 19.7742  25.2854
 19.7973  25.143
 19.8203  25.6438
 19.8433  26.8436
 19.8663  27.5931
 19.8893  26.7186
 19.9123  25.4665
 19.9353  24.44
 19.9582  24.0247
 19.9813  23.8885
 20.0043  23.8131
 20.0272  23.8295
 20.0503  23.8398
 20.0733  23.8184
 20.0963  23.7676
 20.1193  23.8194
 20.1423  23.8509
 20.1653  23.8472
 20.1883  23.8038
 20.2112  23.8106
 20.2343  23.8553
 20.2573  23.7226
 20.2803  23.7094
 20.3033  23.72
 20.3263  23.757
 20.3493  23.6923
 20.3723  23.668
 20.3953  23.6988
 20.4183  23.7973
 20.4413  23.7741
 20.4643  23.7428
 20.4873  23.7657
 20.5102  23.6726
 20.5333  23.5982
 20.5563  23.7138
 20.5792  23.7743
 20.6023  23.8921
 20.6253  23.9658
 20.6483  24.0014
 20.6713  24.1737
 20.6943  24.641
 20.7173  25.312
 20.7403  26.0187
 20.7632  26.3317
 20.7863  25.9208
 20.8093  25.073
 20.8323  24.4325
 20.8553  24.1797
 20.8783  24.0858
 20.9013  24.0323
 20.9243  24.028
 20.9473  23.9901
 20.9703  23.844
 20.9933  23.8595
 21.0163  23.781
 21.0393  23.7881
 21.0622  23.7858
 21.0853  23.8869
 21.1083  23.892
 21.1313  23.9541
 21.1543  23.8272
 21.1773  23.8703
 21.2003  23.9689
 21.2233  23.9522
 21.2462  23.9374
 21.2693  23.9444
 21.2923  23.8888
 21.3152  23.7824
 21.3383  23.8514
 21.3613  23.9804
 21.3843  23.987
 21.4073  23.9366
 21.4303  23.9488
 21.4533  23.9581
 21.4763  23.9438
 21.4992  23.9293
 21.5223  23.9416
 21.5453  23.9257
 21.5683  23.8862
 21.5913  23.9861
 21.6142  24.032
 21.6373  23.9714
 21.6603  24.0298
 21.6833  24.0764
 21.7063  24.1424
 21.7293  24.2193
 21.7523  24.1008
 21.7753  24.0643
 21.7982  24.182
 21.8213  24.23
 21.8443  24.1439
 21.8672  24.1412
 21.8903  24.1139
 21.9133  24.1563
 21.9363  24.2384
 21.9593  24.1646
 21.9823  24.158
 22.0053  24.1934
 22.0283  24.2469
 22.0512  24.3195
 22.0743  24.3237
 22.0973  24.2216
 22.1203  24.2474
 22.1433  24.3549
 22.1663  24.3367
 22.1893  24.4026
 22.2123  24.4183
 22.2353  24.419
 22.2583  24.4633
 22.2813  24.4393
 22.3043  24.4232
 22.3273  24.3949
 22.3502  24.4654
 22.3733  24.453
 22.3963  24.4974
 22.4193  24.5367
 22.4423  24.6929
 22.4653  24.8306
 22.4883  24.7883
 22.5113  24.8153
 22.5343  24.7831
 22.5573  24.8278
 22.5803  24.9662
 22.6033  24.9566
 22.6263  24.9926
 22.6493  24.9464
 22.6723  24.9788
 22.6953  25.1459
 22.7183  25.2168
 22.7413  25.1941
 22.7643  25.2447
 22.7873  25.2399
 22.8103  25.3904
 22.8333  25.5988
 22.8563  25.6325
 22.8793  25.6741
 22.9022  25.7664
 22.9253  25.9989
 22.9483  26.1122
 22.9713  26.2941
 22.9943  26.5612