File: test-data-xrd/xrd-map-34-ID-E/Data_0025.chi
F:\20151113_APS_34IDE\\Brian\Particle1\OCV\Data_0025.tif
2-Theta Angle (Degrees)
Intensity
       2000
 0.01725  0.0000000E+00
 0.04025  0.0000000E+00
 0.06325  0.0000000E+00
 0.08625  0.0000000E+00
 0.10925  0.0000000E+00
 0.13225  0.0000000E+00
 0.15525  0.0000000E+00
 0.17825  0.0000000E+00
 0.20125  0.0000000E+00
 0.22425  0.0000000E+00
 0.24725  0.0000000E+00
 0.27025  0.0000000E+00
 0.29325  0.0000000E+00
 0.31625  0.0000000E+00
 0.33925  0.0000000E+00
 0.36225  0.0000000E+00
 0.38525  0.0000000E+00
 0.40825  0.0000000E+00
 0.43125  0.0000000E+00
 0.45425  0.0000000E+00
 0.47725  0.0000000E+00
 0.50025  0.0000000E+00
 0.52325  0.0000000E+00
 0.54625  0.0000000E+00
 0.56925  0.0000000E+00
 0.59225  0.0000000E+00
 0.61525  0.0000000E+00
 0.63825  0.0000000E+00
 0.66125  0.0000000E+00
 0.68425  0.0000000E+00
 0.70725  0.0000000E+00
 0.73025  0.0000000E+00
 0.75325  0.0000000E+00
 0.77625  0.0000000E+00
 0.79925  0.0000000E+00
 0.82225  0.0000000E+00
 0.84525  0.0000000E+00
 0.86825  0.0000000E+00
 0.89125  0.0000000E+00
 0.91425  0.0000000E+00
 0.93725  0.0000000E+00
 0.96025  0.0000000E+00
 0.98325  0.0000000E+00
 1.00625  0.0000000E+00
 1.02925  0.0000000E+00
 1.05225  0.0000000E+00
 1.07525  0.0000000E+00
 1.09825  0.0000000E+00
 1.12125  0.0000000E+00
 1.14425  0.0000000E+00
 1.16725  0.0000000E+00
 1.19025  0.0000000E+00
 1.21325  0.0000000E+00
 1.23625  0.0000000E+00
 1.25925  0.0000000E+00
 1.28225  0.0000000E+00
 1.30525  0.0000000E+00
 1.32825  0.0000000E+00
 1.35125  0.0000000E+00
 1.37425  0.0000000E+00
 1.39725  0.0000000E+00
 1.42025  0.0000000E+00
 1.44325  0.0000000E+00
 1.46625  0.0000000E+00
 1.48925  0.0000000E+00
 1.51225  0.0000000E+00
 1.53525  0.0000000E+00
 1.55825  0.0000000E+00
 1.58125  0.0000000E+00
 1.60425  0.0000000E+00
 1.62725  0.0000000E+00
 1.65025  0.0000000E+00
 1.67325  0.0000000E+00
 1.69625  0.0000000E+00
 1.71925  0.0000000E+00
 1.74225  0.0000000E+00
 1.76525  0.0000000E+00
 1.78825  0.0000000E+00
 1.81125  0.0000000E+00
 1.83425  0.0000000E+00
 1.85725  0.0000000E+00
 1.88025  0.0000000E+00
 1.90325  0.0000000E+00
 1.92625  0.0000000E+00
 1.94925  0.0000000E+00
 1.97225  0.0000000E+00
 1.99525  0.0000000E+00
 2.01825  0.0000000E+00
 2.04125  0.0000000E+00
 2.06425  0.0000000E+00
 2.08725  0.0000000E+00
 2.11025  0.0000000E+00
 2.13325  0.0000000E+00
 2.15625  0.0000000E+00
 2.17925  0.0000000E+00
 2.20225  0.0000000E+00
 2.22525  0.0000000E+00
 2.24825  0.0000000E+00
 2.27125  0.0000000E+00
 2.29425  0.0000000E+00
 2.31725  0.0000000E+00
 2.34025  0.0000000E+00
 2.36325  0.0000000E+00
 2.38625  0.0000000E+00
 2.40925  0.0000000E+00
 2.43225  0.0000000E+00
 2.45525  0.0000000E+00
 2.47825  0.0000000E+00
 2.50125  0.0000000E+00
 2.52425  0.0000000E+00
 2.54725  0.0000000E+00
 2.57025  0.0000000E+00
 2.59325  0.0000000E+00
 2.61625  0.0000000E+00
 2.63925  0.0000000E+00
 2.66225  0.0000000E+00
 2.68525  0.0000000E+00
 2.70825  0.0000000E+00
 2.73125  0.0000000E+00
 2.75425  0.0000000E+00
 2.77725  0.0000000E+00
 2.80025  0.0000000E+00
 2.82325  37.6998
 2.84625  37.0075
 2.86925  36.3376
 2.89225  35.3737
 2.91525  34.6127
 2.93825  34.5615
 2.96125  35.3599
 2.98425  35.64
 3.00725  35.5687
 3.03025  35.5378
 3.05325  35.3211
 3.07625  35.4135
 3.09925  35.581
 3.12225  35.9453
 3.14525  36.7027
 3.16825  36.5686
 3.19125  36.1033
 3.21425  35.5936
 3.23725  35.6518
 3.26025  35.4804
 3.28325  34.558
 3.30625  34.0196
 3.32925  34.4487
 3.35225  35.6365
 3.37525  35.7924
 3.39825  35.0722
 3.42125  34.4329
 3.44425  34.4311
 3.46725  34.4937
 3.49025  34.6029
 3.51325  34.5457
 3.53625  34.6199
 3.55925  34.6911
 3.58225  34.0793
 3.60525  33.4662
 3.62825  33.5879
 3.65125  33.5631
 3.67425  33.4272
 3.69725  33.4345
 3.72025  33.3851
 3.74325  33.5195
 3.76625  33.8806
 3.78925  33.3936
 3.81225  32.73
 3.83525  32.6453
 3.85825  32.8668
 3.88125  33.3337
 3.90425  33.2431
 3.92725  33.2511
 3.95025  33.0335
 3.97325  32.9877
 3.99625  32.8465
 4.01925  32.7563
 4.04225  32.6236
 4.06525  32.6491
 4.08825  32.621
 4.11125  32.4134
 4.13425  32.2521
 4.15725  31.9056
 4.18025  31.7303
 4.20325  31.836
 4.22625  31.9602
 4.24925  32.036
 4.27225  31.8644
 4.29525  31.7787
 4.31825  31.8706
 4.34125  32.2729
 4.36425  32.5539
 4.38725  32.6356
 4.41025  32.7896
 4.43325  32.8695
 4.45625  32.8019
 4.47925  32.8331
 4.50225  32.7156
 4.52525  32.7474
 4.54825  32.9706
 4.57125  33.0638
 4.59425  33.1651
 4.61725  33.0649
 4.64025  32.8972
 4.66325  32.831
 4.68625  32.9537
 4.70925  33.2219
 4.73225  33.1659
 4.75525  32.9328
 4.77825  32.8745
 4.80125  32.6848
 4.82425  32.5073
 4.84725  32.5997
 4.87025  32.7887
 4.89325  32.8092
 4.91625  32.9812
 4.93925  33.0541
 4.96225  33.1211
 4.98525  33.0548
 5.00825  33.1442
 5.03125  33.3644
 5.05425  33.3581
 5.07725  33.4315
 5.10025  33.581
 5.12325  33.4994
 5.14625  33.5697
 5.16925  33.765
 5.19225  33.9037
 5.21525  34.0666
 5.23825  34.4168
 5.26125  34.4277
 5.28425  34.3143
 5.30725  34.2341
 5.33025  34.2733
 5.35325  34.2859
 5.37625  34.3346
 5.39925  34.4491
 5.42225  34.6302
 5.44525  34.8206
 5.46825  34.9813
 5.49125  34.8586
 5.51425  34.8935
 5.53725  34.9391
 5.56025  35.1482
 5.58325  35.3157
 5.60625  35.5188
 5.62925  35.6268
 5.65225  35.6306
 5.67525  35.8473
 5.69825  36.0224
 5.72125  35.9855
 5.74425  35.9801
 5.76725  35.9842
 5.79025  36.0304
 5.81325  36.2339
 5.83625  36.3915
 5.85925  36.5578
 5.88225  36.8838
 5.90525  37.6996
 5.92825  39.4745
 5.95125  43.0697
 5.97425  47.3223
 5.99725  47.3364
 6.02025  43.3504
 6.04325  39.4396
 6.06625  37.7601
 6.08925  37.1815
 6.11225  37.1246
 6.13525  37.1164
 6.15825  37.1021
 6.18125  37.338
 6.20425  37.5865
 6.22725  37.6786
 6.25025  37.5249
 6.27325  37.5523
 6.29625  37.7717
 6.31925  37.9519
 6.34225  38.0935
 6.36525  38.0533
 6.38825  38.1769
 6.41125  38.3719
 6.43425  38.6194
 6.45725  38.7225
 6.48025  38.7827
 6.50325  39.2017
 6.52625  39.3762
 6.54925  39.3341
 6.57225  39.5704
 6.59525  39.8485
 6.61825  39.999
 6.64125  40.1859
 6.66425  40.5287
 6.68725  40.8388
 6.71025  41.0652
 6.73325  40.9431
 6.75625  41.1139
 6.77925  41.4061
 6.80225  41.7313
 6.82525  41.9268
 6.84825  41.8821
 6.87125  41.7977
 6.89425  41.837
 6.91725  42.1791
 6.94025  42.4262
 6.96325  42.3829
 6.98625  42.3197
 7.00925  42.3495
 7.03225  42.7205
 7.05525  42.8727
 7.07825  42.9654
 7.10125  43.1505
 7.12425  43.3038
 7.14725  43.303
 7.17025  43.3157
 7.19325  43.4358
 7.21625  43.6012
 7.23925  43.837
 7.26225  44.074
 7.28525  44.2049
 7.30825  44.0611
 7.33125  44.0216
 7.35425  44.1548
 7.37725  44.2653
 7.40025  44.3462
 7.42325  44.4639
 7.44625  44.7245
 7.46925  44.8717
 7.49225  44.7274
 7.51525  44.6229
 7.53825  44.6192
 7.56125  44.6585
 7.58425  44.7334
 7.60725  44.7472
 7.63025  44.6872
 7.65325  44.6522
 7.67625  44.6637
 7.69925  44.6367
 7.72225  44.7384
 7.74525  44.8166
 7.76825  44.742
 7.79125  44.7446
 7.81425  44.7677
 7.83725  44.6746
 7.86025  44.6237
 7.88325  44.3242
 7.90625  44.1733
 7.92925  44.2303
 7.95225  44.0737
 7.97525  43.8166
 7.99825  43.6471
 8.02125  43.7163
 8.04425  43.7214
 8.06725  43.5462
 8.09025  43.2963
 8.11325  43.1966
 8.13625  43.02
 8.15925  42.861
 8.18225  42.4758
 8.20525  42.1728
 8.22825  41.8622
 8.25125  41.7492
 8.27425  41.4703
 8.29725  41.1068
 8.32025  40.9652
 8.34325  40.7161
 8.36625  40.5675
 8.38925  40.2541
 8.41225  39.8955
 8.43525  39.5735
 8.45825  39.3064
 8.48125  38.9806
 8.50425  38.5303
 8.52725  38.0642
 8.55025  37.6227
 8.57325  37.3239
 8.59625  37.0455
 8.61925  36.7938
 8.64225  36.4623
 8.66525  35.9052
 8.68825  35.491
 8.71125  35.2434
 8.73425  34.9115
 8.75725  34.5737
 8.78025  34.3229
 8.80325  34.0667
 8.82625  33.9029
 8.84925  33.4255
 8.87225  33.0356
 8.89525  32.6403
 8.91825  32.251
 8.94125  31.9029
 8.96425  31.585
 8.98725  31.3178
 9.01025  31.0987
 9.03325  30.8396
 9.05625  30.6503
 9.07925  30.4499
 9.10225  30.1434
 9.12525  29.8766
 9.14825  29.7014
 9.17125  29.5782
 9.19425  29.2912
 9.21725  28.8656
 9.24025  28.58
 9.26325  28.3869
 9.28625  28.3862
 9.30925  28.167
 9.33225  27.8594
 9.35525  27.7074
 9.37825  27.6056
 9.40125  27.4904
 9.42425  27.276
 9.44725  27.0886
 9.47025  27.0513
 9.49325  27.0256
 9.51625  26.8108
 9.53925  26.5769
 9.56225  26.3994
 9.58525  26.2732
 9.60825  26.1846
 9.63125  26.0649
 9.65425  26.0085
 9.67725  25.8501
 9.70025  25.747
 9.72325  25.7644
 9.74625  25.6402
 9.76925  25.5062
 9.79225  25.4832
 9.81525  25.5547
 9.83825  25.4227
 9.86125  25.2367
 9.88425  25.0832
 9.90725  24.9769
 9.93025  24.8964
 9.95325  24.8245
 9.97625  24.8336
 9.99925  24.7491
 10.0222  24.6166
 10.0453  24.6688
 10.0683  24.5427
 10.0913  24.4477
 10.1143  24.3935
 10.1373  24.4037
 10.1603  24.3915
 10.1832  24.2254
 10.2063  24.1598
 10.2293  24.1821
 10.2523  24.036
 10.2752  23.9518
 10.2982  23.9906
 10.3213  23.8868
 10.3443  23.7778
 10.3673  23.6672
 10.3902  23.7529
 10.4133  23.8638
 10.4363  23.7742
 10.4593  23.7176
 10.4823  23.6896
 10.5053  23.7122
 10.5283  23.6881
 10.5512  23.5771
 10.5742  23.5715
 10.5973  23.5583
 10.6203  23.5694
 10.6433  23.476
 10.6662  23.3995
 10.6893  23.3982
 10.7123  23.4636
 10.7353  23.3743
 10.7583  23.2569
 10.7813  23.3552
 10.8043  23.387
 10.8272  23.3429
 10.8503  23.2314
 10.8733  23.1311
 10.8963  23.0443
 10.9192  23.0582
 10.9422  23.0446
 10.9653  22.9705
 10.9883  23.0293
 11.0113  23.0234
 11.0343  22.9851
 11.0573  22.8732
 11.0803  22.8449
 11.1033  22.9483
 11.1263  23.018
 11.1493  23.0206
 11.1723  23.0377
 11.1953  22.9419
 11.2182  22.8388
 11.2413  22.8708
 11.2643  22.8219
 11.2873  22.7763
 11.3102  22.817
 11.3333  22.915
 11.3563  22.8798
 11.3793  22.9138
 11.4023  23.1643
 11.4253  23.3369
 11.4483  23.4095
 11.4713  23.5164
 11.4942  23.8474
 11.5173  24.9564
 11.5403  27.7804
 11.5633  32.7244
 11.5862  36.2126
 11.6093  34.7459
 11.6323  29.4157
 11.6553  25.6538
 11.6783  24.0478
 11.7013  23.429
 11.7243  23.0609
 11.7473  22.9634
 11.7703  22.9313
 11.7933  22.8546
 11.8163  22.9559
 11.8393  23.0753
 11.8622  23.0533
 11.8853  23.0166
 11.9083  23.0847
 11.9313  23.2333
 11.9543  23.4432
 11.9773  24.0746
 12.0003  24.7422
 12.0233  24.7211
 12.0463  24.6972
 12.0693  25.3304
 12.0923  26.2737
 12.1153  26.0964
 12.1382  25.0001
 12.1613  23.8883
 12.1843  23.2948
 12.2073  23.0226
 12.2302  22.8969
 12.2533  22.776
 12.2763  22.7845
 12.2993  22.7941
 12.3223  22.7667
 12.3453  22.6652
 12.3683  22.8187
 12.3913  22.9989
 12.4142  22.9722
 12.4373  22.9408
 12.4603  23.0206
 12.4833  23.0977
 12.5062  23.042
 12.5292  23.1355
 12.5523  23.2108
 12.5753  23.1805
 12.5983  23.1597
 12.6212  23.2156
 12.6443  23.208
 12.6673  23.2186
 12.6903  23.2423
 12.7133  23.3165
 12.7363  23.343
 12.7593  23.3902
 12.7822  23.5051
 12.8052  23.5846
 12.8283  23.5261
 12.8513  23.6036
 12.8742  23.6205
 12.8972  23.7523
 12.9203  23.9591
 12.9433  24.1118
 12.9663  24.1613
 12.9893  24.2143
 13.0123  24.2387
 13.0353  24.5701
 13.0582  24.8237
 13.0813  25.0108
 13.1043  25.2458
 13.1273  25.4371
 13.1502  25.5912
 13.1732  25.7628
 13.1963  25.9982
 13.2193  26.2883
 13.2423  26.5892
 13.2652  26.7994
 13.2883  27.0844
 13.3113  27.2827
 13.3343  27.6716
 13.3573  28.1355
 13.3803  28.3646
 13.4033  28.6766
 13.4262  28.7614
 13.4492  28.9107
 13.4723  29.2484
 13.4953  29.5011
 13.5183  29.7395
 13.5412  29.9116
 13.5643  30.0943
 13.5873  30.1844
 13.6103  30.126
 13.6333  30.1221
 13.6563  30.2179
 13.6793  30.1429
 13.7022  30.0313
 13.7253  30.0198
 13.7483  29.9808
 13.7713  29.9043
 13.7942  29.8257
 13.8172  29.8463
 13.8403  30.0655
 13.8633  30.8945
 13.8863  31.9775
 13.9093  35.1376
 13.9323  40.8248
 13.9553  45.5178
 13.9783  44.586
 14.0013  38.7264
 14.0243  33.6874
 14.0473  30.7038
 14.0703  29.4273
 14.0932  28.4334
 14.1163  28.0137
 14.1393  27.807
 14.1623  27.6703
 14.1852  27.4564
 14.2083  27.2503
 14.2313  26.9838
 14.2543  26.8869
 14.2773  26.7999
 14.3003  26.7496
 14.3233  26.6671
 14.3463  26.5578
 14.3692  26.4635
 14.3923  26.3517
 14.4153  26.3063
 14.4383  26.2739
 14.4612  26.1455
 14.4843  26.0059
 14.5073  26.0213
 14.5303  25.94
 14.5533  25.8557
 14.5763  25.8712
 14.5993  25.7303
 14.6223  25.6323
 14.6453  25.5217
 14.6683  25.4462
 14.6913  25.4644
 14.7143  25.5051
 14.7372  25.5234
 14.7603  25.459
 14.7833  25.4734
 14.8063  25.4879
 14.8293  25.4391
 14.8523  25.3885
 14.8753  25.242
 14.8983  25.1467
 14.9213  25.2222
 14.9443  25.312
 14.9673  25.3168
 14.9903  25.1654
 15.0132  25.1889
 15.0363  25.3799
 15.0593  25.392
 15.0823  25.432
 15.1052  25.6408
 15.1283  26.059
 15.1513  27.3998
 15.1743  30.0682
 15.1973  32.6679
 15.2203  32.0513
 15.2433  28.8002
 15.2663  26.3935
 15.2892  25.4862
 15.3123  25.2191
 15.3353  25.0879
 15.3583  25.0437
 15.3812  24.9981
 15.4043  24.9629
 15.4273  24.8961
 15.4503  24.8788
 15.4733  24.8152
 15.4963  24.868
 15.5193  24.8902
 15.5423  24.9422
 15.5653  24.8521
 15.5883  24.8138
 15.6113  24.8102
 15.6343  24.7798
 15.6572  24.9071
 15.6803  24.9164
 15.7033  24.9945
 15.7263  24.9728
 15.7492  24.9972
 15.7723  25.0367
 15.7953  24.9171
 15.8183  24.8379
 15.8413  24.798
 15.8643  24.8497
 15.8873  24.902
 15.9103  24.879
 15.9332  24.9252
 15.9563  24.9397
 15.9793  24.9393
 16.0023  24.9536
 16.0253  24.8935
 16.0482  25.0454
 16.0713  25.1265
 16.0943  25.1777
 16.1172  25.285
 16.1403  25.3451
 16.1633  25.3173
 16.1863  25.5639
 16.2093  26.0874
 16.2323  26.639
 16.2553  27.0557
 16.2783  26.835
 16.3012  25.8475
 16.3243  25.307
 16.3472  25.0702
 16.3703  24.9335
 16.3933  24.8606
 16.4163  25.0099
 16.4393  25.137
 16.4623  25.1212
 16.4853  24.9946
 16.5083  24.9753
 16.5312  24.8832
 16.5543  24.8787
 16.5773  24.9998
 16.6002  25.0284
 16.6233  24.9276
 16.6463  24.7953
 16.6693  24.8142
 16.6923  24.8706
 16.7153  24.8418
 16.7383  24.8809
 16.7613  24.8719
 16.7843  24.7314
 16.8073  24.6381
 16.8303  24.6131
 16.8533  24.5536
 16.8763  24.5995
 16.8992  24.6561
 16.9223  24.6975
 16.9453  24.6653
 16.9683  24.664
 16.9913  24.6265
 17.0143  24.5677
 17.0373  24.5656
 17.0603  24.5601
 17.0832  24.6416
 17.1063  24.609
 17.1293  24.544
 17.1522  24.4412
 17.1753  24.4681
 17.1983  24.5179
 17.2213  24.5548
 17.2443  24.5219
 17.2673  24.3839
 17.2903  24.3148
 17.3133  24.3369
 17.3362  24.4141
 17.3593  24.364
 17.3823  24.3165
 17.4053  24.2907
 17.4283  24.3013
 17.4513  24.3243
 17.4743  24.2764
 17.4973  24.2459
 17.5203  24.183
 17.5433  24.2256
 17.5663  24.1593
 17.5893  24.0998
 17.6123  24.1591
 17.6352  24.1827
 17.6583  24.0696
 17.6813  24.0828
 17.7042  24.0917
 17.7273  24.0657
 17.7503  24.073
 17.7733  24.1259
 17.7963  24.197
 17.8193  24.175
 17.8423  24.2272
 17.8653  24.2487
 17.8882  24.1766
 17.9113  24.1324
 17.9343  24.1848
 17.9573  24.1374
 17.9803  24.1542
 18.0033  24.4319
 18.0263  24.7969
 18.0493  25.2305
 18.0723  25.723
 18.0953  26.0915
 18.1183  25.9855
 18.1413  25.3746
 18.1643  24.755
 18.1872  24.432
 18.2103  24.1911
 18.2333  24.0373
 18.2563  23.9722
 18.2793  23.8862
 18.3023  23.9623
 18.3253  23.9199
 18.3483  24.0245
 18.3712  23.9842
 18.3943  23.9454
 18.4173  23.8573
 18.4402  23.825
 18.4633  23.8146
 18.4863  23.8303
 18.5093  23.857
 18.5323  23.8364
 18.5553  23.7405
 18.5783  23.7967
 18.6013  23.8865
 18.6242  23.8311
 18.6473  23.762
 18.6703  23.7664
 18.6933  23.9109
 18.7163  23.8373
 18.7392  23.7694
 18.7623  23.846
 18.7853  23.8467
 18.8083  23.8811
 18.8313  23.8541
 18.8543  23.8125
 18.8773  23.7779
 18.9003  23.7885
 18.9232  23.8301
 18.9463  23.898
 18.9693  23.852
 18.9922  23.8494
 19.0153  23.8514
 19.0383  23.8259
 19.0613  23.7426
 19.0843  23.7246
 19.1073  23.6952
 19.1303  23.795
 19.1533  23.9216
 19.1762  23.9006
 19.1993  23.8365
 19.2223  23.7507
 19.2453  23.7587
 19.2683  23.8318
 19.2913  23.8252
 19.3143  23.8948
 19.3373  23.9926
 19.3603  23.9665
 19.3833  23.9526
 19.4062  23.9933
 19.4293  24.0265
 19.4523  24.1032
 19.4752  24.1555
 19.4983  24.1436
 19.5213  24.1951
 19.5443  24.2684
 19.5673  24.2387
 19.5903  24.466
 19.6133  24.6884
 19.6363  25.2304
 19.6593  26.4594
 19.6823  28.0912
 19.7053  28.9929
 19.7283  28.8658
 19.7513  28.0114
 19.7742  26.983
 19.7973  27.1052
 19.8203  28.5179
 19.8433  29.6811
 19.8663  28.7972
 19.8893  27.2024
 19.9123  25.8131
 19.9353  24.8603
 19.9582  24.4438
 19.9813  24.3076
 20.0043  24.2724
 20.0272  24.1931
 20.0503  24.1672
 20.0733  23.9969
 20.0963  24.1163
 20.1193  24.1642
 20.1423  24.1498
 20.1653  24.0757
 20.1883  24.0408
 20.2112  24.0283
 20.2343  24.1276
 20.2573  24.032
 20.2803  24.0234
 20.3033  23.9869
 20.3263  23.9083
 20.3493  23.9944
 20.3723  24.0343
 20.3953  24.0971
 20.4183  24.1413
 20.4413  24.1564
 20.4643  24.127
 20.4873  24.0685
 20.5102  24.1717
 20.5333  24.1557
 20.5563  24.1404
 20.5792  24.1425
 20.6023  24.2608
 20.6253  24.2927
 20.6483  24.2974
 20.6713  24.4423
 20.6943  24.8956
 20.7173  25.5203
 20.7403  26.2272
 20.7632  26.9787
 20.7863  27.0015
 20.8093  26.2616
 20.8323  25.3788
 20.8553  24.7355
 20.8783  24.4314
 20.9013  24.2829
 20.9243  24.297
 20.9473  24.3725
 20.9703  24.3813
 20.9933  24.3334
 21.0163  24.3015
 21.0393  24.2859
 21.0622  24.2959
 21.0853  24.3411
 21.1083  24.2836
 21.1313  24.347
 21.1543  24.246
 21.1773  24.22
 21.2003  24.1813
 21.2233  24.1911
 21.2462  24.2474
 21.2693  24.2562
 21.2923  24.2298
 21.3152  24.159
 21.3383  24.1799
 21.3613  24.2296
 21.3843  24.2477
 21.4073  24.2401
 21.4303  24.275
 21.4533  24.2864
 21.4763  24.1639
 21.4992  24.2478
 21.5223  24.2728
 21.5453  24.2943
 21.5683  24.3219
 21.5913  24.3942
 21.6142  24.42
 21.6373  24.3659
 21.6603  24.3595
 21.6833  24.3542
 21.7063  24.3372
 21.7293  24.3704
 21.7523  24.3699
 21.7753  24.301
 21.7982  24.3467
 21.8213  24.383
 21.8443  24.3543
 21.8672  24.4001
 21.8903  24.4007
 21.9133  24.472
 21.9363  24.4864
 21.9593  24.4246
 21.9823  24.3963
 22.0053  24.5124
 22.0283  24.5176
 22.0512  24.4799
 22.0743  24.4868
 22.0973  24.5478
 22.1203  24.616
 22.1433  24.6636
 22.1663  24.5794
 22.1893  24.5666
 22.2123  24.6152
 22.2353  24.7142
 22.2583  24.7532
 22.2813  24.685
 22.3043  24.7226
 22.3273  24.7401
 22.3502  24.774
 22.3733  24.7556
 22.3963  24.7486
 22.4193  24.7445
 22.4423  24.8528
 22.4653  24.8708
 22.4883  24.9266
 22.5113  24.9978
 22.5343  25.0289
 22.5573  25.0594
 22.5803  25.1238
 22.6033  25.2163
 22.6263  25.3087
 22.6493  25.2864
 22.6723  25.2949
 22.6953  25.4448
 22.7183  25.4548
 22.7413  25.4119
 22.7643  25.5523
 22.7873  25.553
 22.8103  25.5978
 22.8333  25.6979
 22.8563  25.7702
 22.8793  25.8292
 22.9022  25.9874
 22.9253  26.1578
 22.9483  26.2718
 22.9713  26.413
 22.9943  26.5211