File: test-data-xrd/xrd-map-34-ID-E/Data_0102.chi
F:\20151113_APS_34IDE\\Brian\Particle1\OCV\Data_0102.tif
2-Theta Angle (Degrees)
Intensity
       2000
 0.01725  0.0000000E+00
 0.04025  0.0000000E+00
 0.06325  0.0000000E+00
 0.08625  0.0000000E+00
 0.10925  0.0000000E+00
 0.13225  0.0000000E+00
 0.15525  0.0000000E+00
 0.17825  0.0000000E+00
 0.20125  0.0000000E+00
 0.22425  0.0000000E+00
 0.24725  0.0000000E+00
 0.27025  0.0000000E+00
 0.29325  0.0000000E+00
 0.31625  0.0000000E+00
 0.33925  0.0000000E+00
 0.36225  0.0000000E+00
 0.38525  0.0000000E+00
 0.40825  0.0000000E+00
 0.43125  0.0000000E+00
 0.45425  0.0000000E+00
 0.47725  0.0000000E+00
 0.50025  0.0000000E+00
 0.52325  0.0000000E+00
 0.54625  0.0000000E+00
 0.56925  0.0000000E+00
 0.59225  0.0000000E+00
 0.61525  0.0000000E+00
 0.63825  0.0000000E+00
 0.66125  0.0000000E+00
 0.68425  0.0000000E+00
 0.70725  0.0000000E+00
 0.73025  0.0000000E+00
 0.75325  0.0000000E+00
 0.77625  0.0000000E+00
 0.79925  0.0000000E+00
 0.82225  0.0000000E+00
 0.84525  0.0000000E+00
 0.86825  0.0000000E+00
 0.89125  0.0000000E+00
 0.91425  0.0000000E+00
 0.93725  0.0000000E+00
 0.96025  0.0000000E+00
 0.98325  0.0000000E+00
 1.00625  0.0000000E+00
 1.02925  0.0000000E+00
 1.05225  0.0000000E+00
 1.07525  0.0000000E+00
 1.09825  0.0000000E+00
 1.12125  0.0000000E+00
 1.14425  0.0000000E+00
 1.16725  0.0000000E+00
 1.19025  0.0000000E+00
 1.21325  0.0000000E+00
 1.23625  0.0000000E+00
 1.25925  0.0000000E+00
 1.28225  0.0000000E+00
 1.30525  0.0000000E+00
 1.32825  0.0000000E+00
 1.35125  0.0000000E+00
 1.37425  0.0000000E+00
 1.39725  0.0000000E+00
 1.42025  0.0000000E+00
 1.44325  0.0000000E+00
 1.46625  0.0000000E+00
 1.48925  0.0000000E+00
 1.51225  0.0000000E+00
 1.53525  0.0000000E+00
 1.55825  0.0000000E+00
 1.58125  0.0000000E+00
 1.60425  0.0000000E+00
 1.62725  0.0000000E+00
 1.65025  0.0000000E+00
 1.67325  0.0000000E+00
 1.69625  0.0000000E+00
 1.71925  0.0000000E+00
 1.74225  0.0000000E+00
 1.76525  0.0000000E+00
 1.78825  0.0000000E+00
 1.81125  0.0000000E+00
 1.83425  0.0000000E+00
 1.85725  0.0000000E+00
 1.88025  0.0000000E+00
 1.90325  0.0000000E+00
 1.92625  0.0000000E+00
 1.94925  0.0000000E+00
 1.97225  0.0000000E+00
 1.99525  0.0000000E+00
 2.01825  0.0000000E+00
 2.04125  0.0000000E+00
 2.06425  0.0000000E+00
 2.08725  0.0000000E+00
 2.11025  0.0000000E+00
 2.13325  0.0000000E+00
 2.15625  0.0000000E+00
 2.17925  0.0000000E+00
 2.20225  0.0000000E+00
 2.22525  0.0000000E+00
 2.24825  0.0000000E+00
 2.27125  0.0000000E+00
 2.29425  0.0000000E+00
 2.31725  0.0000000E+00
 2.34025  0.0000000E+00
 2.36325  0.0000000E+00
 2.38625  0.0000000E+00
 2.40925  0.0000000E+00
 2.43225  0.0000000E+00
 2.45525  0.0000000E+00
 2.47825  0.0000000E+00
 2.50125  0.0000000E+00
 2.52425  0.0000000E+00
 2.54725  0.0000000E+00
 2.57025  0.0000000E+00
 2.59325  0.0000000E+00
 2.61625  0.0000000E+00
 2.63925  0.0000000E+00
 2.66225  0.0000000E+00
 2.68525  0.0000000E+00
 2.70825  0.0000000E+00
 2.73125  0.0000000E+00
 2.75425  0.0000000E+00
 2.77725  0.0000000E+00
 2.80025  0.0000000E+00
 2.82325  35.2395
 2.84625  34.5506
 2.86925  34.4851
 2.89225  35.0928
 2.91525  36.3555
 2.93825  36.9849
 2.96125  36.3304
 2.98425  36.3392
 3.00725  36.8408
 3.03025  36.9209
 3.05325  36.3592
 3.07625  35.8965
 3.09925  35.711
 3.12225  35.3582
 3.14525  35.2365
 3.16825  35.6601
 3.19125  35.5761
 3.21425  35.6463
 3.23725  35.8273
 3.26025  35.7849
 3.28325  36.2252
 3.30625  35.6634
 3.32925  35.4164
 3.35225  35.0368
 3.37525  34.5713
 3.39825  34.969
 3.42125  35.3338
 3.44425  35.5956
 3.46725  35.8487
 3.49025  35.5154
 3.51325  34.7899
 3.53625  34.5845
 3.55925  34.6862
 3.58225  34.1487
 3.60525  33.5135
 3.62825  33.2305
 3.65125  33.4253
 3.67425  33.2973
 3.69725  33.2961
 3.72025  33.2326
 3.74325  33.3131
 3.76625  33.4093
 3.78925  33.2853
 3.81225  33.0278
 3.83525  33.2966
 3.85825  33.5116
 3.88125  33.3528
 3.90425  32.7385
 3.92725  32.6308
 3.95025  32.7093
 3.97325  32.6784
 3.99625  32.7607
 4.01925  32.8941
 4.04225  32.7979
 4.06525  32.8929
 4.08825  32.7356
 4.11125  32.453
 4.13425  32.4031
 4.15725  32.4319
 4.18025  32.5019
 4.20325  32.6601
 4.22625  32.5167
 4.24925  32.4696
 4.27225  32.4699
 4.29525  32.5228
 4.31825  32.6763
 4.34125  32.879
 4.36425  32.7365
 4.38725  32.6853
 4.41025  32.6989
 4.43325  32.5492
 4.45625  32.3076
 4.47925  32.374
 4.50225  32.3781
 4.52525  32.4804
 4.54825  32.7805
 4.57125  32.8202
 4.59425  32.9303
 4.61725  32.9793
 4.64025  32.7231
 4.66325  32.6458
 4.68625  32.8074
 4.70925  33.0293
 4.73225  33.044
 4.75525  32.885
 4.77825  32.9286
 4.80125  32.7889
 4.82425  32.7388
 4.84725  32.7769
 4.87025  33.0106
 4.89325  33.0266
 4.91625  33.1136
 4.93925  33.0362
 4.96225  33.0198
 4.98525  33.1698
 5.00825  33.3964
 5.03125  33.585
 5.05425  33.8249
 5.07725  33.889
 5.10025  33.8052
 5.12325  33.489
 5.14625  33.6534
 5.16925  33.9818
 5.19225  34.2707
 5.21525  34.231
 5.23825  34.1553
 5.26125  34.2313
 5.28425  34.3345
 5.30725  34.4727
 5.33025  34.4834
 5.35325  34.4443
 5.37625  34.4125
 5.39925  34.5498
 5.42225  34.6172
 5.44525  34.76
 5.46825  35.1197
 5.49125  35.3691
 5.51425  35.3469
 5.53725  35.2194
 5.56025  35.1506
 5.58325  35.1289
 5.60625  35.3402
 5.62925  35.2398
 5.65225  35.4376
 5.67525  35.6815
 5.69825  35.8283
 5.72125  35.9415
 5.74425  36.047
 5.76725  36.0032
 5.79025  36.1982
 5.81325  36.1504
 5.83625  36.1349
 5.85925  36.2929
 5.88225  36.8914
 5.90525  37.8413
 5.92825  39.8142
 5.95125  44.3267
 5.97425  47.7669
 5.99725  46.6151
 6.02025  42.7476
 6.04325  39.4063
 6.06625  37.6388
 6.08925  37.0669
 6.11225  37.0818
 6.13525  37.1805
 6.15825  37.206
 6.18125  37.4262
 6.20425  37.4395
 6.22725  37.4951
 6.25025  37.4932
 6.27325  37.7411
 6.29625  37.9713
 6.31925  38.0567
 6.34225  38.1079
 6.36525  38.3355
 6.38825  38.6315
 6.41125  38.8179
 6.43425  38.8609
 6.45725  39.0072
 6.48025  39.2962
 6.50325  39.5109
 6.52625  39.7298
 6.54925  39.6951
 6.57225  39.7603
 6.59525  39.9791
 6.61825  40.0952
 6.64125  40.3963
 6.66425  40.7712
 6.68725  40.8864
 6.71025  40.9353
 6.73325  41.1588
 6.75625  41.3468
 6.77925  41.3412
 6.80225  41.3437
 6.82525  41.3843
 6.84825  41.5057
 6.87125  41.8211
 6.89425  42.1325
 6.91725  42.2591
 6.94025  42.3433
 6.96325  42.7017
 6.98625  42.9915
 7.00925  42.8951
 7.03225  42.8565
 7.05525  43.0488
 7.07825  43.5079
 7.10125  43.6337
 7.12425  43.5137
 7.14725  43.5627
 7.17025  43.5951
 7.19325  43.7232
 7.21625  43.8265
 7.23925  43.8288
 7.26225  43.7997
 7.28525  43.8802
 7.30825  44.1321
 7.33125  44.225
 7.35425  44.3012
 7.37725  44.3242
 7.40025  44.3507
 7.42325  44.365
 7.44625  44.284
 7.46925  44.2577
 7.49225  44.3596
 7.51525  44.5006
 7.53825  44.5491
 7.56125  44.6274
 7.58425  44.8016
 7.60725  44.7689
 7.63025  44.4571
 7.65325  44.294
 7.67625  44.4139
 7.69925  44.664
 7.72225  44.7717
 7.74525  44.6325
 7.76825  44.5512
 7.79125  44.4309
 7.81425  44.3593
 7.83725  44.3238
 7.86025  44.3954
 7.88325  44.0304
 7.90625  44.0176
 7.92925  44.119
 7.95225  44.0502
 7.97525  44.0982
 7.99825  44.0629
 8.02125  43.9088
 8.04425  43.5288
 8.06725  43.2656
 8.09025  43.0153
 8.11325  42.8919
 8.13625  42.6892
 8.15925  42.5502
 8.18225  42.1654
 8.20525  41.7764
 8.22825  41.4618
 8.25125  41.3866
 8.27425  41.1573
 8.29725  40.9259
 8.32025  40.7589
 8.34325  40.5601
 8.36625  40.29
 8.38925  39.8607
 8.41225  39.4441
 8.43525  39.0405
 8.45825  38.7152
 8.48125  38.3708
 8.50425  38.0818
 8.52725  37.8865
 8.55025  37.5367
 8.57325  37.1531
 8.59625  36.7374
 8.61925  36.2787
 8.64225  35.8873
 8.66525  35.4953
 8.68825  35.1117
 8.71125  34.7013
 8.73425  34.3439
 8.75725  33.9746
 8.78025  33.7167
 8.80325  33.423
 8.82625  33.1117
 8.84925  33.0346
 8.87225  32.7551
 8.89525  32.2767
 8.91825  31.864
 8.94125  31.6553
 8.96425  31.3448
 8.98725  30.9667
 9.01025  30.6694
 9.03325  30.4341
 9.05625  30.0651
 9.07925  29.7094
 9.10225  29.4615
 9.12525  29.2339
 9.14825  28.9779
 9.17125  28.8369
 9.19425  28.5896
 9.21725  28.3816
 9.24025  28.2854
 9.26325  28.1766
 9.28625  27.8849
 9.30925  27.6453
 9.33225  27.4213
 9.35525  27.3055
 9.37825  27.1639
 9.40125  27.0779
 9.42425  26.9285
 9.44725  26.6912
 9.47025  26.4999
 9.49325  26.2696
 9.51625  26.0949
 9.53925  26.147
 9.56225  26.177
 9.58525  26.0529
 9.60825  25.8847
 9.63125  25.7172
 9.65425  25.4957
 9.67725  25.2793
 9.70025  25.171
 9.72325  25.1955
 9.74625  25.109
 9.76925  25.0201
 9.79225  24.9723
 9.81525  24.9343
 9.83825  24.8244
 9.86125  24.6978
 9.88425  24.5566
 9.90725  24.4345
 9.93025  24.459
 9.95325  24.4309
 9.97625  24.3905
 9.99925  24.3853
 10.0222  24.2343
 10.0453  24.2154
 10.0683  24.1756
 10.0913  24.1372
 10.1143  24.0706
 10.1373  23.9842
 10.1603  23.9169
 10.1832  23.79
 10.2063  23.6825
 10.2293  23.7459
 10.2523  23.6927
 10.2752  23.6431
 10.2982  23.6829
 10.3213  23.6535
 10.3443  23.5346
 10.3673  23.4308
 10.3902  23.4115
 10.4133  23.4054
 10.4363  23.3047
 10.4593  23.3129
 10.4823  23.4144
 10.5053  23.4061
 10.5283  23.3051
 10.5512  23.1881
 10.5742  23.1133
 10.5973  23.059
 10.6203  23.1147
 10.6433  23.0756
 10.6662  23.0471
 10.6893  23.1102
 10.7123  23.0605
 10.7353  22.9614
 10.7583  22.8726
 10.7813  22.8196
 10.8043  22.8262
 10.8272  22.7777
 10.8503  22.8246
 10.8733  22.7963
 10.8963  22.7263
 10.9192  22.729
 10.9422  22.7985
 10.9653  22.8074
 10.9883  22.7929
 11.0113  22.792
 11.0343  22.6593
 11.0573  22.5616
 11.0803  22.5867
 11.1033  22.6546
 11.1263  22.6674
 11.1493  22.6661
 11.1723  22.5589
 11.1953  22.4313
 11.2182  22.4742
 11.2413  22.4106
 11.2643  22.4275
 11.2873  22.4176
 11.3102  22.5006
 11.3333  22.6043
 11.3563  22.6302
 11.3793  22.6286
 11.4023  22.7103
 11.4253  22.8626
 11.4483  22.9921
 11.4713  23.0757
 11.4942  23.2129
 11.5173  23.6067
 11.5403  24.991
 11.5633  28.0431
 11.5862  33.1518
 11.6093  35.1676
 11.6323  31.8519
 11.6553  26.9142
 11.6783  24.2201
 11.7013  23.1406
 11.7243  22.8642
 11.7473  22.8515
 11.7703  22.6583
 11.7933  22.5511
 11.8163  22.5127
 11.8393  22.5488
 11.8622  22.4794
 11.8853  22.4925
 11.9083  22.454
 11.9313  22.5455
 11.9543  22.7433
 11.9773  22.9309
 12.0003  22.9992
 12.0233  22.8984
 12.0463  23.0224
 12.0693  23.4847
 12.0923  24.0473
 12.1153  24.178
 12.1382  23.6797
 12.1613  23.0965
 12.1843  22.7642
 12.2073  22.6616
 12.2302  22.5574
 12.2533  22.4633
 12.2763  22.4075
 12.2993  22.4666
 12.3223  22.5238
 12.3453  22.5558
 12.3683  22.5932
 12.3913  22.6302
 12.4142  22.6131
 12.4373  22.6078
 12.4603  22.5505
 12.4833  22.6223
 12.5062  22.6483
 12.5292  22.6812
 12.5523  22.7297
 12.5753  22.7373
 12.5983  22.6971
 12.6212  22.7341
 12.6443  22.801
 12.6673  22.8455
 12.6903  22.8034
 12.7133  22.8682
 12.7363  22.9953
 12.7593  23.1518
 12.7822  23.1948
 12.8052  23.2124
 12.8283  23.3551
 12.8513  23.3876
 12.8742  23.3785
 12.8972  23.4207
 12.9203  23.5713
 12.9433  23.7338
 12.9663  23.8983
 12.9893  23.9337
 13.0123  24.0512
 13.0353  24.1625
 13.0582  24.2499
 13.0813  24.4387
 13.1043  24.7623
 13.1273  25.0419
 13.1502  25.2624
 13.1732  25.5876
 13.1963  25.7996
 13.2193  25.915
 13.2423  26.2216
 13.2652  26.5252
 13.2883  26.839
 13.3113  27.0579
 13.3343  27.3117
 13.3573  27.6295
 13.3803  27.8972
 13.4033  28.1944
 13.4262  28.564
 13.4492  28.8075
 13.4723  29.0686
 13.4953  29.3327
 13.5183  29.5459
 13.5412  29.6008
 13.5643  29.7047
 13.5873  29.8231
 13.6103  29.8701
 13.6333  29.8891
 13.6563  29.7664
 13.6793  29.7525
 13.7022  29.6735
 13.7253  29.6579
 13.7483  29.6893
 13.7713  29.662
 13.7942  29.5763
 13.8172  29.5396
 13.8403  29.5739
 13.8633  29.7525
 13.8863  30.339
 13.9093  32.3326
 13.9323  35.7388
 13.9553  38.423
 13.9783  37.4307
 14.0013  33.8145
 14.0243  30.576
 14.0473  28.9143
 14.0703  28.3131
 14.0932  27.9447
 14.1163  27.627
 14.1393  27.4383
 14.1623  27.2214
 14.1852  27.0056
 14.2083  26.8307
 14.2313  26.7623
 14.2543  26.5435
 14.2773  26.4452
 14.3003  26.4308
 14.3233  26.3762
 14.3463  26.3146
 14.3692  26.2579
 14.3923  26.0634
 14.4153  25.9937
 14.4383  25.9397
 14.4612  25.8302
 14.4843  25.7368
 14.5073  25.6995
 14.5303  25.6193
 14.5533  25.6294
 14.5763  25.5569
 14.5993  25.519
 14.6223  25.4233
 14.6453  25.2189
 14.6683  25.1865
 14.6913  25.2982
 14.7143  25.2916
 14.7372  25.2098
 14.7603  25.0438
 14.7833  25.063
 14.8063  25.1495
 14.8293  25.2323
 14.8523  25.224
 14.8753  25.1379
 14.8983  25.1083
 14.9213  25.0859
 14.9443  25.0617
 14.9673  24.9603
 14.9903  24.9481
 15.0132  24.9226
 15.0363  24.9096
 15.0593  24.8281
 15.0823  24.8484
 15.1052  24.9299
 15.1283  25.1496
 15.1513  25.7396
 15.1743  26.4844
 15.1973  26.7608
 15.2203  26.4243
 15.2433  25.6878
 15.2663  25.1054
 15.2892  24.8032
 15.3123  24.741
 15.3353  24.7582
 15.3583  24.7538
 15.3812  24.6976
 15.4043  24.6536
 15.4273  24.5397
 15.4503  24.5812
 15.4733  24.5857
 15.4963  24.5814
 15.5193  24.6561
 15.5423  24.6747
 15.5653  24.634
 15.5883  24.5108
 15.6113  24.4235
 15.6343  24.4394
 15.6572  24.5217
 15.6803  24.626
 15.7033  24.7111
 15.7263  24.6206
 15.7492  24.5146
 15.7723  24.675
 15.7953  24.7981
 15.8183  24.7859
 15.8413  24.6767
 15.8643  24.6672
 15.8873  24.6647
 15.9103  24.6417
 15.9332  24.5391
 15.9563  24.4921
 15.9793  24.5386
 16.0023  24.6548
 16.0253  24.6875
 16.0482  24.6996
 16.0713  24.6833
 16.0943  24.7368
 16.1172  24.9413
 16.1403  25.0373
 16.1633  25.141
 16.1863  25.3092
 16.2093  25.7573
 16.2323  26.563
 16.2553  27.1947
 16.2783  26.846
 16.3012  25.7591
 16.3243  25.1147
 16.3472  24.8972
 16.3703  24.7558
 16.3933  24.8594
 16.4163  24.9355
 16.4393  24.8426
 16.4623  24.7036
 16.4853  24.6271
 16.5083  24.6604
 16.5312  24.6085
 16.5543  24.6381
 16.5773  24.65
 16.6002  24.6168
 16.6233  24.5782
 16.6463  24.5813
 16.6693  24.6415
 16.6923  24.6433
 16.7153  24.5917
 16.7383  24.5097
 16.7613  24.5265
 16.7843  24.4664
 16.8073  24.4171
 16.8303  24.4482
 16.8533  24.4675
 16.8763  24.4068
 16.8992  24.2795
 16.9223  24.2706
 16.9453  24.3301
 16.9683  24.3448
 16.9913  24.3273
 17.0143  24.3713
 17.0373  24.3504
 17.0603  24.3327
 17.0832  24.351
 17.1063  24.3094
 17.1293  24.2776
 17.1522  24.2469
 17.1753  24.1937
 17.1983  24.2408
 17.2213  24.2422
 17.2443  24.2516
 17.2673  24.1585
 17.2903  24.1304
 17.3133  24.1578
 17.3362  24.1601
 17.3593  24.1094
 17.3823  24.0616
 17.4053  24.0206
 17.4283  24.1645
 17.4513  24.1311
 17.4743  24.0342
 17.4973  23.9537
 17.5203  23.9283
 17.5433  23.9818
 17.5663  24.0543
 17.5893  24.0684
 17.6123  24.079
 17.6352  24.0374
 17.6583  23.8758
 17.6813  23.8947
 17.7042  23.9179
 17.7273  23.8941
 17.7503  23.7983
 17.7733  23.8956
 17.7963  23.9372
 17.8193  23.8942
 17.8423  23.9124
 17.8653  23.9612
 17.8882  24.0144
 17.9113  24.0359
 17.9343  24.0736
 17.9573  24.2782
 17.9803  24.6189
 18.0033  25.2248
 18.0263  25.7448
 18.0493  26.4995
 18.0723  29.8023
 18.0953  33.2391
 18.1183  34.1992
 18.1413  31.1486
 18.1643  27.117
 18.1872  25.5103
 18.2103  24.8354
 18.2333  24.2071
 18.2563  23.9983
 18.2793  23.9026
 18.3023  23.9552
 18.3253  23.8916
 18.3483  23.8271
 18.3712  23.8197
 18.3943  23.6408
 18.4173  23.6185
 18.4402  23.655
 18.4633  23.719
 18.4863  23.7121
 18.5093  23.6625
 18.5323  23.5953
 18.5553  23.5747
 18.5783  23.5553
 18.6013  23.54
 18.6242  23.5335
 18.6473  23.5362
 18.6703  23.4274
 18.6933  23.5124
 18.7163  23.6028
 18.7392  23.5701
 18.7623  23.5724
 18.7853  23.5482
 18.8083  23.5526
 18.8313  23.6021
 18.8543  23.552
 18.8773  23.4932
 18.9003  23.5259
 18.9232  23.5844
 18.9463  23.6781
 18.9693  23.5711
 18.9922  23.5317
 19.0153  23.5926
 19.0383  23.6653
 19.0613  23.7024
 19.0843  23.6528
 19.1073  23.5961
 19.1303  23.6325
 19.1533  23.6153
 19.1762  23.5232
 19.1993  23.5594
 19.2223  23.5372
 19.2453  23.5079
 19.2683  23.5705
 19.2913  23.5145
 19.3143  23.5851
 19.3373  23.6828
 19.3603  23.6746
 19.3833  23.5897
 19.4062  23.6132
 19.4293  23.6309
 19.4523  23.7017
 19.4752  23.744
 19.4983  23.7021
 19.5213  23.7159
 19.5443  23.7779
 19.5673  23.7449
 19.5903  23.7949
 19.6133  23.8912
 19.6363  24.141
 19.6593  24.8114
 19.6823  26.1836
 19.7053  27.6326
 19.7283  27.8783
 19.7513  27.0045
 19.7742  26.0265
 19.7973  25.9774
 19.8203  26.797
 19.8433  27.9775
 19.8663  28.5917
 19.8893  28.1855
 19.9123  26.5578
 19.9353  25.0664
 19.9582  24.3666
 19.9813  24.0747
 20.0043  23.9106
 20.0272  23.755
 20.0503  23.7293
 20.0733  23.7058
 20.0963  23.7925
 20.1193  23.8838
 20.1423  23.8632
 20.1653  23.8148
 20.1883  23.7481
 20.2112  23.6921
 20.2343  23.7286
 20.2573  23.792
 20.2803  23.8145
 20.3033  23.7554
 20.3263  23.7455
 20.3493  23.8137
 20.3723  23.7751
 20.3953  23.8343
 20.4183  23.899
 20.4413  23.9134
 20.4643  23.8556
 20.4873  23.7666
 20.5102  23.7559
 20.5333  23.7625
 20.5563  23.864
 20.5792  23.9603
 20.6023  24.1253
 20.6253  24.2034
 20.6483  24.255
 20.6713  24.4718
 20.6943  25.2736
 20.7173  27.0711
 20.7403  29.8205
 20.7632  31.7582
 20.7863  30.4914
 20.8093  27.4096
 20.8323  25.384
 20.8553  24.5934
 20.8783  24.4629
 20.9013  24.4012
 20.9243  24.2078
 20.9473  24.0708
 20.9703  23.9782
 20.9933  24.0276
 21.0163  24.0359
 21.0393  24.0185
 21.0622  23.9635
 21.0853  23.9765
 21.1083  23.9384
 21.1313  23.973
 21.1543  23.8541
 21.1773  23.9343
 21.2003  23.9647
 21.2233  23.9586
 21.2462  23.8902
 21.2693  23.8221
 21.2923  23.8421
 21.3152  23.8482
 21.3383  23.8936
 21.3613  24.0095
 21.3843  23.9637
 21.4073  23.9491
 21.4303  24.0529
 21.4533  23.9827
 21.4763  23.917
 21.4992  23.9187
 21.5223  23.9686
 21.5453  24.0011
 21.5683  23.9667
 21.5913  24.0316
 21.6142  24.0503
 21.6373  24.0367
 21.6603  24.0631
 21.6833  24.1375
 21.7063  24.1035
 21.7293  24.1668
 21.7523  24.1479
 21.7753  24.0731
 21.7982  24.0234
 21.8213  24.0468
 21.8443  24.0131
 21.8672  24.0605
 21.8903  24.1824
 21.9133  24.2211
 21.9363  24.2459
 21.9593  24.271
 21.9823  24.2717
 22.0053  24.3104
 22.0283  24.3321
 22.0512  24.3105
 22.0743  24.197
 22.0973  24.2336
 22.1203  24.3544
 22.1433  24.408
 22.1663  24.3521
 22.1893  24.2815
 22.2123  24.2725
 22.2353  24.3575
 22.2583  24.4156
 22.2813  24.4611
 22.3043  24.6289
 22.3273  24.6275
 22.3502  24.5176
 22.3733  24.4706
 22.3963  24.4616
 22.4193  24.4384
 22.4423  24.5464
 22.4653  24.6592
 22.4883  24.7267
 22.5113  24.7854
 22.5343  24.8361
 22.5573  24.8169
 22.5803  24.7662
 22.6033  24.8335
 22.6263  24.97
 22.6493  24.9734
 22.6723  24.9705
 22.6953  25.177
 22.7183  25.1682
 22.7413  25.1493
 22.7643  25.2413
 22.7873  25.2681
 22.8103  25.3561
 22.8333  25.462
 22.8563  25.574
 22.8793  25.7639
 22.9022  25.8494
 22.9253  25.965
 22.9483  26.0798
 22.9713  26.2913
 22.9943  26.4808