File: test-data-xrd/xrd-map-34-ID-E/Data_0072.chi
F:\20151113_APS_34IDE\\Brian\Particle1\OCV\Data_0072.tif
2-Theta Angle (Degrees)
Intensity
       2000
 0.01725  0.0000000E+00
 0.04025  0.0000000E+00
 0.06325  0.0000000E+00
 0.08625  0.0000000E+00
 0.10925  0.0000000E+00
 0.13225  0.0000000E+00
 0.15525  0.0000000E+00
 0.17825  0.0000000E+00
 0.20125  0.0000000E+00
 0.22425  0.0000000E+00
 0.24725  0.0000000E+00
 0.27025  0.0000000E+00
 0.29325  0.0000000E+00
 0.31625  0.0000000E+00
 0.33925  0.0000000E+00
 0.36225  0.0000000E+00
 0.38525  0.0000000E+00
 0.40825  0.0000000E+00
 0.43125  0.0000000E+00
 0.45425  0.0000000E+00
 0.47725  0.0000000E+00
 0.50025  0.0000000E+00
 0.52325  0.0000000E+00
 0.54625  0.0000000E+00
 0.56925  0.0000000E+00
 0.59225  0.0000000E+00
 0.61525  0.0000000E+00
 0.63825  0.0000000E+00
 0.66125  0.0000000E+00
 0.68425  0.0000000E+00
 0.70725  0.0000000E+00
 0.73025  0.0000000E+00
 0.75325  0.0000000E+00
 0.77625  0.0000000E+00
 0.79925  0.0000000E+00
 0.82225  0.0000000E+00
 0.84525  0.0000000E+00
 0.86825  0.0000000E+00
 0.89125  0.0000000E+00
 0.91425  0.0000000E+00
 0.93725  0.0000000E+00
 0.96025  0.0000000E+00
 0.98325  0.0000000E+00
 1.00625  0.0000000E+00
 1.02925  0.0000000E+00
 1.05225  0.0000000E+00
 1.07525  0.0000000E+00
 1.09825  0.0000000E+00
 1.12125  0.0000000E+00
 1.14425  0.0000000E+00
 1.16725  0.0000000E+00
 1.19025  0.0000000E+00
 1.21325  0.0000000E+00
 1.23625  0.0000000E+00
 1.25925  0.0000000E+00
 1.28225  0.0000000E+00
 1.30525  0.0000000E+00
 1.32825  0.0000000E+00
 1.35125  0.0000000E+00
 1.37425  0.0000000E+00
 1.39725  0.0000000E+00
 1.42025  0.0000000E+00
 1.44325  0.0000000E+00
 1.46625  0.0000000E+00
 1.48925  0.0000000E+00
 1.51225  0.0000000E+00
 1.53525  0.0000000E+00
 1.55825  0.0000000E+00
 1.58125  0.0000000E+00
 1.60425  0.0000000E+00
 1.62725  0.0000000E+00
 1.65025  0.0000000E+00
 1.67325  0.0000000E+00
 1.69625  0.0000000E+00
 1.71925  0.0000000E+00
 1.74225  0.0000000E+00
 1.76525  0.0000000E+00
 1.78825  0.0000000E+00
 1.81125  0.0000000E+00
 1.83425  0.0000000E+00
 1.85725  0.0000000E+00
 1.88025  0.0000000E+00
 1.90325  0.0000000E+00
 1.92625  0.0000000E+00
 1.94925  0.0000000E+00
 1.97225  0.0000000E+00
 1.99525  0.0000000E+00
 2.01825  0.0000000E+00
 2.04125  0.0000000E+00
 2.06425  0.0000000E+00
 2.08725  0.0000000E+00
 2.11025  0.0000000E+00
 2.13325  0.0000000E+00
 2.15625  0.0000000E+00
 2.17925  0.0000000E+00
 2.20225  0.0000000E+00
 2.22525  0.0000000E+00
 2.24825  0.0000000E+00
 2.27125  0.0000000E+00
 2.29425  0.0000000E+00
 2.31725  0.0000000E+00
 2.34025  0.0000000E+00
 2.36325  0.0000000E+00
 2.38625  0.0000000E+00
 2.40925  0.0000000E+00
 2.43225  0.0000000E+00
 2.45525  0.0000000E+00
 2.47825  0.0000000E+00
 2.50125  0.0000000E+00
 2.52425  0.0000000E+00
 2.54725  0.0000000E+00
 2.57025  0.0000000E+00
 2.59325  0.0000000E+00
 2.61625  0.0000000E+00
 2.63925  0.0000000E+00
 2.66225  0.0000000E+00
 2.68525  0.0000000E+00
 2.70825  0.0000000E+00
 2.73125  0.0000000E+00
 2.75425  0.0000000E+00
 2.77725  0.0000000E+00
 2.80025  0.0000000E+00
 2.82325  30.6888
 2.84625  33.677
 2.86925  34.3325
 2.89225  34.7408
 2.91525  34.9829
 2.93825  35.0886
 2.96125  35.275
 2.98425  34.8342
 3.00725  34.9002
 3.03025  34.6236
 3.05325  35.3619
 3.07625  35.3057
 3.09925  35.2892
 3.12225  34.9494
 3.14525  35.1779
 3.16825  35.2975
 3.19125  35.2512
 3.21425  35.493
 3.23725  35.3299
 3.26025  35.3112
 3.28325  35.4343
 3.30625  35.2013
 3.32925  34.9959
 3.35225  34.877
 3.37525  34.8761
 3.39825  34.4926
 3.42125  34.4978
 3.44425  34.4605
 3.46725  34.4778
 3.49025  34.3413
 3.51325  33.9429
 3.53625  33.5018
 3.55925  33.1323
 3.58225  32.9208
 3.60525  33.063
 3.62825  32.8861
 3.65125  33.051
 3.67425  32.9742
 3.69725  32.6437
 3.72025  32.0433
 3.74325  32.3639
 3.76625  32.5056
 3.78925  32.5953
 3.81225  32.1734
 3.83525  32.1367
 3.85825  32.219
 3.88125  32.5719
 3.90425  32.5979
 3.92725  32.6587
 3.95025  32.6414
 3.97325  32.5722
 3.99625  32.6699
 4.01925  32.6409
 4.04225  32.4445
 4.06525  32.4872
 4.08825  32.1774
 4.11125  31.9131
 4.13425  32.0196
 4.15725  32.1231
 4.18025  31.6147
 4.20325  31.4216
 4.22625  31.6046
 4.24925  31.6898
 4.27225  31.6076
 4.29525  31.4976
 4.31825  31.8486
 4.34125  32.1379
 4.36425  32.1875
 4.38725  32.1167
 4.41025  32.1994
 4.43325  32.3201
 4.45625  32.3948
 4.47925  32.3763
 4.50225  32.2101
 4.52525  31.9876
 4.54825  32.0531
 4.57125  32.3049
 4.59425  32.3639
 4.61725  32.1738
 4.64025  32.3443
 4.66325  32.6713
 4.68625  32.6788
 4.70925  32.8032
 4.73225  32.529
 4.75525  32.2671
 4.77825  32.2756
 4.80125  32.3971
 4.82425  32.4718
 4.84725  32.511
 4.87025  32.5704
 4.89325  32.5497
 4.91625  32.6406
 4.93925  32.6393
 4.96225  32.7057
 4.98525  32.677
 5.00825  32.7729
 5.03125  32.9264
 5.05425  32.853
 5.07725  32.8313
 5.10025  32.8564
 5.12325  32.9689
 5.14625  33.2068
 5.16925  33.3526
 5.19225  33.415
 5.21525  33.2582
 5.23825  33.2633
 5.26125  33.4474
 5.28425  33.5174
 5.30725  33.6255
 5.33025  33.6714
 5.35325  33.9554
 5.37625  34.2226
 5.39925  34.5258
 5.42225  34.5566
 5.44525  34.5364
 5.46825  34.629
 5.49125  34.667
 5.51425  34.6298
 5.53725  34.751
 5.56025  34.8326
 5.58325  35.0089
 5.60625  35.1603
 5.62925  35.0225
 5.65225  34.947
 5.67525  34.9324
 5.69825  35.0889
 5.72125  35.4567
 5.74425  35.5946
 5.76725  35.3975
 5.79025  35.5809
 5.81325  35.7094
 5.83625  35.9364
 5.85925  36.1033
 5.88225  36.4536
 5.90525  37.317
 5.92825  39.8818
 5.95125  48.7733
 5.97425  61.3097
 5.99725  67.5162
 6.02025  53.8184
 6.04325  44.3717
 6.06625  39.5233
 6.08925  38.0752
 6.11225  37.6995
 6.13525  37.2242
 6.15825  36.8537
 6.18125  36.9507
 6.20425  37.0267
 6.22725  37.0824
 6.25025  37.1168
 6.27325  37.3547
 6.29625  37.3857
 6.31925  37.3632
 6.34225  37.5626
 6.36525  37.8606
 6.38825  38.0891
 6.41125  38.1027
 6.43425  37.9828
 6.45725  38.2097
 6.48025  38.6097
 6.50325  38.9685
 6.52625  38.9173
 6.54925  39.0815
 6.57225  39.1042
 6.59525  39.0883
 6.61825  39.381
 6.64125  39.694
 6.66425  39.9657
 6.68725  39.8899
 6.71025  40.0781
 6.73325  40.2757
 6.75625  40.3548
 6.77925  40.7104
 6.80225  40.9844
 6.82525  41.1248
 6.84825  41.2923
 6.87125  41.4649
 6.89425  41.718
 6.91725  41.6382
 6.94025  41.5845
 6.96325  41.6944
 6.98625  41.7279
 7.00925  41.8599
 7.03225  42.0714
 7.05525  42.2619
 7.07825  42.4286
 7.10125  42.5866
 7.12425  42.7165
 7.14725  42.8235
 7.17025  42.8636
 7.19325  42.8827
 7.21625  43.0983
 7.23925  42.9977
 7.26225  43.017
 7.28525  43.4132
 7.30825  43.3921
 7.33125  43.3703
 7.35425  43.464
 7.37725  43.5049
 7.40025  43.4351
 7.42325  43.4613
 7.44625  43.5852
 7.46925  43.6099
 7.49225  43.6184
 7.51525  43.7298
 7.53825  43.876
 7.56125  44.0567
 7.58425  44.1319
 7.60725  44.0579
 7.63025  43.9183
 7.65325  43.7943
 7.67625  43.7992
 7.69925  43.7349
 7.72225  43.686
 7.74525  43.6955
 7.76825  43.5604
 7.79125  43.3572
 7.81425  43.3531
 7.83725  43.4459
 7.86025  43.534
 7.88325  43.3572
 7.90625  43.2699
 7.92925  43.2363
 7.95225  43.2128
 7.97525  43.1619
 7.99825  43.1981
 8.02125  43.0944
 8.04425  42.7557
 8.06725  42.4798
 8.09025  42.3383
 8.11325  42.2123
 8.13625  41.9385
 8.15925  41.5966
 8.18225  41.3867
 8.20525  41.2184
 8.22825  40.9714
 8.25125  41.0321
 8.27425  40.8655
 8.29725  40.4576
 8.32025  40.0879
 8.34325  39.9556
 8.36625  39.7542
 8.38925  39.2224
 8.41225  38.7997
 8.43525  38.5485
 8.45825  38.2993
 8.48125  38.1819
 8.50425  37.8769
 8.52725  37.4794
 8.55025  36.9371
 8.57325  36.5347
 8.59625  36.2132
 8.61925  35.9506
 8.64225  35.6591
 8.66525  35.2218
 8.68825  34.8465
 8.71125  34.4585
 8.73425  34.0722
 8.75725  33.7928
 8.78025  33.4732
 8.80325  33.1409
 8.82625  32.9801
 8.84925  32.6758
 8.87225  32.2945
 8.89525  31.9283
 8.91825  31.6214
 8.94125  31.279
 8.96425  31.0725
 8.98725  30.9227
 9.01025  30.5343
 9.03325  30.1272
 9.05625  29.7501
 9.07925  29.4377
 9.10225  29.2884
 9.12525  29.1979
 9.14825  29.0232
 9.17125  28.7791
 9.19425  28.4765
 9.21725  28.2623
 9.24025  28.0779
 9.26325  27.8953
 9.28625  27.7474
 9.30925  27.5581
 9.33225  27.4337
 9.35525  27.2598
 9.37825  27.0837
 9.40125  26.9178
 9.42425  26.679
 9.44725  26.5594
 9.47025  26.4694
 9.49325  26.3547
 9.51625  26.0991
 9.53925  25.9369
 9.56225  25.8928
 9.58525  25.8599
 9.60825  25.7904
 9.63125  25.711
 9.65425  25.4894
 9.67725  25.1915
 9.70025  25.0153
 9.72325  25.1063
 9.74625  25.1174
 9.76925  25.1164
 9.79225  25.0139
 9.81525  24.916
 9.83825  24.8366
 9.86125  24.6414
 9.88425  24.502
 9.90725  24.3878
 9.93025  24.4263
 9.95325  24.313
 9.97625  24.3594
 9.99925  24.2832
 10.0222  24.0903
 10.0453  23.9506
 10.0683  23.9322
 10.0913  23.8942
 10.1143  23.8915
 10.1373  23.775
 10.1603  23.7507
 10.1832  23.7406
 10.2063  23.6452
 10.2293  23.5126
 10.2523  23.38
 10.2752  23.4223
 10.2982  23.4477
 10.3213  23.3457
 10.3443  23.1718
 10.3673  23.1176
 10.3902  23.1976
 10.4133  23.1756
 10.4363  23.0776
 10.4593  23.0388
 10.4823  23.184
 10.5053  23.2015
 10.5283  23.1461
 10.5512  23.0967
 10.5742  23.0945
 10.5973  22.9547
 10.6203  22.9464
 10.6433  22.9387
 10.6662  22.933
 10.6893  22.7687
 10.7123  22.7114
 10.7353  22.7587
 10.7583  22.8526
 10.7813  22.7536
 10.8043  22.7329
 10.8272  22.6544
 10.8503  22.607
 10.8733  22.6813
 10.8963  22.6017
 10.9192  22.6638
 10.9422  22.6068
 10.9653  22.5884
 10.9883  22.5187
 11.0113  22.5232
 11.0343  22.4856
 11.0573  22.3422
 11.0803  22.3069
 11.1033  22.4196
 11.1263  22.5465
 11.1493  22.6233
 11.1723  22.5584
 11.1953  22.4292
 11.2182  22.3491
 11.2413  22.2928
 11.2643  22.2619
 11.2873  22.3529
 11.3102  22.3445
 11.3333  22.3853
 11.3563  22.4155
 11.3793  22.6485
 11.4023  22.9405
 11.4253  22.9363
 11.4483  22.8338
 11.4713  22.8754
 11.4942  22.9633
 11.5173  23.1854
 11.5403  24.0581
 11.5633  25.7918
 11.5862  27.969
 11.6093  28.7351
 11.6323  27.1887
 11.6553  24.8472
 11.6783  23.4003
 11.7013  22.8226
 11.7243  22.6133
 11.7473  22.558
 11.7703  22.5245
 11.7933  22.5397
 11.8163  22.6546
 11.8393  22.7002
 11.8622  22.7186
 11.8853  22.7744
 11.9083  23.3527
 11.9313  25.1345
 11.9543  29.3279
 11.9773  31.3716
 12.0003  29.4736
 12.0233  26.2701
 12.0463  25.0974
 12.0693  25.9752
 12.0923  27.3103
 12.1153  27.1801
 12.1382  25.6171
 12.1613  24.0411
 12.1843  23.1844
 12.2073  22.7149
 12.2302  22.6337
 12.2533  22.6898
 12.2763  22.7135
 12.2993  22.6713
 12.3223  22.5899
 12.3453  22.6137
 12.3683  22.5773
 12.3913  22.574
 12.4142  22.4829
 12.4373  22.4952
 12.4603  22.5286
 12.4833  22.5894
 12.5062  22.6546
 12.5292  22.6399
 12.5523  22.694
 12.5753  22.6931
 12.5983  22.7456
 12.6212  22.7177
 12.6443  22.7033
 12.6673  22.6646
 12.6903  22.71
 12.7133  22.8106
 12.7363  22.8472
 12.7593  22.9754
 12.7822  23.0801
 12.8052  23.1385
 12.8283  23.2545
 12.8513  23.2433
 12.8742  23.2888
 12.8972  23.4232
 12.9203  23.579
 12.9433  23.7311
 12.9663  23.7663
 12.9893  23.8361
 13.0123  24.0045
 13.0353  24.2059
 13.0582  24.3462
 13.0813  24.4919
 13.1043  24.7308
 13.1273  24.9864
 13.1502  25.1637
 13.1732  25.3463
 13.1963  25.6134
 13.2193  25.9085
 13.2423  26.2106
 13.2652  26.4839
 13.2883  26.7564
 13.3113  26.9286
 13.3343  27.1705
 13.3573  27.4433
 13.3803  27.6942
 13.4033  28.0011
 13.4262  28.2559
 13.4492  28.5346
 13.4723  28.7807
 13.4953  29.0795
 13.5183  29.2667
 13.5412  29.4442
 13.5643  29.6001
 13.5873  29.6588
 13.6103  29.6813
 13.6333  29.8134
 13.6563  29.8104
 13.6793  29.8943
 13.7022  29.8467
 13.7253  29.8711
 13.7483  29.8526
 13.7713  29.965
 13.7942  30.2082
 13.8172  30.4777
 13.8403  30.9703
 13.8633  32.267
 13.8863  35.3023
 13.9093  42.8561
 13.9323  58.6073
 13.9553  82.2762
 13.9783  84.5145
 14.0013  62.9179
 14.0243  43.2191
 14.0473  33.7253
 14.0703  30.3171
 14.0932  29.0281
 14.1163  28.3607
 14.1393  27.9091
 14.1623  27.4868
 14.1852  27.2044
 14.2083  27.0615
 14.2313  26.9671
 14.2543  26.7715
 14.2773  26.5438
 14.3003  26.4946
 14.3233  26.4303
 14.3463  26.3225
 14.3692  26.3079
 14.3923  26.0808
 14.4153  25.8741
 14.4383  25.8205
 14.4612  25.7648
 14.4843  25.6269
 14.5073  25.5925
 14.5303  25.6967
 14.5533  25.6286
 14.5763  25.5046
 14.5993  25.3757
 14.6223  25.3159
 14.6453  25.3033
 14.6683  25.2453
 14.6913  25.1204
 14.7143  24.9901
 14.7372  24.9151
 14.7603  24.9065
 14.7833  24.9181
 14.8063  24.9558
 14.8293  24.963
 14.8523  24.958
 14.8753  24.8461
 14.8983  24.8929
 14.9213  24.9128
 14.9443  24.8411
 14.9673  24.7416
 14.9903  24.9004
 15.0132  24.9733
 15.0363  24.9893
 15.0593  24.9186
 15.0823  24.8643
 15.1052  24.9187
 15.1283  25.1228
 15.1513  25.8662
 15.1743  27.0412
 15.1973  27.6958
 15.2203  27.3467
 15.2433  26.2407
 15.2663  25.2173
 15.2892  24.8133
 15.3123  24.7268
 15.3353  24.5902
 15.3583  24.4741
 15.3812  24.5687
 15.4043  24.6062
 15.4273  24.5485
 15.4503  24.5126
 15.4733  24.5543
 15.4963  24.5748
 15.5193  24.5324
 15.5423  24.4599
 15.5653  24.4107
 15.5883  24.4498
 15.6113  24.4508
 15.6343  24.4257
 15.6572  24.4518
 15.6803  24.4876
 15.7033  24.5472
 15.7263  24.5147
 15.7492  24.4625
 15.7723  24.4801
 15.7953  24.6243
 15.8183  24.7645
 15.8413  24.611
 15.8643  24.4998
 15.8873  24.5858
 15.9103  24.6179
 15.9332  24.5332
 15.9563  24.5285
 15.9793  24.5733
 16.0023  24.5774
 16.0253  24.5652
 16.0482  24.6962
 16.0713  24.6715
 16.0943  24.5778
 16.1172  24.7274
 16.1403  24.751
 16.1633  24.8331
 16.1863  24.9133
 16.2093  25.1549
 16.2323  25.5246
 16.2553  25.8315
 16.2783  25.7864
 16.3012  25.3356
 16.3243  24.9062
 16.3472  24.7465
 16.3703  24.625
 16.3933  24.6399
 16.4163  24.5546
 16.4393  24.5298
 16.4623  24.5019
 16.4853  24.5749
 16.5083  24.6382
 16.5312  24.5977
 16.5543  24.5514
 16.5773  24.5057
 16.6002  24.5044
 16.6233  24.6121
 16.6463  24.5909
 16.6693  24.5783
 16.6923  24.5499
 16.7153  24.5221
 16.7383  24.4968
 16.7613  24.4205
 16.7843  24.4129
 16.8073  24.456
 16.8303  24.4219
 16.8533  24.3773
 16.8763  24.4395
 16.8992  24.3497
 16.9223  24.2864
 16.9453  24.2138
 16.9683  24.2265
 16.9913  24.2911
 17.0143  24.3072
 17.0373  24.2448
 17.0603  24.1224
 17.0832  24.1981
 17.1063  24.247
 17.1293  24.1971
 17.1522  24.1442
 17.1753  24.0942
 17.1983  24.2072
 17.2213  24.222
 17.2443  24.107
 17.2673  24.0177
 17.2903  24.0281
 17.3133  24.0587
 17.3362  24.1033
 17.3593  24.0683
 17.3823  24.0089
 17.4053  24.015
 17.4283  24.0644
 17.4513  24.0795
 17.4743  24.1494
 17.4973  24.0513
 17.5203  23.817
 17.5433  23.8768
 17.5663  23.8943
 17.5893  23.8904
 17.6123  23.8443
 17.6352  23.8173
 17.6583  23.7674
 17.6813  23.9225
 17.7042  23.9609
 17.7273  23.8102
 17.7503  23.7442
 17.7733  23.8168
 17.7963  23.7718
 17.8193  23.6352
 17.8423  23.6945
 17.8653  23.7829
 17.8882  23.8284
 17.9113  23.8539
 17.9343  23.9875
 17.9573  24.1552
 17.9803  24.3067
 18.0033  24.7105
 18.0263  25.1013
 18.0493  25.7745
 18.0723  26.8054
 18.0953  28.1288
 18.1183  28.906
 18.1413  28.0628
 18.1643  26.2465
 18.1872  24.8299
 18.2103  24.2105
 18.2333  23.9093
 18.2563  23.7298
 18.2793  23.6486
 18.3023  23.6315
 18.3253  23.7541
 18.3483  23.8183
 18.3712  23.7641
 18.3943  23.6961
 18.4173  23.7248
 18.4402  23.6806
 18.4633  23.6787
 18.4863  23.6393
 18.5093  23.5973
 18.5323  23.5787
 18.5553  23.477
 18.5783  23.4784
 18.6013  23.5438
 18.6242  23.4918
 18.6473  23.5111
 18.6703  23.4245
 18.6933  23.4418
 18.7163  23.5021
 18.7392  23.5574
 18.7623  23.5578
 18.7853  23.62
 18.8083  23.6237
 18.8313  23.5483
 18.8543  23.5312
 18.8773  23.5552
 18.9003  23.524
 18.9232  23.5238
 18.9463  23.579
 18.9693  23.4567
 18.9922  23.4107
 19.0153  23.5985
 19.0383  23.5819
 19.0613  23.5844
 19.0843  23.6264
 19.1073  23.6113
 19.1303  23.5978
 19.1533  23.6141
 19.1762  23.5806
 19.1993  23.5405
 19.2223  23.5103
 19.2453  23.5063
 19.2683  23.6686
 19.2913  23.6034
 19.3143  23.6263
 19.3373  23.7026
 19.3603  23.6417
 19.3833  23.6655
 19.4062  23.7085
 19.4293  23.7851
 19.4523  23.7729
 19.4752  23.769
 19.4983  23.8202
 19.5213  23.7729
 19.5443  23.8442
 19.5673  23.8218
 19.5903  23.7956
 19.6133  23.9838
 19.6363  24.3226
 19.6593  24.8814
 19.6823  25.6962
 19.7053  27.1765
 19.7283  28.3014
 19.7513  28.2664
 19.7742  27.0058
 19.7973  26.9341
 19.8203  28.5001
 19.8433  30.7707
 19.8663  31.9994
 19.8893  31.4372
 19.9123  28.4894
 19.9353  26.0599
 19.9582  24.7635
 19.9813  24.3432
 20.0043  24.2395
 20.0272  24.1784
 20.0503  24.1056
 20.0733  24.0173
 20.0963  23.9325
 20.1193  23.9573
 20.1423  23.9442
 20.1653  23.8959
 20.1883  23.8262
 20.2112  23.7568
 20.2343  23.7871
 20.2573  23.7803
 20.2803  23.7844
 20.3033  23.788
 20.3263  23.6633
 20.3493  23.7226
 20.3723  23.7981
 20.3953  23.7942
 20.4183  23.7754
 20.4413  23.7978
 20.4643  23.8263
 20.4873  23.8326
 20.5102  23.7468
 20.5333  23.681
 20.5563  23.7334
 20.5792  23.8679
 20.6023  24.0609
 20.6253  24.1522
 20.6483  24.1247
 20.6713  24.2451
 20.6943  24.7767
 20.7173  25.7388
 20.7403  27.1287
 20.7632  28.4632
 20.7863  28.5838
 20.8093  27.5965
 20.8323  26.088
 20.8553  24.9358
 20.8783  24.3439
 20.9013  24.1791
 20.9243  24.1534
 20.9473  24.1512
 20.9703  23.9824
 20.9933  23.9958
 21.0163  24.0194
 21.0393  24.0358
 21.0622  24.0261
 21.0853  24.063
 21.1083  23.9717
 21.1313  23.8903
 21.1543  23.8494
 21.1773  23.9162
 21.2003  23.9488
 21.2233  23.952
 21.2462  23.9691
 21.2693  24.122
 21.2923  24.331
 21.3152  24.0806
 21.3383  23.8627
 21.3613  23.837
 21.3843  23.896
 21.4073  24.0019
 21.4303  24.0594
 21.4533  23.9853
 21.4763  23.9845
 21.4992  24.0419
 21.5223  24.0423
 21.5453  23.9906
 21.5683  23.9562
 21.5913  24.0501
 21.6142  24.1328
 21.6373  24.0882
 21.6603  24.051
 21.6833  24.1471
 21.7063  24.1444
 21.7293  24.1715
 21.7523  24.1269
 21.7753  24.1051
 21.7982  24.0988
 21.8213  24.1954
 21.8443  24.2796
 21.8672  24.2817
 21.8903  24.2809
 21.9133  24.2998
 21.9363  24.2653
 21.9593  24.2173
 21.9823  24.1703
 22.0053  24.1267
 22.0283  24.2271
 22.0512  24.3235
 22.0743  24.352
 22.0973  24.347
 22.1203  24.2889
 22.1433  24.3389
 22.1663  24.2636
 22.1893  24.3663
 22.2123  24.4777
 22.2353  24.5531
 22.2583  24.571
 22.2813  24.4919
 22.3043  24.4447
 22.3273  24.4663
 22.3502  24.4721
 22.3733  24.4859
 22.3963  24.5341
 22.4193  24.4896
 22.4423  24.5709
 22.4653  24.6844
 22.4883  24.6805
 22.5113  24.7571
 22.5343  24.849
 22.5573  24.8498
 22.5803  24.8542
 22.6033  24.8769
 22.6263  24.9409
 22.6493  24.928
 22.6723  25.0213
 22.6953  25.1942
 22.7183  25.2707
 22.7413  25.2733
 22.7643  25.3829
 22.7873  25.3528
 22.8103  25.4409
 22.8333  25.566
 22.8563  25.627
 22.8793  25.7133
 22.9022  25.811
 22.9253  25.9436
 22.9483  25.9319
 22.9713  26.142
 22.9943  26.4331