File: test-data-xrd/xrd-map-34-ID-E/Data_0074.chi
F:\20151113_APS_34IDE\\Brian\Particle1\OCV\Data_0074.tif
2-Theta Angle (Degrees)
Intensity
       2000
 0.01725  0.0000000E+00
 0.04025  0.0000000E+00
 0.06325  0.0000000E+00
 0.08625  0.0000000E+00
 0.10925  0.0000000E+00
 0.13225  0.0000000E+00
 0.15525  0.0000000E+00
 0.17825  0.0000000E+00
 0.20125  0.0000000E+00
 0.22425  0.0000000E+00
 0.24725  0.0000000E+00
 0.27025  0.0000000E+00
 0.29325  0.0000000E+00
 0.31625  0.0000000E+00
 0.33925  0.0000000E+00
 0.36225  0.0000000E+00
 0.38525  0.0000000E+00
 0.40825  0.0000000E+00
 0.43125  0.0000000E+00
 0.45425  0.0000000E+00
 0.47725  0.0000000E+00
 0.50025  0.0000000E+00
 0.52325  0.0000000E+00
 0.54625  0.0000000E+00
 0.56925  0.0000000E+00
 0.59225  0.0000000E+00
 0.61525  0.0000000E+00
 0.63825  0.0000000E+00
 0.66125  0.0000000E+00
 0.68425  0.0000000E+00
 0.70725  0.0000000E+00
 0.73025  0.0000000E+00
 0.75325  0.0000000E+00
 0.77625  0.0000000E+00
 0.79925  0.0000000E+00
 0.82225  0.0000000E+00
 0.84525  0.0000000E+00
 0.86825  0.0000000E+00
 0.89125  0.0000000E+00
 0.91425  0.0000000E+00
 0.93725  0.0000000E+00
 0.96025  0.0000000E+00
 0.98325  0.0000000E+00
 1.00625  0.0000000E+00
 1.02925  0.0000000E+00
 1.05225  0.0000000E+00
 1.07525  0.0000000E+00
 1.09825  0.0000000E+00
 1.12125  0.0000000E+00
 1.14425  0.0000000E+00
 1.16725  0.0000000E+00
 1.19025  0.0000000E+00
 1.21325  0.0000000E+00
 1.23625  0.0000000E+00
 1.25925  0.0000000E+00
 1.28225  0.0000000E+00
 1.30525  0.0000000E+00
 1.32825  0.0000000E+00
 1.35125  0.0000000E+00
 1.37425  0.0000000E+00
 1.39725  0.0000000E+00
 1.42025  0.0000000E+00
 1.44325  0.0000000E+00
 1.46625  0.0000000E+00
 1.48925  0.0000000E+00
 1.51225  0.0000000E+00
 1.53525  0.0000000E+00
 1.55825  0.0000000E+00
 1.58125  0.0000000E+00
 1.60425  0.0000000E+00
 1.62725  0.0000000E+00
 1.65025  0.0000000E+00
 1.67325  0.0000000E+00
 1.69625  0.0000000E+00
 1.71925  0.0000000E+00
 1.74225  0.0000000E+00
 1.76525  0.0000000E+00
 1.78825  0.0000000E+00
 1.81125  0.0000000E+00
 1.83425  0.0000000E+00
 1.85725  0.0000000E+00
 1.88025  0.0000000E+00
 1.90325  0.0000000E+00
 1.92625  0.0000000E+00
 1.94925  0.0000000E+00
 1.97225  0.0000000E+00
 1.99525  0.0000000E+00
 2.01825  0.0000000E+00
 2.04125  0.0000000E+00
 2.06425  0.0000000E+00
 2.08725  0.0000000E+00
 2.11025  0.0000000E+00
 2.13325  0.0000000E+00
 2.15625  0.0000000E+00
 2.17925  0.0000000E+00
 2.20225  0.0000000E+00
 2.22525  0.0000000E+00
 2.24825  0.0000000E+00
 2.27125  0.0000000E+00
 2.29425  0.0000000E+00
 2.31725  0.0000000E+00
 2.34025  0.0000000E+00
 2.36325  0.0000000E+00
 2.38625  0.0000000E+00
 2.40925  0.0000000E+00
 2.43225  0.0000000E+00
 2.45525  0.0000000E+00
 2.47825  0.0000000E+00
 2.50125  0.0000000E+00
 2.52425  0.0000000E+00
 2.54725  0.0000000E+00
 2.57025  0.0000000E+00
 2.59325  0.0000000E+00
 2.61625  0.0000000E+00
 2.63925  0.0000000E+00
 2.66225  0.0000000E+00
 2.68525  0.0000000E+00
 2.70825  0.0000000E+00
 2.73125  0.0000000E+00
 2.75425  0.0000000E+00
 2.77725  0.0000000E+00
 2.80025  0.0000000E+00
 2.82325  33.7058
 2.84625  34.6794
 2.86925  35.9508
 2.89225  36.6462
 2.91525  36.8042
 2.93825  36.4408
 2.96125  36.0599
 2.98425  36.2116
 3.00725  36.4226
 3.03025  35.4732
 3.05325  34.4662
 3.07625  34.0514
 3.09925  34.9486
 3.12225  35.2903
 3.14525  35.1184
 3.16825  35.372
 3.19125  35.3424
 3.21425  34.7291
 3.23725  34.2081
 3.26025  34.3099
 3.28325  33.7093
 3.30625  33.0704
 3.32925  33.2348
 3.35225  33.8793
 3.37525  34.3902
 3.39825  34.2334
 3.42125  34.0418
 3.44425  34.213
 3.46725  34.1371
 3.49025  33.957
 3.51325  33.7217
 3.53625  33.516
 3.55925  33.403
 3.58225  33.4561
 3.60525  33.2328
 3.62825  33.0887
 3.65125  33.1109
 3.67425  33.0415
 3.69725  32.9964
 3.72025  32.6912
 3.74325  32.7136
 3.76625  33.26
 3.78925  33.034
 3.81225  32.6759
 3.83525  32.8459
 3.85825  32.7825
 3.88125  32.7169
 3.90425  32.4689
 3.92725  32.2952
 3.95025  32.2324
 3.97325  32.398
 3.99625  32.7734
 4.01925  33.0541
 4.04225  32.8494
 4.06525  32.6885
 4.08825  32.8635
 4.11125  32.5531
 4.13425  32.0516
 4.15725  32.1114
 4.18025  32.1541
 4.20325  32.3386
 4.22625  32.6164
 4.24925  32.363
 4.27225  32.1099
 4.29525  32.1732
 4.31825  32.0778
 4.34125  32.208
 4.36425  32.6074
 4.38725  32.8182
 4.41025  32.4594
 4.43325  32.2125
 4.45625  32.192
 4.47925  32.3357
 4.50225  32.474
 4.52525  32.4162
 4.54825  32.5683
 4.57125  32.8221
 4.59425  32.8774
 4.61725  32.851
 4.64025  32.8665
 4.66325  33.2185
 4.68625  33.0466
 4.70925  32.8073
 4.73225  32.6094
 4.75525  32.4369
 4.77825  32.3407
 4.80125  32.2626
 4.82425  32.425
 4.84725  32.6013
 4.87025  32.8726
 4.89325  32.8113
 4.91625  32.8121
 4.93925  32.8712
 4.96225  32.756
 4.98525  32.7291
 5.00825  32.7776
 5.03125  32.9952
 5.05425  33.1697
 5.07725  33.0964
 5.10025  33.0615
 5.12325  33.3342
 5.14625  33.5822
 5.16925  33.6265
 5.19225  33.6636
 5.21525  33.6028
 5.23825  33.6392
 5.26125  33.6716
 5.28425  33.8343
 5.30725  33.9503
 5.33025  33.8923
 5.35325  33.9459
 5.37625  34.0908
 5.39925  34.291
 5.42225  34.3357
 5.44525  34.3656
 5.46825  34.5468
 5.49125  34.554
 5.51425  34.5197
 5.53725  34.5717
 5.56025  34.5921
 5.58325  34.8414
 5.60625  35.0207
 5.62925  34.8994
 5.65225  34.8252
 5.67525  35.043
 5.69825  35.1576
 5.72125  35.1583
 5.74425  35.3179
 5.76725  35.3919
 5.79025  35.4936
 5.81325  35.3439
 5.83625  35.4356
 5.85925  35.6869
 5.88225  36.0793
 5.90525  36.5831
 5.92825  37.7765
 5.95125  40.4715
 5.97425  43.7869
 5.99725  44.8618
 6.02025  42.239
 6.04325  39.0384
 6.06625  37.1611
 6.08925  36.5846
 6.11225  36.4408
 6.13525  36.4823
 6.15825  36.5736
 6.18125  36.8335
 6.20425  37.1551
 6.22725  37.1521
 6.25025  37.1026
 6.27325  37.3311
 6.29625  37.6235
 6.31925  37.9544
 6.34225  38.1774
 6.36525  38.3129
 6.38825  38.3288
 6.41125  38.3984
 6.43425  38.454
 6.45725  38.6247
 6.48025  38.7516
 6.50325  39.0091
 6.52625  39.1638
 6.54925  39.1928
 6.57225  39.3128
 6.59525  39.4553
 6.61825  39.6968
 6.64125  39.955
 6.66425  40.0796
 6.68725  39.9932
 6.71025  40.1437
 6.73325  40.3728
 6.75625  40.3967
 6.77925  40.7582
 6.80225  41.1353
 6.82525  41.536
 6.84825  41.6262
 6.87125  41.6601
 6.89425  41.5783
 6.91725  41.4884
 6.94025  41.7043
 6.96325  42.0002
 6.98625  42.3017
 7.00925  42.3157
 7.03225  42.2979
 7.05525  42.4714
 7.07825  42.4917
 7.10125  42.5894
 7.12425  42.8288
 7.14725  42.9982
 7.17025  43.0504
 7.19325  43.001
 7.21625  42.9295
 7.23925  42.9468
 7.26225  43.0829
 7.28525  43.3862
 7.30825  43.6542
 7.33125  43.7702
 7.35425  43.6419
 7.37725  43.5958
 7.40025  43.6361
 7.42325  43.797
 7.44625  43.7664
 7.46925  43.8454
 7.49225  44.0341
 7.51525  44.1107
 7.53825  44.2149
 7.56125  44.4526
 7.58425  44.5723
 7.60725  44.4995
 7.63025  44.3296
 7.65325  44.1571
 7.67625  43.9735
 7.69925  44.1055
 7.72225  44.3151
 7.74525  44.3241
 7.76825  44.3977
 7.79125  44.5039
 7.81425  44.3639
 7.83725  44.0142
 7.86025  44.1824
 7.88325  44.0058
 7.90625  43.7881
 7.92925  43.6466
 7.95225  43.4665
 7.97525  43.3877
 7.99825  43.4376
 8.02125  43.3943
 8.04425  43.4115
 8.06725  43.1735
 8.09025  42.8263
 8.11325  42.6546
 8.13625  42.5296
 8.15925  42.3356
 8.18225  42.1201
 8.20525  41.9525
 8.22825  41.5942
 8.25125  41.3012
 8.27425  40.9369
 8.29725  40.6658
 8.32025  40.5089
 8.34325  40.3024
 8.36625  40.1214
 8.38925  39.7847
 8.41225  39.3818
 8.43525  38.9788
 8.45825  38.5116
 8.48125  38.1702
 8.50425  37.8025
 8.52725  37.6058
 8.55025  37.2004
 8.57325  36.7893
 8.59625  36.4462
 8.61925  36.0715
 8.64225  35.7733
 8.66525  35.4304
 8.68825  35.2136
 8.71125  34.9117
 8.73425  34.574
 8.75725  34.2988
 8.78025  34.0342
 8.80325  33.5007
 8.82625  33.0875
 8.84925  32.9364
 8.87225  32.5457
 8.89525  32.0296
 8.91825  31.6722
 8.94125  31.4254
 8.96425  31.1489
 8.98725  30.9452
 9.01025  30.7402
 9.03325  30.4495
 9.05625  30.188
 9.07925  29.9718
 9.10225  29.8187
 9.12525  29.4795
 9.14825  29.22
 9.17125  29.0247
 9.19425  28.7807
 9.21725  28.5393
 9.24025  28.2363
 9.26325  28.1753
 9.28625  28.0823
 9.30925  27.7834
 9.33225  27.5422
 9.35525  27.405
 9.37825  27.1882
 9.40125  27.0085
 9.42425  26.8281
 9.44725  26.7204
 9.47025  26.5989
 9.49325  26.5597
 9.51625  26.4058
 9.53925  26.3263
 9.56225  26.1826
 9.58525  25.9967
 9.60825  25.8066
 9.63125  25.701
 9.65425  25.5538
 9.67725  25.3135
 9.70025  25.1451
 9.72325  25.2649
 9.74625  25.1576
 9.76925  24.9207
 9.79225  24.7831
 9.81525  24.7721
 9.83825  24.6892
 9.86125  24.6849
 9.88425  24.7016
 9.90725  24.6569
 9.93025  24.6372
 9.95325  24.5766
 9.97625  24.4834
 9.99925  24.46
 10.0222  24.4334
 10.0453  24.3247
 10.0683  24.1194
 10.0913  24.0886
 10.1143  24.0456
 10.1373  24.0556
 10.1603  24.0091
 10.1832  24.0015
 10.2063  23.8601
 10.2293  23.7845
 10.2523  23.7955
 10.2752  23.761
 10.2982  23.8843
 10.3213  23.883
 10.3443  23.7303
 10.3673  23.5474
 10.3902  23.513
 10.4133  23.4926
 10.4363  23.3499
 10.4593  23.1861
 10.4823  23.0498
 10.5053  23.0112
 10.5283  23.0642
 10.5512  23.229
 10.5742  23.2488
 10.5973  23.1499
 10.6203  23.0922
 10.6433  23.0977
 10.6662  23.0752
 10.6893  22.9066
 10.7123  22.8206
 10.7353  22.8009
 10.7583  22.7672
 10.7813  22.7932
 10.8043  22.8365
 10.8272  22.8081
 10.8503  22.7307
 10.8733  22.7591
 10.8963  22.7247
 10.9192  22.7924
 10.9422  22.8354
 10.9653  22.7816
 10.9883  22.6848
 11.0113  22.6427
 11.0343  22.6288
 11.0573  22.5696
 11.0803  22.6072
 11.1033  22.6181
 11.1263  22.5838
 11.1493  22.5694
 11.1723  22.7488
 11.1953  22.7618
 11.2182  22.6737
 11.2413  22.6064
 11.2643  22.5425
 11.2873  22.5522
 11.3102  22.6528
 11.3333  22.6978
 11.3563  22.6331
 11.3793  22.7238
 11.4023  22.8961
 11.4253  22.9345
 11.4483  22.8916
 11.4713  22.9629
 11.4942  23.1033
 11.5173  23.7115
 11.5403  25.3403
 11.5633  28.0404
 11.5862  30.6671
 11.6093  30.3313
 11.6323  27.7427
 11.6553  24.9784
 11.6783  23.35
 11.7013  22.8583
 11.7243  22.743
 11.7473  22.6825
 11.7703  22.6071
 11.7933  22.5954
 11.8163  22.5932
 11.8393  22.5941
 11.8622  22.4795
 11.8853  22.4298
 11.9083  22.4677
 11.9313  22.6498
 11.9543  22.8278
 11.9773  23.0776
 12.0003  23.1648
 12.0233  23.0348
 12.0463  23.0956
 12.0693  23.5556
 12.0923  24.1328
 12.1153  24.1299
 12.1382  23.6374
 12.1613  23.1821
 12.1843  22.9313
 12.2073  22.7256
 12.2302  22.5524
 12.2533  22.4528
 12.2763  22.522
 12.2993  22.667
 12.3223  22.7098
 12.3453  22.6243
 12.3683  22.5749
 12.3913  22.6229
 12.4142  22.6476
 12.4373  22.6566
 12.4603  22.6765
 12.4833  22.6684
 12.5062  22.6153
 12.5292  22.5458
 12.5523  22.632
 12.5753  22.7009
 12.5983  22.7144
 12.6212  22.8509
 12.6443  22.9263
 12.6673  22.9397
 12.6903  22.954
 12.7133  23.0924
 12.7363  23.1184
 12.7593  23.0853
 12.7822  23.0999
 12.8052  23.1589
 12.8283  23.2673
 12.8513  23.3248
 12.8742  23.367
 12.8972  23.4262
 12.9203  23.5167
 12.9433  23.6218
 12.9663  23.7015
 12.9893  23.872
 13.0123  24.0014
 13.0353  24.1055
 13.0582  24.2753
 13.0813  24.4287
 13.1043  24.6695
 13.1273  24.8863
 13.1502  25.1916
 13.1732  25.3607
 13.1963  25.5874
 13.2193  25.9245
 13.2423  26.2781
 13.2652  26.4007
 13.2883  26.6408
 13.3113  26.9973
 13.3343  27.2902
 13.3573  27.5144
 13.3803  27.6469
 13.4033  27.9469
 13.4262  28.2564
 13.4492  28.5482
 13.4723  28.8067
 13.4953  29.0702
 13.5183  29.335
 13.5412  29.5176
 13.5643  29.672
 13.5873  29.7052
 13.6103  29.6141
 13.6333  29.6471
 13.6563  29.6655
 13.6793  29.7154
 13.7022  29.6524
 13.7253  29.538
 13.7483  29.7157
 13.7713  29.9162
 13.7942  29.9939
 13.8172  30.1425
 13.8403  30.3032
 13.8633  30.3186
 13.8863  31.153
 13.9093  33.7889
 13.9323  39.4104
 13.9553  46.1576
 13.9783  46.5323
 14.0013  38.0242
 14.0243  31.7311
 14.0473  29.167
 14.0703  28.312
 14.0932  27.9586
 14.1163  27.7385
 14.1393  27.415
 14.1623  27.144
 14.1852  26.9821
 14.2083  26.8206
 14.2313  26.6694
 14.2543  26.3883
 14.2773  26.3266
 14.3003  26.3694
 14.3233  26.2937
 14.3463  26.1708
 14.3692  26.1127
 14.3923  26.0371
 14.4153  25.9113
 14.4383  25.7981
 14.4612  25.8015
 14.4843  25.7666
 14.5073  25.6904
 14.5303  25.6474
 14.5533  25.6502
 14.5763  25.6034
 14.5993  25.4607
 14.6223  25.3563
 14.6453  25.3539
 14.6683  25.3145
 14.6913  25.3296
 14.7143  25.2205
 14.7372  25.117
 14.7603  25.0994
 14.7833  25.0242
 14.8063  24.9905
 14.8293  24.9542
 14.8523  24.9685
 14.8753  24.912
 14.8983  24.899
 14.9213  24.9723
 14.9443  24.9309
 14.9673  24.8934
 14.9903  24.8998
 15.0132  24.9891
 15.0363  25.031
 15.0593  25.0116
 15.0823  24.9886
 15.1052  25.1205
 15.1283  25.5248
 15.1513  26.5909
 15.1743  28.6674
 15.1973  30.3271
 15.2203  29.6863
 15.2433  27.4941
 15.2663  25.7221
 15.2892  25.0698
 15.3123  24.9332
 15.3353  24.8207
 15.3583  24.7777
 15.3812  24.7188
 15.4043  24.6157
 15.4273  24.6357
 15.4503  24.5919
 15.4733  24.5202
 15.4963  24.4744
 15.5193  24.544
 15.5423  24.5353
 15.5653  24.5342
 15.5883  24.5926
 15.6113  24.555
 15.6343  24.5664
 15.6572  24.5532
 15.6803  24.5239
 15.7033  24.5385
 15.7263  24.5289
 15.7492  24.5166
 15.7723  24.5446
 15.7953  24.6373
 15.8183  24.6918
 15.8413  24.5519
 15.8643  24.4644
 15.8873  24.4795
 15.9103  24.6258
 15.9332  24.6869
 15.9563  24.495
 15.9793  24.4321
 16.0023  24.5204
 16.0253  24.5908
 16.0482  24.6906
 16.0713  24.7217
 16.0943  24.7036
 16.1172  24.7753
 16.1403  24.7925
 16.1633  24.8391
 16.1863  24.8749
 16.2093  25.0698
 16.2323  25.3083
 16.2553  25.4242
 16.2783  25.3868
 16.3012  25.0801
 16.3243  24.8555
 16.3472  24.7845
 16.3703  24.6953
 16.3933  24.657
 16.4163  24.7524
 16.4393  24.7609
 16.4623  24.6704
 16.4853  24.6502
 16.5083  24.6982
 16.5312  24.6988
 16.5543  24.7043
 16.5773  24.6957
 16.6002  24.6301
 16.6233  24.5609
 16.6463  24.5015
 16.6693  24.6138
 16.6923  24.6834
 16.7153  24.6749
 16.7383  24.6078
 16.7613  24.5535
 16.7843  24.4619
 16.8073  24.4279
 16.8303  24.3081
 16.8533  24.3288
 16.8763  24.3569
 16.8992  24.3875
 16.9223  24.4166
 16.9453  24.3871
 16.9683  24.365
 16.9913  24.3413
 17.0143  24.3491
 17.0373  24.3163
 17.0603  24.2307
 17.0832  24.2958
 17.1063  24.2925
 17.1293  24.2094
 17.1522  24.272
 17.1753  24.2493
 17.1983  24.1974
 17.2213  24.183
 17.2443  24.2544
 17.2673  24.1872
 17.2903  24.2144
 17.3133  24.1877
 17.3362  24.1602
 17.3593  24.0772
 17.3823  23.9847
 17.4053  24.0169
 17.4283  24.0218
 17.4513  24.0448
 17.4743  24.0442
 17.4973  24.0324
 17.5203  23.9486
 17.5433  23.9862
 17.5663  23.9796
 17.5893  23.8599
 17.6123  23.8491
 17.6352  23.8965
 17.6583  23.8591
 17.6813  23.9049
 17.7042  23.9498
 17.7273  23.9374
 17.7503  23.9796
 17.7733  24.0432
 17.7963  24.0109
 17.8193  23.995
 17.8423  23.9407
 17.8653  23.9752
 17.8882  24.0677
 17.9113  24.2337
 17.9343  24.4631
 17.9573  25.0501
 17.9803  27.2629
 18.0033  32.1168
 18.0263  35.1202
 18.0493  32.1564
 18.0723  27.991
 18.0953  26.3215
 18.1183  25.8204
 18.1413  25.2925
 18.1643  24.78
 18.1872  24.3676
 18.2103  24.2394
 18.2333  24.1174
 18.2563  23.9354
 18.2793  23.8341
 18.3023  23.817
 18.3253  23.8418
 18.3483  23.865
 18.3712  23.8351
 18.3943  23.8092
 18.4173  23.7462
 18.4402  23.6307
 18.4633  23.7133
 18.4863  23.7551
 18.5093  23.6555
 18.5323  23.5493
 18.5553  23.4651
 18.5783  23.5704
 18.6013  23.7127
 18.6242  23.7375
 18.6473  23.6712
 18.6703  23.613
 18.6933  23.597
 18.7163  23.6118
 18.7392  23.6066
 18.7623  23.5631
 18.7853  23.5686
 18.8083  23.5655
 18.8313  23.5102
 18.8543  23.4376
 18.8773  23.4474
 18.9003  23.5212
 18.9232  23.6257
 18.9463  23.6396
 18.9693  23.5083
 18.9922  23.4268
 19.0153  23.5254
 19.0383  23.7077
 19.0613  23.7222
 19.0843  23.6654
 19.1073  23.4915
 19.1303  23.4714
 19.1533  23.5047
 19.1762  23.4757
 19.1993  23.4888
 19.2223  23.5798
 19.2453  23.6657
 19.2683  23.6994
 19.2913  23.6369
 19.3143  23.6382
 19.3373  23.6148
 19.3603  23.6806
 19.3833  23.767
 19.4062  23.8211
 19.4293  23.8609
 19.4523  23.8676
 19.4752  24.0058
 19.4983  24.0466
 19.5213  24.0362
 19.5443  24.146
 19.5673  24.2299
 19.5903  24.4208
 19.6133  24.9108
 19.6363  26.3309
 19.6593  29.6895
 19.6823  33.5486
 19.7053  34.0118
 19.7283  31.533
 19.7513  28.5049
 19.7742  26.811
 19.7973  26.5704
 19.8203  27.6976
 19.8433  30.158
 19.8663  31.0029
 19.8893  29.4881
 19.9123  27.229
 19.9353  25.4494
 19.9582  24.6686
 19.9813  24.2776
 20.0043  24.101
 20.0272  23.9835
 20.0503  23.9898
 20.0733  23.9415
 20.0963  23.9875
 20.1193  23.9376
 20.1423  23.8892
 20.1653  23.8574
 20.1883  23.8324
 20.2112  23.7976
 20.2343  23.8858
 20.2573  23.9079
 20.2803  23.8701
 20.3033  23.7892
 20.3263  23.7049
 20.3493  23.6356
 20.3723  23.574
 20.3953  23.5955
 20.4183  23.77
 20.4413  23.837
 20.4643  23.8292
 20.4873  23.8139
 20.5102  23.8245
 20.5333  23.7806
 20.5563  23.9008
 20.5792  23.9586
 20.6023  24.0057
 20.6253  24.0569
 20.6483  24.1204
 20.6713  24.4473
 20.6943  25.3815
 20.7173  27.0358
 20.7403  28.1436
 20.7632  27.8676
 20.7863  26.4552
 20.8093  25.3452
 20.8323  24.6185
 20.8553  24.3161
 20.8783  24.1501
 20.9013  24.1287
 20.9243  24.1877
 20.9473  24.1872
 20.9703  24.0993
 20.9933  24.0484
 21.0163  23.949
 21.0393  23.9563
 21.0622  23.9022
 21.0853  23.8838
 21.1083  23.9507
 21.1313  24.009
 21.1543  23.9019
 21.1773  23.9255
 21.2003  23.9943
 21.2233  23.9167
 21.2462  23.9453
 21.2693  23.9802
 21.2923  24.0166
 21.3152  23.971
 21.3383  23.9673
 21.3613  24.0274
 21.3843  24.0441
 21.4073  24.0623
 21.4303  24.1064
 21.4533  24.0341
 21.4763  23.9963
 21.4992  24.0046
 21.5223  23.9336
 21.5453  23.9249
 21.5683  23.8834
 21.5913  23.9887
 21.6142  24.1299
 21.6373  24.2653
 21.6603  24.2716
 21.6833  24.2558
 21.7063  24.2026
 21.7293  24.1401
 21.7523  24.1253
 21.7753  24.1413
 21.7982  24.2054
 21.8213  24.2452
 21.8443  24.2184
 21.8672  24.2182
 21.8903  24.1941
 21.9133  24.1751
 21.9363  24.173
 21.9593  24.184
 21.9823  24.3141
 22.0053  24.3873
 22.0283  24.3982
 22.0512  24.3302
 22.0743  24.3894
 22.0973  24.2921
 22.1203  24.3454
 22.1433  24.4824
 22.1663  24.5532
 22.1893  24.4597
 22.2123  24.357
 22.2353  24.5009
 22.2583  24.5484
 22.2813  24.5232
 22.3043  24.5185
 22.3273  24.5574
 22.3502  24.5487
 22.3733  24.5497
 22.3963  24.5643
 22.4193  24.5171
 22.4423  24.6429
 22.4653  24.6741
 22.4883  24.658
 22.5113  24.6741
 22.5343  24.7934
 22.5573  24.7963
 22.5803  24.7803
 22.6033  24.8257
 22.6263  24.9133
 22.6493  24.9638
 22.6723  25.0261
 22.6953  25.122
 22.7183  25.2001
 22.7413  25.2631
 22.7643  25.3057
 22.7873  25.2794
 22.8103  25.359
 22.8333  25.4757
 22.8563  25.501
 22.8793  25.5099
 22.9022  25.619
 22.9253  25.8959
 22.9483  26.0614
 22.9713  26.15
 22.9943  26.3049